timestamp,acc_x,acc_y,acc_z
0.027,0.925,0.089,-0.178
0.047,1.0606923076923076,-0.408,-0.3211538461538461
0.067,1.219,-0.243,0.111
0.087,1.537,-0.756,-0.483
0.107,1.0435833333333333,-1.0989166666666668,0.18174999999999997
0.127,0.5368461538461539,-0.5428461538461538,1.3105384615384614
0.147,0.1743333333333336,0.3049999999999995,1.7296666666666665
0.167,-0.445,0.329,2.13
0.187,-1.5138181818181817,-0.6191818181818182,1.7285454545454546
0.207,-1.3545,-1.2759999999999998,0.6948333333333335
0.227,-1.035,-1.7362000000000002,-0.2037000000000001
0.247,-0.8029285714285714,-2.055857142857143,-0.8297857142857143
0.267,-0.815,-2.006,-1.003
0.28700000000000003,-1.0192500000000027,-1.239499999999994,-0.15174999999999306
0.30700000000000005,-0.6354615384615374,-0.8426923076923075,-0.10084615384615464
0.327,-0.877,-0.792,-0.429
0.34700000000000003,-1.1780000000000008,-0.6189999999999978,-0.8703999999999995
0.36700000000000005,-1.2671176470588235,-0.09076470588235211,-0.5762941176470578
0.387,-1.1663333333333334,-0.26599999999999996,0.06333333333333332
0.40700000000000003,-1.3299999999999998,-0.4920000000000003,-0.625000000000001
0.42700000000000005,-0.8769999999999997,-0.595,-1.0709999999999993
0.447,-0.7480526315789474,-0.5907894736842105,-0.8257368421052631
0.467,-0.09119999999999993,-0.2360666666666667,0.012666666666666708
0.48700000000000004,0.37100000000000005,-0.47499999999999987,0.16700000000000018
0.507,0.26456250000000003,-0.28625,0.171625
0.527,0.05981818181818182,0.10136363636363635,-0.19172727272727275
0.547,0.08418750000000007,0.20340625000000004,-0.4222187500000002
0.5670000000000001,0.11543750000000018,0.22778125000000013,-0.5153437500000005
0.5870000000000001,0.5960000000000024,0.2993750000000004,-0.5596250000000016
0.607,0.7641,0.8648,-0.48830000000000007
0.627,0.9404545454545454,0.061,-0.8255454545454546
0.647,0.509,-0.834,-0.575
0.667,0.44,0.342,-0.517
0.687,0.9614999999999989,-1.850333333333341,0.2305000000000036
0.7070000000000001,-0.1411111111111129,-0.3913333333333327,0.08588888888889931
0.7270000000000001,-0.325599999999994,0.6178000000000108,1.0965999999999922
0.747,0.5459,2.2535000000000003,0.0552
0.767,-0.8156153846153846,1.742076923076923,0.3313846153846154
0.787,-2.1216999999999997,3.0204,-0.7962
0.807,-5.227083333333334,3.347166666666667,0.2982500000000001
0.8270000000000001,-3.763599999999939,5.836799999999993,-2.9116000000000017
0.8470000000000001,2.7481666666666777,4.743333333333325,-3.992000000000006
0.867,4.454090909090909,3.004090909090909,-2.241090909090909
0.887,4.084090909090909,0.094090909090909,-1.581090909090909
0.907,-1.2228999999999999,0.6639999999999999,3.5762
0.927,-3.4974999999999996,-1.5793333333333333,1.1808333333333332
0.9470000000000001,-0.4482777777777751,-0.6400555555555558,1.5811111111110996
0.9670000000000001,0.8520000000000053,-0.31166666666666437,-1.1331666666666682
0.987,1.7703000000000002,0.47919999999999996,-1.3168
1.007,1.873,1.25,-1.234
1.027,0.76140000000001,0.817600000000007,-1.866399999999998
1.047,-0.8900416666666647,-0.305874999999999,-1.8517083333333348
1.067,-1.2308749999999982,-0.483374999999999,-1.5858750000000015
1.087,-0.4070909090909097,-0.27599999999999997,-1.3969090909090902
1.107,0.058,-0.311,-2.218
1.127,-0.30277777777778103,-0.3305555555555567,-3.1912222222222253
1.147,-0.5864736842105263,-0.5993684210526317,-3.6993684210526316
1.167,-0.26218181818181785,-1.1138181818181823,-3.6682727272727274
1.1869999999999998,-0.06981818181818365,-1.358454545454546,-3.6141818181818164
1.2069999999999999,-0.0748999999999969,-1.480099999999996,-3.9550999999999967
1.2269999999999999,-0.7251666666666633,-2.474833333333321,-4.502999999999999
1.2469999999999999,-0.9294117647058814,-3.8048235294117547,-4.504588235294118
1.267,-0.49175000000000196,-5.535749999999992,-5.038499999999995
1.287,-0.3053846153846154,-6.91376923076923,-6.1170769230769215
1.307,-1.7469000000000061,-7.987099999999991,-6.771200000000014
1.327,0.37849999999998374,-9.334999999999994,-3.6720000000000224
1.347,3.4269999999999996,-9.190466666666667,0.6209333333333313
1.367,4.179272727272727,-8.737636363636364,3.273909090909091
1.387,3.7299999999999995,-8.96076923076923,2.7949999999999995
1.407,4.0533636363636365,-9.363909090909091,3.280454545454548
1.427,5.545150000000016,-11.23100000000002,5.4358999999999975
1.4469999999999998,3.5150000000010424,-12.860000000000346,5.424999999999926
1.4669999999999999,-2.8431666666666717,-10.890333333333329,10.705166666666608
1.4869999999999999,-1.3467777777777818,-12.181555555555562,15.731111111111094
1.507,-1.7303333333333335,-9.989333333333333,17.104
1.527,-2.7578749999999994,-5.670437500000011,14.781687500000011
1.547,-3.687294117647055,-3.0475882352941235,11.5644705882353
1.567,-4.290888888888888,-1.8125555555555581,10.368000000000002
1.587,-3.440000000000003,2.4621111111111085,6.755000000000003
1.607,-1.9101666666666666,3.3658333333333332,4.8205
1.627,-3.825272727272745,4.407272727272736,4.192272727272729
1.647,-7.448592592592598,6.646814814814822,4.712629629629633
1.667,-8.380444444444446,7.803111111111113,5.165222222222223
1.687,-10.200909090909096,11.794181818181821,8.910727272727287
1.7069999999999999,-11.413384615384613,11.575461538461562,12.909461538461505
1.7269999999999999,-11.857461538461532,8.722461538461573,16.259846153846123
1.7469999999999999,-12.925777777777775,3.9387777777778243,21.212222222222174
1.767,-11.025799999999998,0.4960000000000001,23.8324
1.787,-0.43220000000000314,-7.91373333333333,26.488333333333333
1.807,3.328888888888873,-11.512277777777761,26.277222222222225
1.827,5.167849315068491,-13.38747945205479,25.909356164383563
1.847,5.671958904109587,-13.970767123287668,25.6323698630137
1.867,6.176068493150684,-14.554054794520546,25.355383561643837
1.887,6.68017808219178,-15.137342465753424,25.078397260273974
1.907,7.946999999999963,-22.55524999999999,0.6299999999999784
1.927,-0.11081818181820924,-20.344909090909084,-3.4748181818181942
1.9469999999999998,-5.298749999999969,-19.483500000000006,-5.384249999999976
1.9669999999999999,-10.25718181818181,-18.93863636363636,-8.241909090909074
1.9869999999999999,-10.632727272727267,-19.930272727272726,-9.698636363636364
2.007,-12.101181818181823,-19.91590909090909,-9.137999999999995
2.027,-14.500000000000027,-19.37139999999999,-7.7681999999999904
2.047,-15.844099999999992,-18.46799999999999,-6.935699999999995
2.067,-13.71818181818181,-16.953181818181815,-6.73336363636364
2.087,-11.694434782608678,-16.128565217391298,-7.355782608695657
2.107,-5.294,-14.801,-9.178
2.1270000000000002,1.1190000000000824,-13.61260000000001,-10.383999999999965
2.1470000000000002,7.627384615384704,-14.264692307692306,-6.578384615384548
2.1670000000000003,16.828000000000205,-13.140999999999904,1.0080000000001927
2.1870000000000003,22.730538461538494,-9.48253846153843,7.053615384615425
2.2070000000000003,21.635199999999983,-6.588199999999981,7.510933333333325
2.2270000000000003,19.979266666666643,-4.4705999999999655,6.970133333333334
2.2470000000000003,17.269909090909078,0.6742727272727493,9.03145454545456
2.2670000000000003,16.261299999999988,3.5186500000000147,9.44104999999998
2.2870000000000004,15.346888888888827,4.444111111111144,8.140666666666611
2.3070000000000004,11.746999999999986,9.631999999999966,5.868999999999825
2.3270000000000004,10.393363636363553,9.338000000000093,-1.587363636363753
2.347,-4.027727272727214,3.405181818181778,-4.835818181818195
2.367,-9.819666666666656,6.727833333333335,-2.5178333333333445
2.387,-10.728599999999998,6.458400000000004,-1.590800000000001
2.407,-10.914400000000002,7.239300000000003,-1.122499999999996
2.427,-11.926000000000002,8.20955555555556,1.4456666666666962
2.447,-11.742999999999995,8.525555555555554,5.161444444444475
2.467,-10.705099999999995,7.9747999999999974,9.398500000000011
2.487,-6.898799999999942,7.071999999999999,14.406200000000059
2.507,-0.4743636363635849,6.19036363636361,20.961363636363682
2.527,3.4360000000000164,3.38066666666665,23.721166666666672
2.547,5.848000000000014,0.30355555555552716,20.525111111111034
2.567,5.896799999999982,-1.7916000000000216,14.920199999999952
2.587,3.0193636363636034,-4.640454545454566,9.049454545454495
2.607,0.671000000000008,-5.3245384615384586,5.32953846153845
2.6270000000000002,3.760200000000073,-6.415800000000023,2.729599999999945
2.6470000000000002,7.122363636363642,-7.887090909090914,-0.8087272727272958
2.6670000000000003,6.559799999999956,-8.471300000000019,-2.7164000000000192
2.6870000000000003,2.6587999999999354,-9.89760000000002,-3.5032000000000005
2.7070000000000003,-1.0040000000000515,-11.459400000000013,-3.3424000000000085
2.7270000000000003,-4.573000000000071,-12.579400000000012,-3.6745000000000108
2.7470000000000003,-6.003777777777722,-13.34811111111114,-2.597999999999957
2.7670000000000003,-3.0812999999999637,-14.763200000000014,-1.7322000000000373
2.7870000000000004,-2.170600000000034,-15.925400000000032,-4.612200000000051
2.8070000000000004,-6.105636363636403,-17.103636363636344,-8.875818181818252
2.8270000000000004,-8.536500000000007,-16.144999999999992,-13.627166666666701
2.847,-8.028600000000035,-14.497000000000021,-14.88800000000004
2.867,-2.3411818181818784,-11.942454545454552,-10.41054545454548
2.887,5.83,-11.917,-6.311
2.907,16.931692307692348,-8.354615384615357,-0.0042307692307410605
2.927,22.982,-4.128,4.667
2.947,24.470000000000006,-1.5593636363636227,4.892363636363632
2.967,22.535,3.015,4.039
2.987,19.06241666666665,6.37900000000001,4.0909166666666685
3.007,12.963666666666558,7.675444444444441,3.704222222222212
3.027,6.266999999999938,7.704000000000001,1.9249999999999847
3.047,-0.05000000000004273,7.49083333333333,0.09983333333332554
3.067,-4.359111111111157,6.810333333333327,0.1345555555555569
3.087,-6.94,6.86,0.273
3.107,-9.47344444444446,7.288111111111131,0.6340000000000325
3.1270000000000002,-10.251777777777772,8.688777777777814,2.7274444444444788
3.1470000000000002,-9.40109090909089,10.792636363636383,4.252818181818188
3.1670000000000003,-6.901399999999941,12.178599999999994,5.505400000000034
3.1870000000000003,-3.7024545454545406,11.960636363636354,7.939909090909118
3.2070000000000003,-1.552454545454498,10.984636363636348,12.217363636363693
3.2270000000000003,3.098888888888967,8.640777777777704,17.50133333333341
3.2470000000000003,6.691272727272746,4.069454545454481,20.187636363636358
3.2670000000000003,7.7800714285714605,-0.46900000000004316,19.435285714285698
3.2870000000000004,9.765666666666707,-2.1658888888889307,18.53511111111108
3.3070000000000004,10.055307692307663,-5.494230769230876,16.14830769230762
3.3270000000000004,6.694499999999971,-8.255999999999966,9.28019999999989
3.3470000000000004,7.215909090909134,-6.716272727272738,4.119545454545421
3.367,8.32266666666672,-8.053777777777766,2.182555555555565
3.387,2.8872857142856887,-8.704357142857145,1.587357142857141
3.407,-4.047363636363647,-10.067636363636371,1.138454545454546
3.427,-5.685250000000004,-11.722000000000008,0.6189999999999987
3.447,-6.135399999999994,-13.667600000000018,0.3584000000000027
3.467,-5.729,-14.78,0.764
3.487,-6.0560000000000045,-15.362461538461545,0.4554615384615257
3.507,-6.722500000000004,-16.458700000000007,-1.6639000000000128
3.527,-8.694285714285726,-16.743357142857143,-5.040928571428587
3.547,-11.007153846153853,-15.174846153846147,-8.255000000000013
3.567,-10.272,-12.856,-9.97
3.587,-3.904,-11.477,-9.53
3.607,2.23,-10.967,-6.981
3.6270000000000002,5.435615384615398,-12.674384615384625,-4.06184615384614
3.6470000000000002,11.770454545454614,-10.940636363636305,2.584818181818242
3.6670000000000003,19.002692307692346,-5.45707692307691,7.559307692307704
3.6870000000000003,23.955916666666692,-4.260916666666638,7.8689999999999705
3.7070000000000003,23.94499999999994,-1.5569999999999213,6.369000000000004
3.7270000000000003,20.70099999999991,2.456000000000086,6.493999999999978
3.7470000000000003,17.523615384615365,5.101076923076936,5.236538461538451
3.7670000000000003,12.243444444444243,6.161555555555568,2.863777777777702
3.7870000000000004,4.789333333333129,6.364888888888907,1.0724444444444008
3.8070000000000004,0.17144444444432305,6.300111111111093,-0.41411111111115234
3.8270000000000004,-2.1573333333333866,6.89400000000002,-1.3774444444444713
3.8470000000000004,-8.431000000000118,4.658000000000063,-1.7139999999999374
3.867,-11.303090909090916,7.311545454545463,0.2628181818181861
3.887,-12.01769230769231,8.96807692307693,1.106230769230773
3.907,-11.40961538461538,11.001615384615391,2.4366153846153917
3.927,-8.69916666666668,11.291083333333336,6.71674999999997
3.947,-4.879749999999975,10.950000000000003,14.382500000000034
3.967,0.36069999999997454,11.315900000000008,20.53859999999998
3.987,5.4708999999999826,8.792900000000014,23.0053
4.007,9.680999999999944,5.537000000000029,22.82545454545455
4.027,14.818,3.412,22.004
4.047000000000001,19.095000000000077,0.4969999999999055,18.91563636363625
4.067,18.146749999999965,-5.205500000000036,10.533749999999948
4.087000000000001,15.316499999999948,-8.233833333333362,6.2901666666666225
4.107,12.828,-9.442,3.458
4.127,9.724,-11.343,-0.584
4.147,1.4754615384613414,-12.824000000000018,-2.5363846153846286
4.167,-4.719,-13.681,-0.337
4.187,-9.741166666666766,-17.19800000000008,-0.6134166666667211
4.207,-10.290076923076928,-19.947769230769236,-1.3740000000000159
4.227,-11.346000000000005,-20.548,-4.801333333333367
4.247,-11.884111111111109,-20.583000000000002,-6.485666666666664
4.267,-12.1094,-20.302799999999994,-6.568200000000002
4.287,-11.217499999999923,-19.349999999999962,-6.725875000000003
4.307,-5.689499999999933,-17.03449999999998,-6.210899999999985
4.327,-3.055123969072165,-16.291915721649485,-5.635411597938145
4.347,-3.0353146907216493,-16.285632216494843,-5.629890979381443
4.367,-3.0155054123711342,-16.279348711340205,-5.624370360824742
4.3870000000000005,-2.9956961340206183,-16.273065206185567,-5.618849742268042
4.407,-2.9758868556701032,-16.266781701030926,-5.61332912371134
4.4270000000000005,-2.9560775773195873,-16.260498195876288,-5.607808505154639
4.447,-2.9362682989690723,-16.25421469072165,-5.602287886597939
4.4670000000000005,-2.9164590206185563,-16.24793118556701,-5.596767268041237
4.487,-2.8966497422680413,-16.24164768041237,-5.591246649484536
4.507000000000001,-2.8768404639175253,-16.235364175257732,-5.585726030927835
4.527,-2.8570311855670103,-16.22908067010309,-5.580205412371134
4.547000000000001,-2.8372219072164944,-16.222797164948453,-5.574684793814433
4.567,-2.8174126288659793,-16.216513659793815,-5.5691641752577326
4.587000000000001,-2.7976033505154634,-16.210230154639174,-5.563643556701031
4.607,-2.7777940721649483,-16.203946649484536,-5.55812293814433
4.627000000000001,-2.7579847938144324,-16.197663144329898,-5.552602319587629
4.647,-2.7381755154639174,-16.191379639175256,-5.547081701030928
4.667,-2.7183662371134023,-16.18509613402062,-5.541561082474227
4.687,-2.6985569587628864,-16.17881262886598,-5.536040463917526
4.707,-2.6787476804123713,-16.17252912371134,-5.530519845360825
4.727,-2.6589384020618554,-16.1662456185567,-5.524999226804124
4.747,-2.6391291237113403,-16.159962113402063,-5.5194786082474225
4.767,-2.6193198453608244,-16.15367860824742,-5.513957989690722
4.787,-2.5995105670103094,-16.147395103092784,-5.508437371134021
4.807,-2.579701288659794,-16.141111597938142,-5.5029167525773195
4.827,-2.5598920103092784,-16.134828092783504,-5.497396134020619
4.847,-2.540082731958763,-16.128544587628866,-5.491875515463917
4.867,-2.5202734536082474,-16.122261082474225,-5.4863548969072164
4.8870000000000005,-2.500464175257732,-16.115977577319587,-5.480834278350516
4.907,-2.480654896907217,-16.10969407216495,-5.475313659793815
4.9270000000000005,-2.460845618556701,-16.103410567010307,-5.469793041237113
4.947,-2.441036340206186,-16.09712706185567,-5.464272422680413
4.9670000000000005,-2.42122706185567,-16.09084355670103,-5.458751804123711
4.987,-2.401417783505155,-16.08456005154639,-5.45323118556701
5.007000000000001,-2.381608505154639,-16.078276546391752,-5.44771056701031
5.027,-2.361799226804124,-16.071993041237114,-5.442189948453608
5.047000000000001,-2.341989948453608,-16.065709536082473,-5.436669329896907
5.067,-2.322180670103093,-16.059426030927835,-5.431148711340207
5.087000000000001,-2.302371391752577,-16.053142525773197,-5.425628092783505
5.107,-2.282562113402062,-16.046859020618555,-5.420107474226804
5.127000000000001,-2.262752835051546,-16.040575515463917,-5.414586855670103
5.147,-2.242943556701031,-16.03429201030928,-5.409066237113402
5.167,-2.223134278350516,-16.028008505154638,-5.403545618556701
5.187,-2.203325,-16.021725,-5.3980250000000005
5.207,-2.183515721649485,-16.015441494845362,-5.392504381443299
5.227,-2.163706443298969,-16.00915798969072,-5.386983762886598
5.247,-2.143897164948454,-16.002874484536083,-5.3814631443298975
5.267,-2.124087886597938,-15.996590979381443,-5.375942525773196
5.287,-2.104278608247423,-15.990307474226803,-5.370421907216495
5.307,-2.084469329896907,-15.984023969072165,-5.3649012886597935
5.327,-2.064660051546392,-15.977740463917526,-5.359380670103093
5.347,-2.0448507731958765,-15.971456958762886,-5.353860051546392
5.367,-2.025041494845361,-15.965173453608248,-5.3483394329896905
5.3870000000000005,-2.0052322164948455,-15.958889948453608,-5.34281881443299
5.407,-1.9854229381443302,-15.952606443298968,-5.337298195876289
5.4270000000000005,-1.9656136597938143,-15.946322938144329,-5.3317775773195875
5.447,-1.9458043814432993,-15.94003943298969,-5.326256958762887
5.4670000000000005,-1.9259951030927833,-15.933755927835051,-5.320736340206185
5.487,-1.9061858247422683,-15.927472422680411,-5.315215721649484
5.507000000000001,-1.8863765463917523,-15.921188917525773,-5.309695103092784
5.527,-1.8665672680412373,-15.914905412371134,-5.304174484536082
5.547000000000001,-1.8467579896907214,-15.908621907216494,-5.298653865979381
5.567,-1.8269487113402063,-15.902338402061856,-5.293133247422681
5.587000000000001,-1.8071394329896904,-15.896054896907216,-5.287612628865979
5.607,-1.7873301546391753,-15.889771391752577,-5.282092010309278
5.627000000000001,-1.7675208762886594,-15.883487886597937,-5.276571391752578
5.647,-1.7477115979381446,-15.877204381443299,-5.271050773195876
5.667,-1.7279023195876295,-15.87092087628866,-5.265530154639175
5.687,-1.7080930412371136,-15.86463737113402,-5.260009536082475
5.707,-1.6882837628865985,-15.858353865979382,-5.254488917525773
5.727,-1.6684744845360826,-15.852070360824742,-5.248968298969072
5.747,-1.6486652061855676,-15.845786855670102,-5.2434476804123715
5.767,-1.6288559278350516,-15.839503350515464,-5.23792706185567
5.787,-1.6090466494845366,-15.833219845360825,-5.232406443298969
5.807,-1.5892373711340206,-15.826936340206185,-5.226885824742268
5.827,-1.5694280927835056,-15.820652835051547,-5.221365206185567
5.847,-1.5496188144329897,-15.814369329896907,-5.215844587628866
5.867,-1.5298095360824746,-15.808085824742268,-5.210323969072165
5.8870000000000005,-1.5100002577319587,-15.801802319587628,-5.204803350515464
5.907,-1.4901909793814436,-15.79551881443299,-5.199282731958763
5.9270000000000005,-1.4703817010309277,-15.78923530927835,-5.1937621134020615
5.947,-1.4505724226804126,-15.78295180412371,-5.188241494845361
5.9670000000000005,-1.4307631443298967,-15.776668298969073,-5.18272087628866
5.987,-1.4109538659793819,-15.770384793814433,-5.1772002577319585
6.007000000000001,-1.391144587628866,-15.764101288659793,-5.171679639175258
6.027,-1.371335309278351,-15.757817783505155,-5.166159020618557
6.047000000000001,-1.351526030927835,-15.751534278350515,-5.160638402061855
6.067,-1.33171675257732,-15.745250773195876,-5.155117783505155
6.087000000000001,-1.311907474226804,-15.738967268041236,-5.149597164948453
6.107,-1.292098195876289,-15.732683762886598,-5.144076546391752
6.127000000000001,-1.272288917525773,-15.726400257731958,-5.138555927835052
6.147,-1.252479639175258,-15.720116752577319,-5.13303530927835
6.167000000000001,-1.232670360824742,-15.71383324742268,-5.127514690721649
6.187,-1.212861082474227,-15.707549742268041,-5.121994072164949
6.207,-1.193051804123712,-15.701266237113401,-5.116473453608247
6.227,-1.173242525773196,-15.694982731958763,-5.110952835051546
6.247,-1.153433247422681,-15.688699226804124,-5.105432216494846
6.267,-1.133623969072165,-15.682415721649484,-5.099911597938144
6.287,-1.11381469072165,-15.676132216494846,-5.094390979381443
6.307,-1.094005412371134,-15.669848711340206,-5.0888703608247425
6.327,-1.0741961340206192,-15.663565206185567,-5.083349742268041
6.347,-1.0543868556701033,-15.657281701030927,-5.07782912371134
6.367,-1.0345775773195882,-15.650998195876289,-5.0723085051546395
6.3870000000000005,-1.0147682989690723,-15.64471469072165,-5.066787886597938
6.407,-0.9949590206185572,-15.63843118556701,-5.061267268041237
6.4270000000000005,-0.9751497422680413,-15.632147680412372,-5.055746649484536
6.447,-0.9553404639175263,-15.625864175257732,-5.050226030927835
6.4670000000000005,-0.9355311855670103,-15.619580670103092,-5.044705412371134
6.487,-0.9157219072164953,-15.613297164948454,-5.039184793814433
6.507000000000001,-0.8959126288659793,-15.607013659793814,-5.033664175257732
6.527,-0.8761033505154643,-15.600730154639175,-5.028143556701031
6.547000000000001,-0.8562940721649483,-15.594446649484535,-5.0226229381443295
6.567,-0.8364847938144333,-15.588163144329897,-5.017102319587629
6.587000000000001,-0.8166755154639174,-15.581879639175257,-5.011581701030927
6.607,-0.7968662371134023,-15.575596134020618,-5.006061082474226
6.627000000000001,-0.7770569587628864,-15.56931262886598,-5.000540463917526
6.647,-0.7572476804123713,-15.56302912371134,-4.995019845360825
6.667000000000001,-0.7374384020618554,-15.5567456185567,-4.989499226804123
6.687,-0.7176291237113404,-15.550462113402062,-4.983978608247423
6.707,-0.6978198453608253,-15.544178608247423,-4.978457989690722
6.727,-0.6780105670103094,-15.537895103092783,-4.97293737113402
6.747,-0.6582012886597943,-15.531611597938145,-4.96741675257732
6.767,-0.6383920103092784,-15.525328092783505,-4.961896134020618
6.787,-0.6185827319587633,-15.519044587628866,-4.956375515463917
6.807,-0.5987734536082474,-15.512761082474226,-4.950854896907217
6.827,-0.5789641752577328,-15.506477577319588,-4.945334278350515
6.847,-0.5591548969072169,-15.500194072164948,-4.939813659793814
6.867,-0.5393456185567018,-15.493910567010309,-4.9342930412371135
6.8870000000000005,-0.5195363402061859,-15.48762706185567,-4.928772422680412
6.907,-0.49972706185567084,-15.481343556701031,-4.923251804123711
6.9270000000000005,-0.4799177835051549,-15.475060051546391,-4.9177311855670105
6.947,-0.46010850515463986,-15.468776546391753,-4.912210567010309
6.9670000000000005,-0.4402992268041239,-15.462493041237114,-4.906689948453608
6.987,-0.4204899484536089,-15.456209536082474,-4.9011693298969075
7.007000000000001,-0.40068067010309294,-15.449926030927834,-4.895648711340206
7.027,-0.3808713917525779,-15.443642525773196,-4.890128092783505
7.047000000000001,-0.36106211340206196,-15.437359020618556,-4.8846074742268035
7.067,-0.3412528350515469,-15.431075515463917,-4.879086855670103
7.087000000000001,-0.321443556701031,-15.424792010309279,-4.873566237113402
7.107,-0.3016342783505159,-15.418508505154639,-4.8680456185567005
7.127000000000001,-0.281825,-15.412225,-4.862525
7.147,-0.26201572164948495,-15.405941494845361,-4.857004381443299
7.167000000000001,-0.242206443298969,-15.399657989690722,-4.851483762886597
7.187,-0.22239716494845396,-15.393374484536082,-4.845963144329897
7.207,-0.20258788659793892,-15.387090979381444,-4.840442525773196
7.227,-0.18277860824742298,-15.380807474226804,-4.834921907216494
7.247,-0.16296932989690793,-15.374523969072165,-4.829401288659794
7.267,-0.143160051546392,-15.368240463917525,-4.823880670103092
7.287,-0.12335077319587695,-15.361956958762887,-4.818360051546391
7.307,-0.10354149484536102,-15.355673453608247,-4.812839432989691
7.327,-0.08373221649484597,-15.349389948453608,-4.80731881443299
7.347,-0.06392293814433003,-15.34310644329897,-4.801798195876288
7.367,-0.044113659793814985,-15.33682293814433,-4.796277577319588
7.3870000000000005,-0.02430438144329905,-15.33053943298969,-4.790756958762886
7.407,-0.004495103092784003,-15.324255927835052,-4.785236340206185
7.4270000000000005,0.015314175257731932,-15.317972422680413,-4.7797157216494845
7.447,0.03512345360824698,-15.311688917525773,-4.774195103092783
7.4670000000000005,0.054932731958762915,-15.305405412371133,-4.768674484536082
7.487,0.07474201030927752,-15.299121907216495,-4.7631538659793815
7.507000000000001,0.09455128865979345,-15.292838402061856,-4.75763324742268
7.527,0.1143605670103085,-15.286554896907216,-4.752112628865979
7.547000000000001,0.13416984536082444,-15.280271391752578,-4.7465920103092785
7.567,0.15397912371133948,-15.273987886597938,-4.741071391752577
7.587000000000001,0.17378840206185542,-15.267704381443298,-4.735550773195876
7.607,0.19359768041237047,-15.26142087628866,-4.730030154639175
7.627000000000001,0.2134069587628864,-15.25513737113402,-4.724509536082474
7.647,0.23321623711340145,-15.248853865979381,-4.718988917525773
7.667000000000001,0.2530255154639174,-15.242570360824743,-4.7134682989690715
7.687,0.27283479381443243,-15.236286855670103,-4.707947680412371
7.707,0.2926440721649475,-15.230003350515464,-4.70242706185567
7.727,0.3124533505154634,-15.223719845360826,-4.6969064432989684
7.747,0.33226262886597846,-15.217436340206186,-4.691385824742268
7.767,0.3520719072164944,-15.211152835051546,-4.685865206185567
7.787,0.37188118556700944,-15.204869329896907,-4.680344587628866
7.807,0.3916904639175254,-15.198585824742269,-4.674823969072165
7.827,0.4114997422680404,-15.192302319587629,-4.669303350515464
7.847,0.43130902061855636,-15.18601881443299,-4.663782731958762
7.867,0.4511182989690714,-15.179735309278351,-4.658262113402062
7.8870000000000005,0.47092757731958734,-15.173451804123712,-4.65274149484536
7.907,0.4907368556701024,-15.167168298969072,-4.647220876288659
7.9270000000000005,0.5105461340206183,-15.160884793814432,-4.641700257731959
7.947,0.5303554123711334,-15.154601288659794,-4.636179639175257
7.9670000000000005,0.5501646907216493,-15.148317783505155,-4.630659020618556
7.987,0.5699739690721644,-15.142034278350515,-4.625138402061856
8.007,0.5897832474226794,-15.135750773195877,-4.619617783505154
8.027,0.6095925257731944,-15.129467268041237,-4.614097164948454
8.046999999999999,0.6294018041237095,-15.1231837628866,-4.6085765463917525
8.067,0.6492110824742263,-15.11690025773196,-4.603055927835051
8.087,0.6690203608247414,-15.11061675257732,-4.59753530927835
8.107,0.6888296391752564,-15.10433324742268,-4.5920146907216495
8.126999999999999,0.7086389175257715,-15.098049742268042,-4.586494072164949
8.147,0.7284481958762878,-15.091766237113402,-4.580973453608247
8.167,0.7482574742268029,-15.085482731958763,-4.575452835051546
8.187,0.7680667525773179,-15.079199226804125,-4.569932216494845
8.206999999999999,-4.133499999999094,6.85650000000029,-7.918500000000203
8.226999999999999,-5.954181818181815,4.814000000000063,-4.274909090909331
8.247,-6.801000000000122,4.908666666666751,-1.3056666666664967
8.267,-8.578999999999915,6.378599999999929,3.515199999999849
8.286999999999999,-10.825399999999915,8.968599999999787,7.29499999999977
8.306999999999999,-10.605000000000134,10.96181818181808,10.177272727272506
8.327,-6.501400000000048,12.589599999999987,13.53899999999997
8.347,-0.38980000000025417,13.537999999999986,17.679999999999847
8.366999999999999,8.36212499999975,12.684250000000057,20.09187499999999
8.386999999999999,14.463999999999722,8.928700000000427,17.21530000000045
8.407,14.62691666666669,5.84808333333339,14.248833333333373
8.427,14.96462499999995,4.0137500000000434,13.416750000000023
8.447,16.57599999999995,2.2030000000001033,12.039000000000062
8.466999999999999,15.142666666666862,-1.4726666666664447,10.022333333333481
8.487,12.480374999999997,-3.225374999999995,7.951749999999977
8.507,14.149800000000027,-4.50900000000006,5.688999999999949
8.527,11.81354545454576,-8.894999999999781,2.8467272727274033
8.546999999999999,3.676500000000438,-11.32749999999996,1.550500000000007
8.567,-4.6545,-11.9875,1.843
8.587,-7.472363636363557,-13.063909090909034,2.9543636363636354
8.607,-7.255750000000087,-15.708916666666502,3.0580833333333337
8.626999999999999,-6.77599999999996,-18.0742727272727,2.8477272727272815
8.647,-9.796666666666793,-17.867999999999967,2.2815555555555207
8.667,-13.949666666666667,-16.890666666666664,-0.09799999999999998
8.687,-15.198000000000008,-15.890200000000007,-3.049999999999974
8.706999999999999,-10.098600000000257,-15.367200000000013,-4.415399999999988
8.727,-1.1496153846155095,-14.434923076923093,-3.3399230769231054
8.747,9.791400000000168,-12.554799999999968,0.7512000000000728
8.767,16.888999999999804,-11.223500000000062,2.759999999999995
8.786999999999999,17.87750000000003,-8.071833333333473,0.6871666666667405
8.806999999999999,18.648090909090765,-1.5718181818184525,-1.028909090909073
8.827,21.858400000000056,-1.5372000000000439,-0.5712000000000017
8.847,24.23418181818177,-0.19563636363649095,0.3894545454544627
8.866999999999999,24.558090909090954,3.103999999999947,2.446272727272721
8.886999999999999,19.568363636364204,4.092363636363609,1.3360000000000989
8.907,10.034090909090772,4.320363636363639,0.2758181818181758
8.927,2.5046000000000994,4.2284000000000095,0.20059999999999134
8.947,-1.7896923076922795,3.0064615384615556,1.106692307692295
8.966999999999999,-3.967076923076805,1.6821538461538919,2.583999999999893
8.987,-6.508181818181863,1.9558181818182034,4.674000000000036
9.007,-9.458909090909012,4.068090909090832,6.993181818181756
9.027,-10.95363636363635,7.225727272727163,8.975545454545403
9.046999999999999,-10.54200000000009,10.871499999999882,10.792999999999893
9.067,-6.324230769230829,12.23115384615384,14.398461538461493
9.087,-0.34100000000008857,12.818909090909086,19.118818181818117
9.107,7.534499999999543,12.793500000000021,21.001000000000023
9.126999999999999,15.901777777777504,10.203555555555848,18.909222222222407
9.147,15.67449999999988,5.86749999999983,16.354499999999916
9.167,15.03566666666677,3.4576666666665754,14.767999999999864
9.187,18.162999999999947,1.3126000000000895,10.889800000000132
9.206999999999999,15.756200000000344,-2.538499999999765,6.533100000000317
9.227,12.502555555555546,-2.7372222222221834,4.216666666666643
9.247,14.95918181818177,-4.431545454545397,2.414909090909125
9.267,13.270300000000056,-8.757099999999962,0.9812000000000067
9.286999999999999,2.5681000000001024,-11.049399999999993,1.4266999999999872
9.306999999999999,-3.1880909090907448,-12.52109090909073,3.0019999999999722
9.327,-10.140099999999977,-14.813299999999973,4.811900000000009
9.347,-9.203363636363681,-16.777818181818155,5.302818181818184
9.366999999999999,-7.460700000000001,-18.693399999999986,4.5006000000000155
9.386999999999999,-9.340666666666424,-19.143777777777792,1.6282222222224858
9.407,-12.815333333333333,-18.415666666666667,-2.8203333333333336
9.427,-13.7975,-17.143100000000015,-6.225999999999978
9.447,-9.92320000000006,-15.856700000000007,-6.656800000000006
9.466999999999999,-1.177500000000947,-15.020800000000104,-4.644900000000278
9.487,8.43719999999987,-14.13580000000001,-0.9694000000000622
9.507,12.25939999999989,-12.917600000000068,2.550199999999869
9.527,18.776916666666416,-7.850916666666872,5.523166666666604
9.546999999999999,27.660599999999533,-1.9098000000001674,6.038400000000131
9.567,29.404,-1.441,3.4675
9.587,23.758142857143177,2.9237142857140404,2.895285714285629
9.607,19.14800000000013,5.604399999999941,3.3882000000000225
9.626999999999999,15.08100000000022,6.361999999999979,1.9065000000000816
9.647,7.566600000000065,7.355299999999991,0.18270000000000725
9.667,1.7262000000001496,7.410800000000026,1.1257999999999362
9.687,-0.8747499999999382,6.189083333333369,2.8321666666666214
9.706999999999999,-3.821199999999761,5.83119999999995,4.543399999999884
9.727,-7.371400000000065,6.871200000000019,5.878000000000015
9.747,-10.658600000000046,8.259200000000032,6.614200000000013
9.767,-12.179799999999995,9.474399999999982,7.137999999999984
9.786999999999999,-11.143333333333443,9.266222222222272,7.408222222222189
9.806999999999999,-9.804727272727353,9.062363636363594,9.02636363636346
9.827,-5.485142857142979,10.014285714285702,12.418857142857073
9.847,5.0613333333327075,9.700000000000045,16.30066666666648
9.866999999999999,15.542299999999926,7.301100000000028,18.315199999999994
9.886999999999999,18.6829999999998,5.273000000000161,17.384000000000103
9.907,21.359199999999984,3.0432000000000183,12.416800000000038
9.927,18.726666666666897,-1.1543333333336214,2.1173333333333932
9.947,13.526428571428735,-0.2749999999996051,7.7694285714285405
9.966999999999999,13.28433333333314,-2.0064444444444773,3.5395555555557174
9.987,12.499615384615408,-5.8404615384615095,0.6207692307692501
10.007,3.1870000000003857,-10.406999999999886,-1.0210000000000017
10.027,-6.074999999999717,-12.257399999999954,0.813199999999906
10.046999999999999,-11.376399999999771,-13.66119999999989,4.066199999999806
10.067,-10.352799999999942,-15.827800000000043,4.513400000000015
10.087,-7.0570000000000395,-18.452999999999964,4.490909090909093
10.107,-6.5249999999999435,-19.715750000000003,3.84025000000007
10.126999999999999,-8.419333333333133,-19.04033333333341,1.4240000000003175
10.147,-9.916000000000016,-18.349399999999985,-1.510600000000039
10.167,-9.46000000000005,-16.82900000000005,-5.433999999999926
10.187,-5.561,-15.059999999999999,-6.6325
10.206999999999999,2.5589999999995934,-13.416250000000069,-4.378000000000199
10.227,9.388200000000339,-12.567199999999962,-0.532599999999795
10.247,15.426200000000348,-10.652399999999828,2.390200000000097
10.267,28.14153846153809,-2.6797692307694696,3.485769230769253
10.286999999999999,34.24107692307693,0.3180000000000115,1.823538461538492
10.306999999999999,31.972083333333483,2.971749999999652,1.3329166666664956
10.327,28.306000000000054,6.572727272727254,3.5615454545454424
10.347,20.728,7.048666666666667,2.642
10.366999999999999,9.477600000000368,6.01020000000004,1.2324000000000364
10.386999999999999,1.633000000000536,5.02709090909099,0.7720909090909273
10.407,-4.003200000000086,3.507999999999966,0.722199999999999
10.427,-7.616800000000046,1.3577999999999621,0.3921999999999948
10.447,-9.469909090908995,-0.10309090909086817,0.6369999999999536
10.466999999999999,-11.321909090909068,0.0547272727272564,1.6830909090908843
10.487,-11.799181818181822,0.39154545454545725,2.195818181818186
10.507,-14.4115,4.286,5.912
10.527,-12.637600000000145,9.186599999999961,9.911599999999863
10.546999999999999,-7.000200000000229,9.648999999999987,15.353399999999775
10.567,-1.3895384615382373,9.310538461538433,20.87615384615404
10.587,6.844909090908906,7.899000000000036,23.532181818181808
10.607,12.829363636363569,6.701636363636374,22.929818181818188
10.626999999999999,16.96633333333319,6.818777777777776,21.99477777777785
10.647,21.628400000000184,5.3341999999998695,16.84639999999965
10.667,21.573600000000074,0.8374000000001858,9.812800000000236
10.687,20.213200000000022,-1.2971999999999735,5.485000000000115
10.706999999999999,19.895000000000024,-2.565599999999916,1.5802000000001504
10.727,16.65539999999973,-6.724600000000242,-1.276400000000085
10.747,8.512545454545654,-9.47145454545451,0.10963636363630425
10.767,1.4442000000002544,-11.003799999999917,2.6107999999999145
10.786999999999999,-2.793428571428402,-14.366857142856837,4.316857142857062
10.806999999999999,-3.6659090909090564,-17.60363636363625,4.657818181818185
10.827,-5.281777777777712,-19.846333333333263,3.4292222222222817
10.847,-7.350909090909054,-21.28536363636362,1.172454545454587
10.866999999999999,-10.138666666666559,-21.44133333333337,-2.2929999999998154
10.886999999999999,-11.859499999999915,-19.927250000000114,-5.796249999999837
10.907,-12.059143386897405,-19.64289864029666,-6.184626699629173
10.927,-12.068191594561187,-19.611674907292954,-6.208656365883808
10.947,-12.07723980222497,-19.580451174289244,-6.232686032138442
10.966999999999999,-12.08628800988875,-19.549227441285538,-6.256715698393077
10.987,-12.095336217552534,-19.518003708281828,-6.280745364647714
11.007,-12.104384425216317,-19.48677997527812,-6.304775030902349
11.027,-12.113432632880098,-19.45555624227441,-6.328804697156984
11.046999999999999,-12.122480840543881,-19.424332509270705,-6.352834363411619
11.067,-12.131529048207664,-19.393108776266995,-6.3768640296662555
11.087,-12.140577255871447,-19.36188504326329,-6.400893695920891
11.107,-12.149625463535228,-19.33066131025958,-6.424923362175525
11.126999999999999,-12.158673671199011,-19.299437577255873,-6.44895302843016
11.147,-12.167721878862794,-19.268213844252163,-6.472982694684797
11.167,-12.176770086526576,-19.236990111248456,-6.497012360939432
11.187,-12.185818294190359,-19.205766378244746,-6.521042027194066
11.206999999999999,-12.19486650185414,-19.17454264524104,-6.545071693448701
11.227,-12.203914709517923,-19.14331891223733,-6.569101359703338
11.247,-12.212962917181706,-19.112095179233624,-6.593131025957973
11.267,-12.222011124845489,-19.080871446229914,-6.617160692212607
11.286999999999999,-12.23105933250927,-19.049647713226207,-6.6411903584672425
11.306999999999999,-12.240107540173053,-19.0184239802225,-6.665220024721878
11.327,-12.249155747836836,-18.987200247218787,-6.6892496909765145
11.347,-12.258203955500617,-18.95597651421508,-6.7132793572311495
11.366999999999999,-12.2672521631644,-18.924752781211374,-6.737309023485784
11.386999999999999,-12.276300370828181,-18.893529048207668,-6.761338689740419
11.407,-12.285348578491964,-18.862305315203955,-6.785368355995056
11.427,-12.294396786155747,-18.831081582200248,-6.80939802224969
11.447,-12.30344499381953,-18.799857849196542,-6.833427688504325
11.466999999999999,-12.312493201483312,-18.768634116192832,-6.85745735475896
11.487,-12.321541409147095,-18.737410383189122,-6.881487021013597
11.507,-12.330589616810878,-18.706186650185415,-6.905516687268232
11.527,-12.339637824474659,-18.67496291718171,-6.929546353522866
11.546999999999999,-12.348686032138442,-18.643739184178,-6.953576019777501
11.567,-12.357734239802225,-18.61251545117429,-6.977605686032138
11.587,-12.366782447466006,-18.581291718170583,-7.001635352286773
11.607,-12.37583065512979,-18.550067985166876,-7.025665018541408
11.626999999999999,-12.384878862793572,-18.518844252163166,-7.049694684796043
11.647,-12.393927070457355,-18.487620519159456,-7.0737243510506795
11.667,-12.402975278121136,-18.45639678615575,-7.097754017305315
11.687,-12.41202348578492,-18.425173053152044,-7.121783683559949
11.706999999999999,-11.652900000000106,-17.443200000000132,-7.35099999999997
11.727,24.998454545454827,-6.654272727272512,11.911909090909143
11.747,37.50118181818204,-3.6252727272727405,8.701272727272611
11.767,37.763100000000236,0.3495999999996542,4.83600000000007
11.786999999999999,31.50136363636402,5.0863636363634726,3.2090000000000023
11.806999999999999,23.51680000000048,5.744999999999928,1.4127000000000742
11.827,13.026333333333703,5.678555555555557,0.4548888888889182
11.847,3.672200000000079,5.580100000000003,-0.2540999999999898
11.866999999999999,-3.109124999999678,4.850000000000066,-1.181624999999943
11.886999999999999,-5.556363636363473,3.864909090909137,-1.8841818181817644
11.907,-6.047200000000025,2.1324999999999705,-1.0414999999999581
11.927,-8.51319999999986,3.4712999999998915,0.7989999999998967
11.947,-11.322454545454434,6.525909090908935,2.2424545454545024
11.966999999999999,-14.236249999999638,12.49024999999894,3.2459999999997615
11.987,-11.15069999999985,15.74670000000003,6.872700000000121
12.007,-3.5167499999999996,15.77425,13.613
12.027,6.293199999999452,13.412300000000178,22.651499999999526
12.046999999999999,13.293799999999626,9.193300000000303,24.556800000000038
12.067,15.741,4.8685,21.470999999999997
12.087,15.282,2.165,20.486
12.107,18.01576923076921,1.1921538461538521,19.891692307692313
12.126999999999999,20.72019999999987,-3.447199999999529,17.199500000000313
12.147,21.724090909090922,-6.59227272727273,10.33099999999994
12.167,23.406799999999997,-8.201799999999974,2.65470000000006
12.187,16.73590909090925,-11.108545454545425,-0.6790909090908943
12.206999999999999,4.0606363636368,-12.149636363636326,0.7195454545453781
12.227,-3.809909090909132,-13.45127272727274,2.7630000000000163
12.247,-5.928333333333308,-14.902222222222173,4.3217777777777595
12.267,-4.69100000000001,-17.386399999999977,5.144899999999997
12.286999999999999,-6.475999999999974,-19.540899999999986,4.220900000000016
12.307,-9.73937500000007,-20.536875000000013,0.9511249999998992
12.327,-10.83510000000002,-20.505799999999997,-2.839000000000091
12.347,-10.954600000000001,-18.9934000000001,-5.431799999999885
12.366999999999999,-9.351888888888977,-17.19822222222228,-5.822111111111129
12.386999999999999,-4.277000000000223,-16.08209090909094,-3.786363636363733
12.407,1.4283999999999017,-14.499400000000042,-0.2880000000000731
12.427,11.76,-10.855,2.734
12.447,23.981999999999775,-6.176818181818281,4.626181818181792
12.466999999999999,33.66899999999969,0.2708181818178659,3.85327272727291
12.487,31.656800000000036,1.7852999999999843,1.832300000000006
12.507,27.35254545454556,5.332727272727198,2.9538181818181166
12.527,20.919800000000066,6.107799999999993,3.5759000000000003
12.546999999999999,11.12500000000108,6.787999999999976,2.484000000000215
12.567,4.827249999999999,6.011,1.292
12.587,0.39072727272732455,4.881636363636379,1.3756363636363502
12.607,-3.304,2.814,1.104
12.626999999999999,-6.031222222222116,1.6131111111111252,0.45355555555556726
12.647,-8.6085,3.417,-0.05500000000000002
12.667,-10.819900000000024,8.176500000000122,-0.7949000000000059
12.687,-10.228600000000053,10.03919999999998,0.9527999999998971
12.706999999999999,-6.753000000000308,10.115999999999968,6.04399999999954
12.727,-3.248,9.516,11.382
12.747,-0.185,6.85,16.088
12.767,3.952,5.138,21.581
12.786999999999999,10.214230769230731,4.364846153846161,24.783692307692295
12.807,15.0445,2.0135,22.912499999999998
12.827,18.267,1.2716666666666667,18.976333333333333
12.847,19.883,1.195,17.085
12.866999999999999,17.820000000000142,-2.7150000000000447,5.293000000000451
12.886999999999999,20.218999999999753,-2.594999999999857,1.9650000000002774
12.907,16.96590909090896,-6.829363636363736,0.07981818181815625
12.927,4.289,-10.066,1.653
12.947,-5.661,-12.424,5.065
12.966999999999999,-10.83399999999973,-14.525899999999911,6.389499999999958
12.987,-9.458363636363572,-16.58663636363642,7.467090909090926
13.007,-6.688777777777846,-19.492999999999896,6.6317777777778275
13.027,-5.409750000000043,-20.73812499999996,3.3897500000002747
13.046999999999999,-6.349888888888832,-20.744777777777777,-1.479777777777607
13.067,-8.81,-18.866,-7.259
13.087,-10.092909090909087,-16.311909090909136,-10.24354545454541
13.107,-6.724,-13.791,-10.66
13.126999999999999,0.46499999999930797,-13.181000000000015,-7.266000000000337
13.147,6.849,-14.067,-1.738
13.167,12.508499999999733,-13.097500000000142,6.667416666666453
13.187,21.78024999999979,-7.40175000000015,13.216249999999873
13.206999999999999,30.368999999999385,-0.8700000000003578,15.201000000000123
13.227,33.9530000000001,1.221636363636511,11.665727272727098
13.247,29.596909090908966,5.20845454545463,7.146727272727167
13.267,25.507946633571205,6.318454545454545,4.523394663357121
13.286999999999999,25.49583990071362,6.319363636363636,4.5161839900713625
13.307,25.483733167856034,6.320272727272727,4.508973316785603
13.327,25.47162643499845,6.321181818181818,4.501762643499845
13.347,25.459519702140863,6.3220909090909085,4.494551970214086
13.366999999999999,25.447412969283278,6.3229999999999995,4.487341296928328
13.386999999999999,25.43530623642569,6.3239090909090905,4.4801306236425695
13.407,25.423199503568103,6.3248181818181815,4.47291995035681
13.427,25.411092770710518,6.325727272727272,4.465709277071052
13.447,25.398986037852932,6.326636363636363,4.458498603785293
13.466999999999999,25.386879304995347,6.327545454545454,4.451287930499535
13.487,25.374772572137758,6.328454545454545,4.444077257213776
13.507,25.362665839280172,6.329363636363636,4.436866583928017
13.527,25.350559106422587,6.330272727272727,4.429655910642259
13.546999999999999,25.338452373565,6.331181818181817,4.4224452373565
13.567,25.326345640707416,6.332090909090908,4.415234564070741
13.587,25.314238907849827,6.332999999999999,4.408023890784983
13.607,25.30213217499224,6.33390909090909,4.400813217499224
13.626999999999999,25.290025442134656,6.334818181818181,4.393602544213466
13.647,25.27791870927707,6.335727272727272,4.386391870927707
13.667,25.265811976419485,6.336636363636363,4.379181197641948
13.687,25.2537052435619,6.337545454545454,4.37197052435619
13.706999999999999,25.241598510704314,6.338454545454545,4.364759851070431
13.727,25.229491777846725,6.339363636363636,4.357549177784673
13.747,25.21738504498914,6.340272727272727,4.3503385044989145
13.767,25.205278312131554,6.341181818181818,4.343127831213156
13.786999999999999,25.19317157927397,6.342090909090909,4.335917157927398
13.807,25.18106484641638,6.343,4.328706484641638
13.827,25.168958113558794,6.343909090909091,4.32149581135588
13.847,25.15685138070121,6.344818181818181,4.3142851380701215
13.866999999999999,25.144744647843623,6.345727272727272,4.307074464784363
13.886999999999999,25.132637914986038,6.346636363636363,4.299863791498605
13.907,25.120531182128452,6.347545454545454,4.292653118212845
13.927,25.108424449270863,6.348454545454545,4.285442444927087
13.947,25.096317716413278,6.349363636363636,4.2782317716413285
13.966999999999999,25.084210983555693,6.350272727272727,4.27102109835557
13.987,25.072104250698107,6.351181818181818,4.263810425069811
14.007,25.05999751784052,6.352090909090909,4.256599751784052
14.027,25.047890784982936,6.353,4.249389078498294
14.046999999999999,25.035784052125347,6.353909090909091,4.2421784052125355
14.067,25.02367731926776,6.354818181818182,4.234967731926776
14.087,25.011570586410176,6.355727272727273,4.227757058641018
14.107,24.99946385355259,6.356636363636364,4.220546385355259
14.126999999999999,24.987357120695005,6.357545454545454,4.213335712069501
14.147,24.975250387837416,6.358454545454545,4.206125038783742
14.167,24.96314365497983,6.359363636363636,4.198914365497983
14.187,24.951036922122245,6.360272727272727,4.191703692212225
14.206999999999999,24.93893018926466,6.361181818181818,4.184493018926466
14.227,24.926823456407075,6.362090909090909,4.177282345640707
14.247,24.914716723549486,6.3629999999999995,4.170071672354949
14.267,24.9026099906919,6.3639090909090905,4.16286099906919
14.286999999999999,24.890503257834315,6.3648181818181815,4.155650325783432
14.307,24.87839652497673,6.3657272727272725,4.1484396524976725
14.327,24.866289792119144,6.366636363636363,4.141228979211914
14.347,24.85418305926156,6.367545454545454,4.134018305926156
14.366999999999999,24.84207632640397,6.368454545454545,4.126807632640397
14.386999999999999,24.829969593546384,6.369363636363636,4.119596959354639
14.407,24.8178628606888,6.370272727272727,4.11238628606888
14.427,24.805756127831213,6.371181818181817,4.105175612783121
14.447,24.793649394973627,6.372090909090908,4.097964939497363
14.466999999999999,24.781542662116042,6.372999999999999,4.090754266211604
14.487,24.769435929258453,6.37390909090909,4.083543592925845
14.507,24.757329196400867,6.374818181818181,4.076332919640087
14.527,24.745222463543282,6.375727272727272,4.069122246354328
14.546999999999999,24.733115730685697,6.376636363636363,4.06191157306857
14.567,24.721008997828108,6.377545454545454,4.054700899782811
14.587,24.708902264970522,6.378454545454545,4.047490226497052
14.607,24.696795532112937,6.379363636363636,4.040279553211294
14.626999999999999,24.68468879925535,6.380272727272727,4.033068879925535
14.647,24.672582066397766,6.381181818181818,4.025858206639777
14.667,24.66047533354018,6.382090909090909,4.018647533354018
14.687,24.648368600682595,6.383,4.01143686006826
14.706999999999999,24.636261867825006,6.38390909090909,4.0042261867825015
14.727,24.62415513496742,6.384818181818181,3.9970155134967422
14.747,24.612048402109835,6.385727272727272,3.989804840210984
14.767,24.59994166925225,6.386636363636363,3.982594166925225
14.786999999999999,24.587834936394664,6.387545454545454,3.9753834936394665
14.807,24.575728203537075,6.388454545454545,3.9681728203537077
14.827,24.56362147067949,6.389363636363636,3.9609621470679492
14.847,24.551514737821904,6.390272727272727,3.953751473782191
14.866999999999999,24.53940800496432,6.391181818181818,3.9465408004964324
14.886999999999999,24.527301272106733,6.392090909090909,3.9393301272106735
14.907,24.515194539249144,6.393,3.9321194539249147
14.927,24.50308780639156,6.393909090909091,3.9249087806391563
14.947,24.490981073533973,6.394818181818182,3.917698107353398
14.966999999999999,24.478874340676388,6.395727272727273,3.9104874340676394
14.987,24.466767607818802,6.396636363636364,3.90327676078188
15.007,24.454660874961213,6.397545454545455,3.8960660874961217
15.027,24.442554142103628,6.398454545454545,3.8888554142103633
15.046999999999999,24.430447409246042,6.399363636363636,3.881644740924605
15.067,24.418340676388457,6.400272727272727,3.8744340676388456
15.087,24.40623394353087,6.401181818181818,3.867223394353087
15.107,24.394127210673286,6.402090909090909,3.8600127210673287
15.126999999999999,24.3820204778157,6.403,3.8528020477815703
15.147,24.36991374495811,6.4039090909090906,3.845591374495811
15.167,24.357807012100526,6.4048181818181815,3.8383807012100526
15.187,24.34570027924294,6.4057272727272725,3.831170027924294
15.206999999999999,24.333593546385355,6.4066363636363635,3.8239593546385358
15.227,24.321486813527766,6.407545454545454,3.816748681352777
15.247,24.30938008067018,6.408454545454545,3.809538008067018
15.267,24.297273347812595,6.409363636363636,3.8023273347812596
15.286999999999999,24.28516661495501,6.4102727272727265,3.795116661495501
15.307,24.273059882097424,6.411181818181818,3.7879059882097423
15.327,24.26095314923984,6.412090909090908,3.780695314923984
15.347,24.24884641638225,6.412999999999999,3.7734846416382255
15.366999999999999,24.236739683524664,6.41390909090909,3.7662739683524666
15.386999999999999,24.22463295066708,6.414818181818181,3.759063295066708
15.407,24.212526217809494,6.415727272727272,3.7518526217809494
15.427,24.200419484951908,6.416636363636363,3.744641948495191
15.447,24.188312752094323,6.417545454545454,3.7374312752094325
15.466999999999999,24.176206019236737,6.418454545454545,3.730220601923674
15.487,24.164099286379148,6.419363636363636,3.723009928637915
15.507,24.151992553521563,6.420272727272727,3.7157992553521564
15.527,24.139885820663977,6.421181818181818,3.708588582066398
15.546999999999999,24.127779087806392,6.422090909090909,3.7013779087806395
15.567,24.115672354948803,6.423,3.6941672354948802
15.587,24.103565622091217,6.423909090909091,3.686956562209122
15.607,24.091458889233632,6.424818181818181,3.6797458889233634
15.626999999999999,24.079352156376046,6.425727272727272,3.672535215637605
15.647,24.06724542351846,6.426636363636363,3.665324542351846
15.667,24.055138690660876,6.427545454545454,3.6581138690660877
15.687,24.043031957803287,6.428454545454545,3.6509031957803293
15.706999999999999,24.0309252249457,6.429363636363636,3.6436925224945704
15.727,24.018818492088116,6.430272727272727,3.6364818492088116
15.747,24.00671175923053,6.431181818181818,3.629271175923053
15.767,23.994605026372945,6.432090909090909,3.6220605026372947
15.786999999999999,23.982498293515356,6.433,3.6148498293515363
15.807,23.97039156065777,6.433909090909091,3.607639156065777
15.827,23.958284827800185,6.434818181818182,3.6004284827800186
15.847,23.9461780949426,6.435727272727273,3.59321780949426
15.866999999999999,23.934071362085014,6.436636363636364,3.5860071362085018
15.887,23.921964629227425,6.437545454545455,3.5787964629227424
15.907,23.90985789636984,6.438454545454545,3.571585789636984
15.927,23.897751163512254,6.439363636363636,3.5643751163512256
15.947,23.88564443065467,6.440272727272727,3.557164443065467
15.966999999999999,23.873537697797083,6.441181818181818,3.549953769779709
15.987,23.861430964939494,6.442090909090909,3.5427430964939495
16.007,23.84932423208191,6.443,3.5355324232081906
16.027,23.837217499224323,6.443909090909091,3.528321749922432
16.047,23.825110766366738,6.444818181818182,3.5211110766366733
16.067,23.813004033509152,6.4457272727272725,3.513900403350915
16.087,23.800897300651567,6.4466363636363635,3.5066897300651565
16.107000000000003,23.788790567793978,6.4475454545454545,3.499479056779397
16.127000000000002,23.776683834936392,6.448454545454545,3.4922683834936388
16.147000000000002,23.764577102078807,6.449363636363636,3.48505771020788
16.167,23.75247036922122,6.450272727272727,3.4778470369221215
16.187,23.740363636363632,6.451181818181818,3.470636363636363
16.207,23.728256903506047,6.452090909090908,3.4634256903506047
16.227,23.71615017064846,6.452999999999999,3.4562150170648462
16.247,23.704043437790876,6.45390909090909,3.449004343779088
16.267000000000003,23.691936704933287,6.454818181818181,3.441793670493328
16.287000000000003,23.6798299720757,6.455727272727272,3.4345829972075697
16.307000000000002,23.667723239218116,6.456636363636363,3.4273723239218112
16.327,23.65561650636053,6.457545454545454,3.420161650636053
16.347,23.643509773502945,6.458454545454545,3.4129509773502944
16.367,23.63140304064536,6.459363636363636,3.405740304064536
16.387,23.619296307787774,6.460272727272727,3.3985296307787776
16.407,23.60718957493019,6.461181818181818,3.3913189574930187
16.427,23.595082842072603,6.462090909090909,3.3841082842072603
16.447000000000003,23.582976109215014,6.463,3.3768976109215005
16.467000000000002,23.57086937635743,6.463909090909091,3.369686937635742
16.487000000000002,23.558762643499843,6.464818181818182,3.3624762643499837
16.507,23.546655910642258,6.465727272727272,3.3552655910642253
16.527,23.53454917778467,6.466636363636363,3.348054917778467
16.547,23.522442444927083,6.467545454545454,3.3408442444927084
16.567,23.510335712069498,6.468454545454545,3.33363357120695
16.587,23.498228979211913,6.469363636363636,3.3264228979211916
16.607000000000003,23.486122246354324,6.470272727272727,3.3192122246354314
16.627000000000002,23.474015513496738,6.471181818181818,3.312001551349673
16.647000000000002,23.461908780639153,6.472090909090909,3.3047908780639146
16.667,23.449802047781567,6.473,3.297580204778156
16.687,23.43769531492398,6.473909090909091,3.2903695314923977
16.707,23.425588582066396,6.474818181818182,3.2831588582066393
16.727,23.41348184920881,6.475727272727273,3.275948184920881
16.747,23.401375116351225,6.476636363636364,3.2687375116351225
16.767000000000003,23.389268383493636,6.477545454545455,3.2615268383493627
16.787000000000003,23.37716165063605,6.478454545454546,3.2543161650636043
16.807000000000002,23.365054917778465,6.479363636363636,3.247105491777846
16.827,23.35294818492088,6.480272727272727,3.239894818492087
16.847,23.340841452063295,6.481181818181818,3.2326841452063286
16.867,23.328734719205706,6.482090909090909,3.22547347192057
16.887,23.31662798634812,6.483,3.218262798634812
16.907,23.304521253490535,6.483909090909091,3.2110521253490534
16.927,23.29241452063295,6.484818181818182,3.203841452063295
16.947000000000003,23.28030778777536,6.485727272727273,3.1966307787775357
16.967000000000002,23.268201054917775,6.4866363636363635,3.189420105491777
16.987000000000002,23.25609432206019,6.4875454545454545,3.1822094322060184
17.007,23.243987589202604,6.4884545454545455,3.17499875892026
17.027,23.23188085634502,6.4893636363636364,3.1677880856345015
17.047,23.219774123487433,6.490272727272727,3.160577412348743
17.067,23.207667390629847,6.4911818181818175,3.1533667390629843
17.087,23.195560657772262,6.4920909090909085,3.146156065777226
17.107000000000003,23.183453924914673,6.492999999999999,3.1389453924914665
17.127000000000002,23.171347192057087,6.49390909090909,3.131734719205708
17.147000000000002,23.159240459199502,6.494818181818181,3.1245240459199497
17.167,23.147133726341913,6.495727272727272,3.1173133726341913
17.187,23.135026993484328,6.496636363636363,3.110102699348433
17.207,23.122920260626742,6.497545454545454,3.102892026062674
17.227,23.110813527769157,6.498454545454545,3.0956813527769156
17.247,23.09870679491157,6.499363636363636,3.088470679491157
17.267000000000003,23.086600062053982,6.500272727272727,3.0812600062053974
17.287000000000003,23.074493329196397,6.501181818181818,3.074049332919639
17.307000000000002,23.06238659633881,6.502090909090909,3.0668386596338806
17.327,23.050279863481226,6.503,3.059627986348122
17.347,23.03817313062364,6.503909090909091,3.0524173130623637
17.367,23.026066397766055,6.504818181818181,3.0452066397766053
17.387,23.01395966490847,6.505727272727272,3.037995966490847
17.407,23.001852932050884,6.506636363636363,3.0307852932050885
17.427000000000003,22.989746199193295,6.507545454545454,3.0235746199193283
17.447000000000003,22.97763946633571,6.508454545454545,3.01636394663357
17.467000000000002,22.965532733478124,6.509363636363636,3.0091532733478115
17.487000000000002,22.95342600062054,6.510272727272727,3.001942600062053
17.507,22.94131926776295,6.511181818181818,2.9947319267762946
17.527,22.929212534905364,6.512090909090909,2.987521253490536
17.547,22.91710580204778,6.513,2.980310580204778
17.567,22.904999069190193,6.513909090909091,2.9730999069190194
17.587,22.892892336332608,6.514818181818182,2.965889233633261
17.607000000000003,22.88078560347502,6.515727272727273,2.958678560347501
17.627000000000002,22.868678870617433,6.516636363636364,2.9514678870617423
17.647000000000002,22.856572137759848,6.517545454545455,2.944257213775984
17.667,22.844465404902262,6.518454545454545,2.9370465404902255
17.687,22.832358672044677,6.519363636363636,2.929835867204467
17.707,22.82025193918709,6.520272727272727,2.9226251939187087
17.727,22.808145206329506,6.521181818181818,2.9154145206329503
17.747,22.796038473471917,6.522090909090909,2.908203847347192
17.767000000000003,22.78393174061433,6.523,2.900993174061432
17.787000000000003,22.771825007756746,6.523909090909091,2.8937825007756737
17.807000000000002,22.759718274899157,6.524818181818182,2.8865718274899153
17.827,22.747611542041575,6.525727272727273,2.879361154204157
17.847,22.735504809183986,6.526636363636364,2.8721504809183984
17.867,22.7233980763264,6.5275454545454545,2.86493980763264
17.887,22.711291343468815,6.5284545454545455,2.857729134346881
17.907,22.69918461061123,6.5293636363636365,2.8505184610611227
17.927000000000003,22.68707787775364,6.5302727272727275,2.8433077877753634
17.947000000000003,22.674971144896055,6.531181818181818,2.836097114489605
17.967000000000002,22.66286441203847,6.5320909090909085,2.8288864412038466
17.987000000000002,22.650757679180884,6.5329999999999995,2.821675767918088
18.007,22.6386509463233,6.5339090909090904,2.8144650946323293
18.027,22.626544213465714,6.534818181818181,2.807254421346571
18.047,22.614437480608128,6.535727272727272,2.8000437480608125
18.067,22.602330747750543,6.536636363636363,2.792833074775054
18.087,22.590224014892954,6.537545454545454,2.7856224014892956
18.107000000000003,22.578117282035368,6.538454545454545,2.778411728203536
18.127000000000002,22.566010549177783,6.539363636363636,2.7712010549177775
18.147000000000002,22.553903816320194,6.540272727272727,2.763990381632019
18.167,22.54179708346261,6.541181818181818,2.7567797083462606
18.187,22.529690350605023,6.542090909090909,2.749569035060502
18.207,22.517583617747437,6.543,2.742358361774744
18.227,22.505476884889852,6.543909090909091,2.7351476884889854
18.247,22.493370152032266,6.544818181818181,2.727937015203227
18.267000000000003,22.481263419174677,6.545727272727273,2.7207263419174668
18.287000000000003,22.469156686317092,6.546636363636363,2.7135156686317083
18.307000000000002,22.457049953459506,6.547545454545454,2.70630499534595
18.327,22.44494322060192,6.548454545454545,2.6990943220601915
18.347,22.432836487744336,6.549363636363636,2.691883648774433
18.367,22.42072975488675,6.550272727272727,2.6846729754886747
18.387,22.40862302202916,6.551181818181818,2.6774623022029163
18.407,22.39651628917158,6.552090909090909,2.670251628917158
18.427000000000003,22.38440955631399,6.553,2.6630409556313976
18.447000000000003,22.372302823456405,6.553909090909091,2.6558302823456392
18.467000000000002,22.36019609059882,6.554818181818182,2.648619609059881
18.487000000000002,22.34808935774123,6.555727272727273,2.6414089357741224
18.507,22.335982624883645,6.556636363636364,2.634198262488364
18.527,22.32387589202606,6.557545454545455,2.6269875892026056
18.547,22.311769159168474,6.558454545454545,2.619776915916847
18.567,22.29966242631089,6.559363636363636,2.6125662426310887
18.587,22.287555693453303,6.560272727272727,2.6053555693453303
18.607000000000003,22.275448960595714,6.561181818181818,2.5981448960595706
18.627000000000002,22.26334222773813,6.562090909090909,2.590934222773812
18.647000000000002,22.251235494880543,6.563,2.5837235494880537
18.667,22.239128762022958,6.563909090909091,2.5765128762022953
18.687,22.227022029165372,6.564818181818182,2.5693022029165364
18.707,22.214915296307787,6.565727272727273,2.562091529630778
18.727,22.202808563450198,6.566636363636364,2.5548808563450196
18.747,22.190701830592612,6.567545454545455,2.547670183059261
18.767000000000003,22.178595097735027,6.5684545454545455,2.540459509773502
18.787000000000003,22.166488364877438,6.5693636363636365,2.5332488364877435
18.807000000000002,22.154381632019852,6.5702727272727275,2.5260381632019846
18.827,22.142274899162267,6.5711818181818185,2.518827489916226
18.847,22.13016816630468,6.5720909090909085,2.5116168166304678
18.867,22.118061433447096,6.5729999999999995,2.5044061433447093
18.887,22.10595470058951,6.5739090909090905,2.497195470058951
18.907,22.093847967731925,6.5748181818181815,2.4899847967731925
18.927000000000003,22.081741234874336,6.575727272727272,2.4827741234874328
18.947000000000003,22.06963450201675,6.576636363636363,2.4755634502016743
18.967000000000002,22.057527769159165,6.577545454545454,2.468352776915916
18.987000000000002,22.04542103630158,6.578454545454545,2.4611421036301575
19.007,22.033314303443994,6.579363636363636,2.4539314303443986
19.027,22.02120757058641,6.580272727272727,2.4467207570586402
19.047,22.009100837728823,6.581181818181818,2.439510083772882
19.067,21.996994104871234,6.582090909090909,2.4322994104871234
19.087,21.98488737201365,6.583,2.425088737201365
19.107000000000003,21.972780639156063,6.583909090909091,2.4178780639156052
19.127000000000002,21.960673906298474,6.584818181818182,2.410667390629847
19.147000000000002,21.94856717344089,6.585727272727272,2.4034567173440884
19.167,21.936460440583303,6.586636363636363,2.39624604405833
19.187,21.924353707725718,6.587545454545454,2.3890353707725716
19.207,21.912246974868133,6.588454545454545,2.381824697486813
19.227,21.900140242010547,6.589363636363636,2.3746140242010547
19.247,21.88803350915296,6.590272727272727,2.3674033509152963
19.267000000000003,21.875926776295373,6.591181818181818,2.3601926776295366
19.287000000000003,21.863820043437787,6.592090909090909,2.3529820043437777
19.307000000000002,21.8517133105802,6.593,2.3457713310580193
19.327,21.839606577722616,6.593909090909091,2.338560657772261
19.347,21.82749984486503,6.594818181818182,2.3313499844865024
19.367,21.815393112007442,6.595727272727273,2.324139311200744
19.387,21.803286379149856,6.596636363636364,2.3169286379149856
19.407,21.79117964629227,6.597545454545454,2.309717964629227
19.427000000000003,21.779072913434685,6.598454545454546,2.3025072913434674
19.447000000000003,21.7669661805771,6.599363636363636,2.295296618057709
19.467000000000002,21.75485944771951,6.600272727272727,2.2880859447719506
19.487000000000002,21.742752714861926,6.601181818181818,2.280875271486192
19.507,21.73064598200434,6.602090909090909,2.2736645982004338
19.527,21.718539249146755,6.603,2.2664539249146753
19.547,21.70643251628917,6.603909090909091,2.2592432516289165
19.567,21.694325783431584,6.604818181818182,2.252032578343158
19.587,21.682219050574,6.605727272727273,2.2448219050573996
19.607000000000003,21.67011231771641,6.606636363636364,2.23761123177164
19.627000000000002,21.658005584858824,6.607545454545455,2.2304005584858815
19.647000000000002,21.64589885200124,6.608454545454546,2.223189885200123
19.667,21.633792119143653,6.6093636363636366,2.2159792119143646
19.687,21.621685386286067,6.6102727272727275,2.2087685386286062
19.707,15.647499999996219,6.244499999999418,-0.45300000000119733
19.727,-8.163,-16.616999999999997,-2.9995000000000003
19.747,-2.8215000000000003,-15.072,-3.277
19.767000000000003,4.432000000000775,-13.820333333333163,-1.2319999999995215
19.787000000000003,9.885000000000668,-13.471400000000033,3.4312000000007252
19.807000000000002,18.70136363636506,-10.556454545453903,7.653363636363844
19.827,32.95954545454583,-3.585636363636209,6.123636363636274
19.847,41.47500000000023,-1.4757999999999258,3.097199999999773
19.867,38.951499999999996,1.957,1.718
19.887,30.295444444443778,5.411666666666773,1.9762222222222026
19.907,20.93099999999966,6.685000000000022,1.3385999999999583
19.927000000000003,11.898555555553395,6.356222222221974,-0.42155555555591506
19.947000000000003,4.62049999999946,5.447999999999887,-1.5970000000000852
19.967000000000002,-0.35588888888937165,3.7413333333330154,-1.7296666666666012
19.987000000000002,-3.1242000000001395,1.380399999999892,-0.8497999999998924
20.007,-4.526800000000071,-0.16380000000007006,1.3636000000002308
20.027,-5.674500000000119,-0.21099999999991792,4.1850000000002465
20.047,-7.265,2.0155,7.531000000000001
20.067,-8.087,5.3235,11.7725
20.087,-6.4254999999999995,6.1785,15.6335
20.107000000000003,-4.869818181817987,5.588999999999799,18.436090909091355
20.127000000000002,-2.687499999999579,5.240000000000078,21.609500000000423
20.147000000000002,6.363500000001119,5.773499999999933,25.4490000000002
20.167,18.30750000000088,3.8584999999997627,25.356999999999843
20.187,24.595000000000287,1.6219999999998653,22.121499999999617
20.207,26.774125000000204,1.0864374999999769,18.506937499999626
20.227,25.517199999999843,-1.9242000000001611,8.520599999999714
20.247,22.89166666666674,-2.823999999999735,0.6773333333328979
20.267000000000003,24.670583333333433,-2.1195833333338188,-4.241666666666985
20.287000000000003,21.16781818181755,-7.774363636364063,-4.326181818181553
20.307000000000002,9.938599999998617,-11.80620000000028,1.7372000000007735
20.327,-0.8168000000006987,-14.536400000000253,8.210000000000287
20.347,-6.0489999999999995,-16.1715,12.0145
20.367,-4.851333333333334,-17.774333333333335,14.485
20.387,-4.958199999999989,-19.91540000000007,13.103599999999894
20.407,-5.615600000000084,-21.2914,9.033799999999818
20.427000000000003,-8.22780000000039,-20.188199999999604,4.17979999999904
20.447000000000003,-9.34209090909094,-17.513636363635936,0.22509090909058593
20.467000000000002,-7.766666666666367,-14.419333333333165,-2.0612222222223755
20.487000000000002,-1.3581818181811893,-12.420454545454406,-3.5952727272727545
20.507,7.539500000000636,-10.66249999999988,-3.067499999999871
20.527,13.4325,-10.145,0.49450000000000005
20.547,20.965555555556172,-8.880555555555334,5.728444444444696
20.567,27.91,-3.673,6.657500000000001
20.587,30.839500000000132,-2.027625000000016,3.3884999999998118
20.607000000000003,35.387600000000305,-0.5407999999995928,-1.3910000000002203
20.627000000000002,33.50727272727204,1.8207272727274342,-1.0214545454543915
20.647000000000002,23.721545454543868,2.9376363636364355,0.8170909090912255
20.667,12.632999999999162,3.2365000000000124,3.1570000000001732
20.687,4.392909090908894,3.057181818181805,3.743272727272706
20.707,-0.8988461538463358,2.2150769230768605,2.7700769230768705
20.727,-4.148666666666666,0.5213333333333333,1.5696666666666665
20.747,-6.839333333333246,-0.23491666666669087,1.4413333333332343
20.767000000000003,-7.660500000000054,0.07142857142860012,3.569357142857414
20.787000000000003,-8.935600000000324,0.7678000000002438,7.9492000000003955
20.807000000000002,-11.280000000000257,3.1485000000004613,9.86800000000024
20.827,-10.14149999999951,5.954500000000197,11.805000000000241
20.847,-2.8649999999993554,6.50499999999999,15.593400000000393
20.867,4.309636363636825,6.552272727272754,20.99054545454589
20.887,11.830200000000533,5.90239999999989,24.569799999999983
20.907,18.7485,4.7005,24.144
20.927000000000003,25.79042857143051,3.393285714285075,24.588285714285462
20.947000000000003,29.590129032258233,1.9872258064515147,23.823999999999902
20.967000000000002,30.411634408602303,1.511526881720342,23.357333333333248
20.987000000000002,31.23313978494637,1.0358279569891693,22.89066666666659
21.007,32.05464516129044,0.5601290322579966,22.423999999999936
21.027,32.54559999999982,-1.3028000000010196,18.93559999999782
21.047,8.721333333333334,-10.985000000000001,-1.4653333333333332
21.067,-3.0075999999997327,-12.220799999999928,3.9083999999998755
21.087,-9.191400000000023,-15.48479999999989,7.255199999999837
21.107000000000003,-8.020599999999849,-17.78640000000035,10.177600000000252
21.127000000000002,-8.440600000000265,-20.468600000000187,10.876199999999846
21.147000000000002,-9.980769230769372,-20.88638461538464,8.353615384615043
21.167,-12.319727272727459,-20.715454545454442,4.1318181818175574
21.187,-11.378999999999895,-19.76079999999996,-0.5054000000001475
21.207,-4.746,-17.915,-3.6345
21.227,4.9375,-15.846,-2.8115
21.247,11.915399999999893,-14.98939999999999,0.9201999999997944
21.267000000000003,14.665000000000987,-13.70463636363566,7.155545454546697
21.287000000000003,24.36154545454721,-7.6922727272717,9.48009090909063
21.307000000000002,35.050333333333676,-2.093666666666576,6.293999999999775
21.327,37.21079999999966,-1.3233999999998958,2.335999999999805
21.347,31.657818181817827,1.7300000000002336,2.2018181818182816
21.367,26.036399999999787,4.362600000000034,3.7884000000000246
21.387,19.803999999999732,4.4181999999999695,3.3449999999999807
21.407,11.887,3.636,2.435
21.427000000000003,5.2715999999987355,3.2225999999999013,1.616999999999857
21.447000000000003,0.6579090909088725,2.2132727272725976,0.9279090909090323
21.467000000000002,-2.0269090909094025,0.19854545454521888,0.5584545454545747
21.487000000000002,-4.001000000001298,-0.8090000000000018,1.0390000000007895
21.507,-7.630200000000164,-0.16159999999991137,4.148000000000215
21.527,-9.458400000000113,1.919800000000206,7.145200000000211
21.547,-9.858545454545352,4.665818181818364,9.568090909091088
21.567,-6.134818181818347,6.261545454545431,12.454454545454459
21.587,-0.7220000000001292,6.368909090909115,16.268999999999853
21.607000000000003,5.979800000001129,5.831599999999955,21.48940000000052
21.627000000000002,15.415500000000698,4.932999999999877,22.14549999999991
21.647000000000002,21.46643750000079,3.186374999999698,20.989624999999805
21.667,26.350000000000158,0.15544444444421684,17.030222222221614
21.687,24.73245454545427,-2.719909090909356,11.996545454545144
21.707,18.3175,-6.765000000000001,8.085
21.727,15.782454545454476,-5.988090909090943,3.7143636363638266
21.747,17.5975,-6.6175,-1.35
21.767000000000003,11.421666666665002,-8.087000000000197,-0.07866666666601096
21.787000000000003,4.46715384615339,-9.9687692307695,3.4270769230772897
21.807000000000002,-1.3730000000007796,-12.624500000000236,6.976000000000041
21.827,-5.46354545454526,-14.766272727272893,8.743818181818558
21.847,-4.152499999999937,-17.09050000000023,10.026999999999994
21.867,-4.563125000000113,-18.954750000000054,8.897124999999889
21.887,-6.8635,-19.0345,6.4384999999999994
21.907,-7.6785,-18.9795,3.4545000000000003
21.927000000000003,-6.674499999999577,-18.405499999999815,0.39799999999951186
21.947000000000003,-1.8699999999994728,-16.52145454545435,-1.9718181818183127
21.967000000000002,4.704000000000672,-14.08749999999975,-1.8719999999998214
21.987000000000002,10.64900000000059,-12.74877777777785,0.26855555555585187
22.007,17.458222222223366,-11.794888888888432,2.9806666666670463
22.027,26.42050000000087,-6.328499999999446,3.68599999999992
22.047,34.52309090909074,-3.8618181818181485,2.069181818181876
22.067,36.0864444444446,-3.658888888889092,1.894999999999858
22.087,32.29109090909076,0.18727272727283362,5.426090909091016
22.107000000000003,26.430999999998722,2.505000000000194,6.675999999999855
22.127000000000002,18.600499999999297,2.845999999999988,5.287749999999866
22.147000000000002,6.85549999999714,2.843000000000071,2.829499999999288
22.167,0.7089999999993747,4.012200000000168,0.925199999999341
22.187,-4.361666666666667,2.808,-5.099333333333334
22.207,-5.839944444444523,2.079388888888864,-5.414166666666641
22.227,-6.2000000000000295,-0.7817272727272568,0.5735454545453729
22.247,-5.212666666666666,-1.1583333333333332,6.484
22.267000000000003,-5.39861538461536,0.4443846153848485,12.9113076923084
22.287000000000003,-4.617999999999896,2.751500000000163,20.548500000000654
22.307000000000002,-1.5003999999992466,3.678199999999986,25.793200000000308
22.327,7.017100000001363,2.3060999999997223,23.77499999999931
22.347,14.815818181818699,-0.34954545454575736,18.05445454545401
22.367,16.707461538461548,-2.587461538461551,14.035153846153799
22.387,19.79,-2.3615,12.4165
22.407,23.657199999999907,-3.2315999999998573,9.334800000000248
22.427000000000003,21.539416666666046,-6.3205000000003535,8.203083333333508
22.447000000000003,19.641500000000296,-6.440124999999884,7.738374999999452
22.467000000000002,21.394333333333382,-7.181333333333458,2.5379999999993084
22.487000000000002,17.16349999999928,-7.6659999999999915,-0.6860000000001301
22.507,8.142333333333333,-7.6883333333333335,0.31766666666666665
22.527,2.7044444444438547,-9.718888888889092,3.078222222222259
22.547,-2.9857000000000444,-11.637800000000055,6.7534000000000445
22.567,-3.901833333333314,-14.239000000000104,8.942583333333449
22.587,-3.715666666666685,-16.183666666666767,10.44991666666671
22.607000000000003,-5.25420000000034,-17.75480000000012,10.360199999999871
22.627000000000002,-8.154000000000535,-17.874333333333304,8.125333333332701
22.647000000000002,-9.357800000000042,-17.608599999999996,3.6827999999996752
22.667,-8.079499999999943,-16.933099999999982,0.009099999999941266
22.687,-5.000746757457846,-16.337904669260702,-1.8461517509727627
22.707,-4.9971660644802665,-16.337632295719846,-1.846585325180656
22.727,-4.993585371502687,-16.33735992217899,-1.8470188993885492
22.747,-4.990004678525106,-16.337087548638134,-1.8474524735964426
22.767000000000003,-4.986423985547526,-16.33681517509728,-1.847886047804336
22.787000000000003,-4.982843292569946,-16.336542801556423,-1.848319622012229
22.807000000000002,-4.979262599592365,-16.336270428015567,-1.8487531962201225
22.827,-4.975681906614786,-16.335998054474707,-1.8491867704280156
22.847,-4.972101213637205,-16.33572568093385,-1.849620344635909
22.867,-4.9685205206596255,-16.335453307392996,-1.8500539188438023
22.887,-4.964939827682045,-16.33518093385214,-1.8504874930516955
22.907,-4.961359134704465,-16.334908560311284,-1.8509210672595888
22.927000000000003,-4.957778441726885,-16.334636186770428,-1.8513546414674822
22.947000000000003,-4.954197748749304,-16.334363813229572,-1.8517882156753753
22.967000000000002,-4.950617055771724,-16.334091439688716,-1.8522217898832687
22.987000000000002,-4.947036362794145,-16.33381906614786,-1.8526553640911618
23.007,-4.943455669816564,-16.333546692607005,-1.8530889382990552
23.027,-4.9398749768389845,-16.33327431906615,-1.8535225125069483
23.047,-4.936294283861404,-16.333001945525293,-1.8539560867148417
23.067,-4.932713590883824,-16.332729571984437,-1.854389660922735
23.087,-4.929132897906244,-16.33245719844358,-1.8548232351306282
23.107000000000003,-4.925552204928663,-16.332184824902725,-1.8552568093385216
23.127000000000002,-4.921971511951083,-16.33191245136187,-1.855690383546415
23.147000000000002,-4.918390818973503,-16.331640077821014,-1.856123957754308
23.167,-4.914810125995923,-16.331367704280158,-1.8565575319622014
23.187,-4.9112294330183435,-16.331095330739302,-1.8569911061700946
23.207,-4.907648740040763,-16.330822957198446,-1.857424680377988
23.227,-4.904068047063183,-16.330550583657587,-1.857858254585881
23.247,-4.900487354085603,-16.33027821011673,-1.8582918287937744
23.267000000000003,-4.896906661108022,-16.330005836575875,-1.8587254030016678
23.287000000000003,-4.893325968130442,-16.32973346303502,-1.859158977209561
23.307000000000002,-4.889745275152862,-16.329461089494163,-1.8595925514174543
23.327,-4.886164582175282,-16.329188715953308,-1.8600261256253476
23.347,-4.882583889197702,-16.32891634241245,-1.8604596998332408
23.367,-4.879003196220122,-16.328643968871596,-1.8608932740411341
23.387,-4.875422503242542,-16.32837159533074,-1.8613268482490273
23.407,-4.871841810264962,-16.328099221789884,-1.8617604224569206
23.427000000000003,-4.868261117287381,-16.32782684824903,-1.862193996664814
23.447000000000003,-4.864680424309801,-16.327554474708172,-1.8626275708727071
23.467000000000002,-4.861099731332221,-16.327282101167317,-1.8630611450806005
23.487000000000002,-4.857519038354641,-16.32700972762646,-1.8634947192884936
23.507,-4.853938345377061,-16.326737354085605,-1.863928293496387
23.527,-4.850357652399481,-16.32646498054475,-1.8643618677042804
23.547,-4.8467769594219,-16.326192607003893,-1.8647954419121735
23.567,-4.843196266444321,-16.325920233463037,-1.8652290161200669
23.587,-4.839615573466741,-16.32564785992218,-1.86566259032796
23.607000000000003,-4.8360348804891595,-16.325375486381326,-1.8660961645358534
23.627000000000002,-4.83245418751158,-16.325103112840466,-1.8665297387437467
23.647000000000002,-4.828873494534,-16.32483073929961,-1.8669633129516399
23.667,-4.82529280155642,-16.324558365758755,-1.8673968871595332
23.687,-4.82171210857884,-16.3242859922179,-1.8678304613674264
23.707,-4.818131415601259,-16.324013618677043,-1.8682640355753197
23.727,-4.81455072262368,-16.323741245136187,-1.868697609783213
23.747,-4.810970029646099,-16.32346887159533,-1.8691311839911062
23.767000000000003,-4.8073893366685185,-16.323196498054475,-1.8695647581989996
23.787000000000003,-4.803808643690939,-16.32292412451362,-1.869998332406893
23.807000000000002,-4.800227950713358,-16.322651750972764,-1.870431906614786
23.827,-4.796647257735779,-16.322379377431908,-1.8708654808226794
23.847,-4.793066564758199,-16.322107003891052,-1.8712990550305726
23.867,-4.789485871780618,-16.321834630350196,-1.871732629238466
23.887,-4.785905178803039,-16.32156225680934,-1.872166203446359
23.907,-4.782324485825458,-16.321289883268484,-1.8725997776542525
23.927000000000003,-4.7787437928478775,-16.32101750972763,-1.8730333518621458
23.947000000000003,-4.775163099870298,-16.320745136186773,-1.873466926070039
23.967000000000002,-4.771582406892717,-16.320472762645917,-1.8739005002779323
23.987000000000002,-4.768001713915138,-16.32020038910506,-1.8743340744858257
24.007,-4.764421020937557,-16.3199280155642,-1.8747676486937188
24.027,-4.760840327959977,-16.319655642023346,-1.8752012229016122
24.047,-4.757259634982398,-16.31938326848249,-1.8756347971095053
24.067,-4.753678942004817,-16.319110894941634,-1.8760683713173987
24.087000000000003,-4.7500982490272365,-16.318838521400778,-1.876501945525292
24.107000000000003,-4.746517556049657,-16.318566147859922,-1.8769355197331852
24.127000000000002,-4.742936863072076,-16.318293774319066,-1.8773690939410785
24.147000000000002,-4.739356170094497,-16.31802140077821,-1.8778026681489717
24.167,-4.735775477116916,-16.317749027237355,-1.878236242356865
24.187,-4.732194784139336,-16.3174766536965,-1.8786698165647584
24.207,-4.728614091161756,-16.317204280155643,-1.8791033907726515
24.227,-4.725033398184176,-16.316931906614787,-1.879536964980545
24.247,-4.721452705206596,-16.31665953307393,-1.879970539188438
24.267000000000003,-4.717872012229015,-16.316387159533075,-1.8804041133963314
24.287000000000003,-4.714291319251435,-16.31611478599222,-1.8808376876042248
24.307000000000002,-4.710710626273856,-16.315842412451364,-1.881271261812118
24.327,-4.707129933296275,-16.315570038910508,-1.8817048360200113
24.347,-4.703549240318695,-16.315297665369652,-1.8821384102279044
24.367,-4.699968547341115,-16.315025291828796,-1.8825719844357978
24.387,-4.696387854363535,-16.31475291828794,-1.8830055586436911
24.407,-4.6928071613859546,-16.31448054474708,-1.8834391328515843
24.427000000000003,-4.689226468408374,-16.314208171206225,-1.8838727070594776
24.447000000000003,-4.685645775430794,-16.31393579766537,-1.884306281267371
24.467000000000002,-4.682065082453214,-16.313663424124513,-1.8847398554752641
24.487000000000002,-4.678484389475634,-16.313391050583657,-1.8851734296831575
24.507,-4.674903696498054,-16.3131186770428,-1.8856070038910506
24.527,-4.671323003520474,-16.312846303501946,-1.886040578098944
24.547,-4.667742310542894,-16.31257392996109,-1.8864741523068371
24.567,-4.6641616175653136,-16.312301556420234,-1.8869077265147305
24.587000000000003,-4.660580924587733,-16.312029182879378,-1.8873413007226238
24.607000000000003,-4.657000231610153,-16.311756809338522,-1.8877748749305172
24.627000000000002,-4.653419538632573,-16.311484435797666,-1.8882084491384103
24.647000000000002,-4.649838845654993,-16.31121206225681,-1.8886420233463037
24.667,-4.6462581526774125,-16.310939688715955,-1.8890755975541969
24.687,-4.642677459699833,-16.3106673151751,-1.8895091717620902
24.707,-4.639096766722253,-16.310394941634243,-1.8899427459699834
24.727,-4.635516073744673,-16.310122568093387,-1.8903763201778767
24.747,-4.631935380767093,-16.30985019455253,-1.8908098943857699
24.767000000000003,-4.628354687789512,-16.309577821011676,-1.8912434685936632
24.787000000000003,-4.624773994811932,-16.30930544747082,-1.8916770428015566
24.807000000000002,-4.621193301834352,-16.30903307392996,-1.89211061700945
24.827,-4.6176126088567715,-16.308760700389104,-1.892544191217343
24.847,-4.614031915879192,-16.30848832684825,-1.8929777654252364
24.867,-4.610451222901611,-16.308215953307393,-1.8934113396331296
24.887,-4.606870529924032,-16.307943579766537,-1.893844913841023
24.907,-4.603289836946452,-16.30767120622568,-1.894278488048916
24.927000000000003,-4.59970914396887,-16.307398832684825,-1.8947120622568094
24.947000000000003,-4.596128450991291,-16.30712645914397,-1.8951456364647028
24.967000000000002,-4.592547758013711,-16.306854085603113,-1.895579210672596
24.987000000000002,-4.5889670650361305,-16.306581712062258,-1.8960127848804893
25.007,-4.585386372058551,-16.3063093385214,-1.8964463590883827
25.027,-4.58180567908097,-16.306036964980546,-1.8968799332962758
25.047,-4.578224986103391,-16.30576459143969,-1.8973135075041692
25.067,-4.57464429312581,-16.305492217898834,-1.8977470817120623
25.087000000000003,-4.571063600148229,-16.30521984435798,-1.8981806559199557
25.107000000000003,-4.56748290717065,-16.304947470817122,-1.898614230127849
25.127000000000002,-4.563902214193069,-16.304675097276267,-1.8990478043357422
25.147000000000002,-4.5603215212154895,-16.30440272373541,-1.8994813785436355
25.167,-4.55674082823791,-16.304130350194555,-1.8999149527515287
25.187,-4.553160135260329,-16.3038579766537,-1.900348526959422
25.207,-4.54957944228275,-16.30358560311284,-1.9007821011673154
25.227,-4.545998749305169,-16.303313229571984,-1.9012156753752085
25.247,-4.542418056327589,-16.303040856031128,-1.9016492495831019
25.267000000000003,-4.538837363350009,-16.302768482490272,-1.9020828237909952
25.287000000000003,-4.535256670372428,-16.302496108949416,-1.9025163979988884
25.307000000000002,-4.5316759773948485,-16.30222373540856,-1.9029499722067817
25.327,-4.528095284417268,-16.301951361867705,-1.9033835464146749
25.347,-4.524514591439688,-16.30167898832685,-1.9038171206225682
25.367,-4.520933898462109,-16.301406614785993,-1.9042506948304614
25.387,-4.517353205484528,-16.301134241245137,-1.9046842690383547
25.407,-4.513772512506948,-16.30086186770428,-1.905117843246248
25.427000000000003,-4.510191819529368,-16.300589494163425,-1.9055514174541412
25.447000000000003,-4.506611126551787,-16.30031712062257,-1.9059849916620346
25.467000000000002,-4.5030304335742075,-16.300044747081714,-1.906418565869928
25.487000000000002,-4.499449740596627,-16.299772373540858,-1.9068521400778211
25.507,-4.495869047619047,-16.299500000000002,-1.9072857142857145
25.527,-4.492288354641467,-16.299227626459146,-1.9077192884936076
25.547,-4.488707661663887,-16.29895525291829,-1.908152862701501
25.567,-4.485126968686307,-16.298682879377434,-1.9085864369093941
25.587000000000003,-4.481546275708727,-16.29841050583658,-1.9090200111172875
25.607000000000003,-4.477965582731146,-16.29813813229572,-1.9094535853251808
25.627000000000002,-4.4743848897535665,-16.297865758754863,-1.909887159533074
25.647000000000002,-4.470804196775986,-16.297593385214007,-1.9103207337409673
25.667,-4.467223503798406,-16.29732101167315,-1.9107543079488607
25.687,-4.463642810820826,-16.297048638132296,-1.9111878821567538
25.707,-4.460062117843246,-16.29677626459144,-1.9116214563646472
25.727,-4.456481424865666,-16.296503891050584,-1.9120550305725403
25.747,-4.452900731888086,-16.296231517509728,-1.9124886047804337
25.767000000000003,-4.449320038910505,-16.295959143968872,-1.912922178988327
25.787000000000003,-4.445739345932925,-16.295686770428016,-1.9133557531962202
25.807000000000002,-4.442158652955345,-16.29541439688716,-1.9137893274041136
25.827,-4.438577959977765,-16.295142023346305,-1.9142229016120067
25.847,-4.434997267000185,-16.29486964980545,-1.9146564758199
25.867,-4.431416574022605,-16.294597276264593,-1.9150900500277934
25.887,-4.4278358810450245,-16.294324902723737,-1.9155236242356866
25.907,-4.424255188067445,-16.29405252918288,-1.91595719844358
25.927000000000003,-4.420674495089864,-16.293780155642025,-1.9163907726514733
25.947000000000003,-4.417093802112284,-16.29350778210117,-1.9168243468593664
25.967000000000002,-4.413513109134704,-16.293235408560314,-1.9172579210672598
25.987000000000002,-4.409932416157124,-16.292963035019458,-1.917691495275153
26.007,-4.406351723179544,-16.2926906614786,-1.9181250694830463
26.027,-4.402771030201964,-16.292418287937743,-1.9185586436909394
26.047,-4.3991903372243835,-16.292145914396887,-1.9189922178988328
26.067,-4.395609644246804,-16.29187354085603,-1.9194257921067261
26.087000000000003,-4.392028951269223,-16.291601167315175,-1.9198593663146193
26.107000000000003,-4.388448258291643,-16.29132879377432,-1.9202929405225126
26.127000000000002,-4.384867565314063,-16.291056420233463,-1.920726514730406
26.147000000000002,-4.381286872336482,-16.290784046692607,-1.9211600889382991
26.167,-4.377706179358903,-16.29051167315175,-1.9215936631461925
26.187,-4.374125486381322,-16.290239299610896,-1.9220272373540856
26.207,-4.3705447934037425,-16.28996692607004,-1.922460811561979
26.227,-4.366964100426163,-16.289694552529184,-1.9228943857698721
26.247,-4.363383407448582,-16.28942217898833,-1.9233279599777655
26.267000000000003,-4.359802714471002,-16.289149805447472,-1.9237615341856589
26.287000000000003,-4.356222021493422,-16.288877431906617,-1.924195108393552
26.307000000000002,-4.352641328515841,-16.28860505836576,-1.9246286826014454
26.327,-4.349060635538262,-16.288332684824905,-1.9250622568093387
26.347,-4.345479942560681,-16.28806031128405,-1.9254958310172319
26.367,-4.3418992495831015,-16.287787937743193,-1.9259294052251252
26.387,-4.338318556605522,-16.287515564202337,-1.9263629794330184
26.407,-4.334737863627941,-16.287243190661478,-1.9267965536409117
26.427000000000003,-4.331157170650361,-16.286970817120622,-1.927230127848805
26.447000000000003,-4.32757647767278,-16.286698443579766,-1.9276637020566982
26.467000000000002,-4.3239957846952,-16.28642607003891,-1.9280972762645916
26.487000000000002,-4.320415091717621,-16.286153696498054,-1.9285308504724847
26.507,-4.31683439874004,-16.2858813229572,-1.928964424680378
26.527,-4.3132537057624605,-16.285608949416343,-1.9293979988882715
26.547,-4.30967301278488,-16.285336575875487,-1.9298315730961646
26.567,-4.3060923198073,-16.28506420233463,-1.930265147304058
26.587000000000003,-4.30251162682972,-16.284791828793775,-1.9306987215119513
26.607000000000003,-4.298930933852139,-16.28451945525292,-1.9311322957198445
26.627000000000002,-4.295350240874559,-16.284247081712063,-1.9315658699277378
26.647000000000002,-4.29176954789698,-16.283974708171208,-1.931999444135631
26.667,-4.288188854919399,-16.28370233463035,-1.9324330183435243
26.687,-4.2846081619418195,-16.283429961089496,-1.9328665925514175
26.707,-4.281027468964239,-16.28315758754864,-1.9333001667593108
26.727,-4.277446775986659,-16.282885214007784,-1.9337337409672042
26.747,-4.273866083009079,-16.28261284046693,-1.9341673151750973
26.767000000000003,-4.270285390031498,-16.282340466926073,-1.9346008893829907
26.787000000000003,-4.266704697053918,-16.282068093385213,-1.935034463590884
26.807000000000002,-4.263124004076338,-16.281795719844357,-1.9354680377987772
26.827,-4.259543311098758,-16.2815233463035,-1.9359016120066705
26.847,-4.255962618121178,-16.281250972762646,-1.9363351862145637
26.867,-4.252381925143598,-16.28097859922179,-1.936768760422457
26.887,-4.248801232166018,-16.280706225680934,-1.9372023346303502
26.907,-4.245220539188438,-16.280433852140078,-1.9376359088382435
26.927000000000003,-4.241639846210857,-16.280161478599222,-1.938069483046137
26.947000000000003,-4.238059153233277,-16.279889105058366,-1.9385030572540303
26.967000000000002,-4.234478460255697,-16.27961673151751,-1.9389366314619234
26.987000000000002,-4.230897767278117,-16.279344357976655,-1.9393702056698168
27.007,-4.227317074300537,-16.2790719844358,-1.93980377987771
27.027,-4.223736381322957,-16.278799610894943,-1.9402373540856033
27.047,-4.220155688345377,-16.278527237354087,-1.9406709282934964
27.067,-4.216574995367797,-16.27825486381323,-1.9411045025013898
27.087000000000003,-4.212994302390216,-16.277982490272375,-1.9415380767092831
27.107000000000003,-4.2094136094126355,-16.27771011673152,-1.9419716509171763
27.127000000000002,-4.205832916435056,-16.277437743190664,-1.9424052251250696
27.147000000000002,-4.202252223457476,-16.277165369649808,-1.942838799332963
27.167,-4.198671530479896,-16.276892996108952,-1.9432723735408561
27.187,-4.195090837502316,-16.276620622568093,-1.9437059477487495
27.207,-4.191510144524735,-16.276348249027237,-1.9441395219566426
27.227,-4.187929451547156,-16.27607587548638,-1.944573096164536
27.247,-4.184348758569575,-16.275803501945525,-1.9450066703724291
27.267000000000003,-4.1807680655919945,-16.27553112840467,-1.9454402445803225
27.287000000000003,-4.177187372614415,-16.275258754863813,-1.9458738187882159
27.307000000000002,-4.173606679636835,-16.274986381322957,-1.946307392996109
27.327,-4.170025986659255,-16.2747140077821,-1.9467409672040024
27.347,-4.166445293681675,-16.274441634241246,-1.9471745414118957
27.367,-4.162864600704094,-16.27416926070039,-1.9476081156197889
27.387,-4.159283907726515,-16.273896887159534,-1.9480416898276822
27.407,-4.155703214748934,-16.273624513618678,-1.9484752640355754
27.427000000000003,-4.1521225217713535,-16.273352140077822,-1.9489088382434687
27.447000000000003,-4.148541828793774,-16.273079766536966,-1.949342412451362
27.467000000000002,-4.144961135816193,-16.27280739299611,-1.9497759866592552
27.487000000000002,-4.141380442838614,-16.272535019455255,-1.9502095608671486
27.507,-4.137799749861033,-16.2722626459144,-1.9506431350750417
27.527,-4.134219056883453,-16.271990272373543,-1.951076709282935
27.547,-4.130638363905874,-16.271717898832687,-1.9515102834908284
27.567,-4.127057670928293,-16.27144552529183,-1.9519438576987216
27.587000000000003,-4.1234769779507126,-16.271173151750972,-1.952377431906615
27.607000000000003,-4.119896284973133,-16.270900778210116,-1.9528110061145083
27.627000000000002,-4.116315591995552,-16.27062840466926,-1.9532445803224014
27.647000000000002,-4.112734899017973,-16.270356031128404,-1.9536781545302948
27.667,-4.109154206040392,-16.27008365758755,-1.954111728738188
27.687,-4.105573513062812,-16.269811284046693,-1.9545453029460813
27.707,-4.101992820085233,-16.269538910505837,-1.9549788771539744
27.727,-4.098412127107652,-16.26926653696498,-1.9554124513618678
27.747,-4.0948314341300724,-16.268994163424125,-1.9558460255697612
27.767000000000003,-4.091250741152491,-16.26872178988327,-1.9562795997776543
27.787000000000003,-4.087670048174911,-16.268449416342413,-1.9567131739855477
27.807000000000002,-4.084089355197332,-16.268177042801558,-1.957146748193441
27.827,-4.080508662219751,-16.2679046692607,-1.9575803224013342
27.847,-4.076927969242171,-16.267632295719846,-1.9580138966092275
27.867,-4.073347276264591,-16.26735992217899,-1.9584474708171207
27.887,-4.069766583287011,-16.267087548638134,-1.958881045025014
27.907,-4.066185890309431,-16.26681517509728,-1.9593146192329072
27.927000000000003,-4.06260519733185,-16.266542801556422,-1.9597481934408005
27.947000000000003,-4.05902450435427,-16.266270428015567,-1.960181767648694
27.967000000000002,-4.055443811376691,-16.26599805447471,-1.960615341856587
27.987000000000002,-4.05186311839911,-16.26572568093385,-1.9610489160644804
28.007,-4.04828242542153,-16.265453307392995,-1.9614824902723738
28.027,-4.04470173244395,-16.26518093385214,-1.961916064480267
28.047,-4.04112103946637,-16.264908560311284,-1.9623496386881603
28.067,-4.03754034648879,-16.264636186770428,-1.9627832128960534
28.087000000000003,-4.033959653511209,-16.264363813229572,-1.9632167871039468
28.107000000000003,-4.030378960533629,-16.264091439688716,-1.9636503613118401
28.127000000000002,-4.026798267556049,-16.26381906614786,-1.9640839355197333
28.147000000000002,-4.023217574578469,-16.263546692607004,-1.9645175097276266
28.167,-4.0196368816008885,-16.26327431906615,-1.9649510839355198
28.187,-4.016056188623309,-16.263001945525293,-1.9653846581434131
28.207,-4.012475495645729,-16.262729571984437,-1.9658182323513065
28.227,-4.008894802668149,-16.26245719844358,-1.9662518065591996
28.247,-4.005314109690569,-16.262184824902725,-1.966685380767093
28.267000000000003,-4.001733416712988,-16.26191245136187,-1.9671189549749863
28.287000000000003,-3.9981527237354078,-16.261640077821014,-1.9675525291828795
28.307000000000002,-3.994572030757828,-16.261367704280158,-1.9679861033907728
28.327,-3.990991337780248,-16.261095330739302,-1.968419677598666
28.347,-3.987410644802668,-16.260822957198446,-1.9688532518065593
28.367,-3.9838299518250877,-16.26055058365759,-1.9692868260144525
28.387,-3.9802492588475076,-16.26027821011673,-1.9697204002223458
28.407,-3.976668565869928,-16.260005836575875,-1.9701539744302392
28.427000000000003,-3.973087872892347,-16.25973346303502,-1.9705875486381323
28.447000000000003,-3.9695071799147668,-16.259461089494163,-1.9710211228460257
28.467000000000002,-3.965926486937187,-16.259188715953307,-1.971454697053919
28.487000000000002,-3.9623457939596065,-16.25891634241245,-1.9718882712618122
28.507,-3.958765100982027,-16.258643968871596,-1.9723218454697056
28.527,-3.9551844080044467,-16.25837159533074,-1.9727554196775987
28.547,-3.9516037150268666,-16.258099221789884,-1.973188993885492
28.567,-3.9480230220492865,-16.257826848249028,-1.9736225680933852
28.587000000000003,-3.944442329071706,-16.257554474708172,-1.9740561423012786
28.607000000000003,-3.9408616360941258,-16.257282101167316,-1.974489716509172
28.627000000000002,-3.9372809431165456,-16.25700972762646,-1.974923290717065
28.647000000000002,-3.9337002501389655,-16.256737354085605,-1.9753568649249584
28.667,-3.930119557161386,-16.25646498054475,-1.9757904391328518
28.687,-3.9265388641838053,-16.256192607003893,-1.976224013340745
28.707,-3.9229581712062256,-16.255920233463037,-1.9766575875486383
28.727,-3.9193774782286455,-16.25564785992218,-1.9770911617565314
28.747,-3.9157967852510653,-16.255375486381325,-1.9775247359644248
28.767000000000003,-3.9122160922734848,-16.255103112840466,-1.9779583101723182
28.787000000000003,-3.9086353992959046,-16.25483073929961,-1.9783918843802113
28.807000000000002,-3.9050547063183245,-16.254558365758754,-1.9788254585881047
28.827,-3.9014740133407444,-16.2542859922179,-1.9792590327959978
28.847,-3.8978933203631643,-16.254013618677043,-1.9796926070038912
28.867,-3.8943126273855846,-16.253741245136187,-1.9801261812117845
28.887,-3.890731934408004,-16.25346887159533,-1.9805597554196777
28.907,-3.8871512414304243,-16.253196498054475,-1.980993329627571
28.927000000000003,-3.8835705484528438,-16.25292412451362,-1.9814269038354644
28.947000000000003,-3.879989855475263,-16.252651750972763,-1.9818604780433575
28.967000000000002,-3.8764091624976835,-16.252379377431907,-1.9822940522512509
28.987000000000002,-3.8728284695201034,-16.25210700389105,-1.982727626459144
29.007,-3.8692477765425233,-16.251834630350196,-1.9831612006670374
29.027,-3.865667083564943,-16.25156225680934,-1.9835947748749305
29.047,-3.862086390587363,-16.251289883268484,-1.9840283490828239
29.067,-3.8585056976097833,-16.251017509727628,-1.9844619232907172
29.087000000000003,-3.8549250046322023,-16.250745136186772,-1.9848954974986106
29.107000000000003,-3.851344311654622,-16.250472762645916,-1.9853290717065037
29.127000000000002,-3.8477636186770425,-16.25020038910506,-1.985762645914397
29.147000000000002,-3.844182925699462,-16.249928015564205,-1.9861962201222902
29.167,-3.8406022327218823,-16.24965564202335,-1.9866297943301836
29.187,-3.837021539744302,-16.24938326848249,-1.9870633685380767
29.207,-3.833440846766722,-16.249110894941634,-1.98749694274597
29.227,-3.829860153789142,-16.248838521400778,-1.9879305169538632
29.247,-3.826279460811562,-16.248566147859922,-1.9883640911617566
29.267000000000003,-3.822698767833981,-16.248293774319066,-1.98879766536965
29.287000000000003,-3.819118074856401,-16.24802140077821,-1.9892312395775433
29.307000000000002,-3.815537381878821,-16.247749027237354,-1.9896648137854365
29.327,-3.8119566889012413,-16.2474766536965,-1.9900983879933298
29.347,-3.8083759959236607,-16.247204280155643,-1.990531962201223
29.367,-3.804795302946081,-16.246931906614787,-1.9909655364091163
29.387,-3.801214609968501,-16.24665953307393,-1.9913991106170095
29.407,-3.797633916990921,-16.246387159533075,-1.9918326848249028
29.427000000000003,-3.79405322401334,-16.24611478599222,-1.9922662590327962
29.447000000000003,-3.79047253103576,-16.245842412451363,-1.9926998332406893
29.467000000000002,-3.78689183805818,-16.245570038910508,-1.9931334074485827
29.487000000000002,-3.7833111450806,-16.24529766536965,-1.993566981656476
29.507,-3.7797304521030197,-16.245025291828796,-1.9940005558643692
29.527,-3.77614975912544,-16.24475291828794,-1.9944341300722626
29.547,-3.7725690661478595,-16.244480544747084,-1.9948677042801557
29.567,-3.76898837317028,-16.244208171206225,-1.995301278488049
29.587000000000003,-3.7654076801926992,-16.24393579766537,-1.9957348526959424
29.607000000000003,-3.7618269872151187,-16.243663424124513,-1.9961684269038356
29.627000000000002,-3.758246294237539,-16.243391050583657,-1.996602001111729
29.647000000000002,-3.754665601259959,-16.2431186770428,-1.997035575319622
29.667,-3.7510849082823787,-16.242846303501945,-1.9974691495275154
29.687,-3.7475042153047986,-16.24257392996109,-1.9979027237354088
29.707,-3.7439235223272185,-16.242301556420234,-1.998336297943302
29.727,-3.740342829349639,-16.242029182879378,-1.9987698721511953
29.747,-3.7367621363720582,-16.241756809338522,-1.9992034463590884
29.767000000000003,-3.7331814433944777,-16.241484435797666,-1.9996370205669818
29.787000000000003,-3.729600750416898,-16.24121206225681,-2.000070594774875
29.807000000000002,-3.7260200574393174,-16.240939688715955,-2.0005041689827685
29.827,-3.7224393644617377,-16.2406673151751,-2.0009377431906614
29.847,-3.7188586714841576,-16.240394941634243,-2.001371317398555
29.867,-3.7152779785065775,-16.240122568093387,-2.001804891606448
29.887,-3.7116972855289974,-16.23985019455253,-2.0022384658143415
29.907,-3.7081165925514172,-16.239577821011675,-2.002672040022235
29.927000000000003,-3.7045358995738367,-16.23930544747082,-2.003105614230128
29.947000000000003,-3.7009552065962565,-16.239033073929964,-2.003539188438021
29.967000000000002,-3.6973745136186764,-16.238760700389104,-2.0039727626459145
29.987000000000002,-3.6937938206410967,-16.23848832684825,-2.004406336853808
30.007,-3.690213127663516,-16.238215953307392,-2.0048399110617012
30.027,-3.6866324346859365,-16.237943579766537,-2.005273485269594
30.047,-3.6830517417083564,-16.23767120622568,-2.0057070594774875
30.067,-3.6794710487307762,-16.237398832684825,-2.006140633685381
30.087000000000003,-3.6758903557531957,-16.23712645914397,-2.0065742078932742
30.107000000000003,-3.6723096627756155,-16.236854085603113,-2.0070077821011676
30.127000000000002,-3.6687289697980354,-16.236581712062257,-2.0074413563090605
30.147000000000002,-3.6651482768204553,-16.2363093385214,-2.007874930516954
30.167,-3.661567583842875,-16.236036964980546,-2.0083085047248472
30.187,-3.6579868908652955,-16.23576459143969,-2.0087420789327406
30.207,-3.654406197887715,-16.235492217898834,-2.009175653140634
30.227,-3.6508255049101352,-16.235219844357978,-2.009609227348527
30.247,-3.647244811932555,-16.234947470817122,-2.0100428015564202
30.267000000000003,-3.643664118954974,-16.234675097276266,-2.0104763757643136
30.287000000000003,-3.6400834259773944,-16.23440272373541,-2.010909949972207
30.307000000000002,-3.6365027329998143,-16.234130350194555,-2.0113435241801003
30.327,-3.632922040022234,-16.2338579766537,-2.0117770983879932
30.347,-3.629341347044654,-16.233585603112843,-2.0122106725958866
30.367,-3.625760654067074,-16.233313229571984,-2.01264424680378
30.387,-3.6221799610894942,-16.233040856031128,-2.0130778210116733
30.407,-3.6185992681119137,-16.232768482490272,-2.0135113952195667
30.427000000000003,-3.615018575134333,-16.232496108949416,-2.01394496942746
30.447000000000003,-3.6114378821567534,-16.23222373540856,-2.014378543635353
30.467000000000002,-3.607857189179173,-16.231951361867704,-2.0148121178432463
30.487000000000002,-3.604276496201593,-16.23167898832685,-2.0152456920511397
30.507,-3.600695803224013,-16.231406614785993,-2.015679266259033
30.527,-3.597115110246433,-16.231134241245137,-2.016112840466926
30.547,-3.593534417268853,-16.23086186770428,-2.0165464146748193
30.567,-3.5899537242912727,-16.230589494163425,-2.0169799888827127
30.587000000000003,-3.586373031313692,-16.23031712062257,-2.017413563090606
30.607000000000003,-3.582792338336112,-16.230044747081713,-2.0178471372984994
30.627000000000002,-3.579211645358532,-16.229772373540857,-2.0182807115063928
30.647000000000002,-3.575630952380952,-16.2295,-2.0187142857142857
30.667,-3.5720502594033716,-16.229227626459146,-2.019147859922179
30.687,-3.568469566425792,-16.22895525291829,-2.0195814341300724
30.707,-3.564888873448212,-16.228682879377434,-2.0200150083379658
30.727,-3.5613081804706317,-16.228410505836578,-2.0204485825458587
30.747,-3.5577274874930516,-16.228138132295722,-2.020882156753752
30.767000000000003,-3.554146794515471,-16.227865758754863,-2.0213157309616454
30.787000000000003,-3.550566101537891,-16.227593385214007,-2.0217493051695388
30.807000000000002,-3.5469854085603107,-16.22732101167315,-2.022182879377432
30.827,-3.5434047155827306,-16.227048638132295,-2.0226164535853255
30.847,-3.539824022605151,-16.22677626459144,-2.0230500277932184
30.867,-3.5362433296275704,-16.226503891050584,-2.0234836020011118
30.887,-3.5326626366499907,-16.226231517509728,-2.023917176209005
30.907,-3.5290819436724106,-16.225959143968872,-2.0243507504168985
30.927000000000003,-3.5255012506948296,-16.225686770428016,-2.024784324624792
30.947000000000003,-3.52192055771725,-16.22541439688716,-2.0252178988326848
30.967000000000002,-3.5183398647396698,-16.225142023346304,-2.025651473040578
30.987000000000002,-3.5147591717620896,-16.22486964980545,-2.0260850472484715
31.007,-3.5111784787845095,-16.224597276264593,-2.026518621456365
31.027,-3.5075977858069294,-16.224324902723737,-2.026952195664258
31.047,-3.5040170928293497,-16.22405252918288,-2.027385769872151
31.067,-3.500436399851769,-16.223780155642025,-2.0278193440800445
31.087000000000003,-3.4968557068741886,-16.22350778210117,-2.028252918287938
31.107000000000003,-3.493275013896609,-16.223235408560313,-2.028686492495831
31.127000000000002,-3.4896943209190283,-16.222963035019458,-2.0291200667037246
31.147000000000002,-3.4861136279414486,-16.2226906614786,-2.0295536409116175
31.167,-3.4825329349638685,-16.222418287937742,-2.029987215119511
31.187,-3.4789522419862884,-16.222145914396886,-2.030420789327404
31.207,-3.4753715490087083,-16.22187354085603,-2.0308543635352976
31.227,-3.471790856031128,-16.221601167315175,-2.031287937743191
31.247000000000003,-3.4682101630535476,-16.22132879377432,-2.0317215119510843
31.267000000000003,-3.4646294700759674,-16.221056420233463,-2.032155086158977
31.287000000000003,-3.4610487770983873,-16.220784046692607,-2.0325886603668706
31.307000000000002,-3.4574680841208076,-16.22051167315175,-2.033022234574764
31.327,-3.453887391143227,-16.220239299610896,-2.0334558087826573
31.347,-3.4503066981656474,-16.21996692607004,-2.03388938299055
31.367,-3.4467260051880673,-16.219694552529184,-2.0343229571984436
31.387,-3.443145312210487,-16.219422178988328,-2.034756531406337
31.407,-3.439564619232907,-16.219149805447472,-2.0351901056142303
31.427000000000003,-3.4359839262553264,-16.218877431906616,-2.0356236798221237
31.447000000000003,-3.4324032332777463,-16.21860505836576,-2.036057254030017
31.467000000000002,-3.428822540300166,-16.218332684824905,-2.03649082823791
31.487000000000002,-3.425241847322586,-16.21806031128405,-2.0369244024458033
31.507,-3.4216611543450064,-16.217787937743193,-2.0373579766536967
31.527,-3.418080461367426,-16.217515564202337,-2.03779155086159
31.547,-3.414499768389846,-16.21724319066148,-2.038225125069483
31.567,-3.410919075412266,-16.21697081712062,-2.0386586992773763
31.587000000000003,-3.407338382434685,-16.216698443579766,-2.0390922734852697
31.607000000000003,-3.4037576894571053,-16.21642607003891,-2.039525847693163
31.627000000000002,-3.400176996479525,-16.216153696498054,-2.0399594219010564
31.647000000000002,-3.396596303501945,-16.2158813229572,-2.0403929961089498
31.667,-3.393015610524365,-16.215608949416342,-2.0408265703168427
31.687,-3.389434917546785,-16.215336575875487,-2.041260144524736
31.707,-3.385854224569205,-16.21506420233463,-2.0416937187326294
31.727,-3.3822735315916246,-16.214791828793775,-2.0421272929405228
31.747000000000003,-3.378692838614044,-16.21451945525292,-2.042560867148416
31.767000000000003,-3.3751121456364643,-16.214247081712063,-2.042994441356309
31.787000000000003,-3.3715314526588838,-16.213974708171207,-2.0434280155642024
31.807000000000002,-3.367950759681304,-16.21370233463035,-2.0438615897720958
31.827,-3.364370066703724,-16.213429961089496,-2.044295163979989
31.847,-3.360789373726144,-16.21315758754864,-2.0447287381878825
31.867,-3.3572086807485637,-16.212885214007784,-2.0451623123957754
31.887,-3.3536279877709836,-16.212612840466928,-2.0455958866036688
31.907,-3.350047294793404,-16.212340466926072,-2.046029460811562
31.927000000000003,-3.346466601815823,-16.212068093385216,-2.0464630350194555
31.947000000000003,-3.3428859088382428,-16.211795719844357,-2.046896609227349
31.967000000000002,-3.339305215860663,-16.2115233463035,-2.0473301834352418
31.987000000000002,-3.3357245228830825,-16.211250972762645,-2.047763757643135
32.007,-3.3321438299055037,-16.21097859922179,-2.0481973318510285
32.027,-3.3285631369279227,-16.210706225680934,-2.048630906058922
32.047000000000004,-3.3249824439503417,-16.210433852140078,-2.049064480266815
32.067,-3.321401750972763,-16.210161478599222,-2.049498054474708
32.087,-3.317821057995182,-16.209889105058366,-2.0499316286826015
32.107,-3.3142403650176027,-16.20961673151751,-2.050365202890495
32.127,-3.310659672040022,-16.209344357976654,-2.050798777098388
32.147,-3.3070789790624424,-16.2090719844358,-2.051232351306281
32.167,-3.303498286084862,-16.208799610894943,-2.0516659255141745
32.187000000000005,-3.2999175931072813,-16.208527237354087,-2.052099499722068
32.207,-3.2963369001297016,-16.20825486381323,-2.052533073929961
32.227000000000004,-3.292756207152121,-16.207982490272375,-2.0529666481378546
32.247,-3.2891755141745413,-16.20771011673152,-2.053400222345748
32.267,-3.285594821196961,-16.207437743190663,-2.053833796553641
32.287,-3.282014128219381,-16.207165369649807,-2.054267370761534
32.307,-3.2784334352418005,-16.20689299610895,-2.0547009449694276
32.327,-3.274852742264221,-16.206620622568096,-2.055134519177321
32.347,-3.2712720492866403,-16.206348249027236,-2.0555680933852143
32.367000000000004,-3.2676913563090597,-16.20607587548638,-2.0560016675931077
32.387,-3.26411066333148,-16.205803501945525,-2.0564352418010006
32.407000000000004,-3.2605299703538995,-16.20553112840467,-2.056868816008894
32.427,-3.2569492773763202,-16.205258754863813,-2.0573023902167873
32.447,-3.253368584398739,-16.204986381322957,-2.0577359644246807
32.467,-3.2497878914211604,-16.2047140077821,-2.0581695386325736
32.487,-3.2462071984435794,-16.204441634241245,-2.058603112840467
32.507000000000005,-3.2426265054659984,-16.20416926070039,-2.0590366870483603
32.527,-3.2390458124884196,-16.203896887159534,-2.0594702612562537
32.547000000000004,-3.2354651195108386,-16.203624513618678,-2.059903835464147
32.567,-3.2318844265332594,-16.203352140077822,-2.06033740967204
32.587,-3.228303733555679,-16.203079766536966,-2.0607709838799333
32.607,-3.224723040578099,-16.20280739299611,-2.0612045580878267
32.627,-3.2211423476005185,-16.202535019455254,-2.06163813229572
32.647,-3.217561654622939,-16.2022626459144,-2.0620717065036134
32.667,-3.2139809616453583,-16.201990272373543,-2.0625052807115063
32.687000000000005,-3.2104002686677777,-16.201717898832687,-2.0629388549193997
32.707,-3.206819575690198,-16.20144552529183,-2.063372429127293
32.727000000000004,-3.2032388827126175,-16.201173151750975,-2.0638060033351864
32.747,-3.199658189735038,-16.200900778210116,-2.0642395775430797
32.767,-3.1960774967574572,-16.20062840466926,-2.064673151750973
32.787,-3.1924968037798775,-16.200356031128404,-2.065106725958866
32.807,-3.188916110802297,-16.200083657587548,-2.0655403001667594
32.827,-3.1853354178247177,-16.199811284046692,-2.0659738743746527
32.847,-3.1817547248471367,-16.199538910505836,-2.066407448582546
32.867000000000004,-3.178174031869556,-16.19926653696498,-2.0668410227904395
32.887,-3.174593338891977,-16.198994163424125,-2.0672745969983324
32.907000000000004,-3.171012645914396,-16.19872178988327,-2.0677081712062257
32.927,-3.167431952936817,-16.198449416342413,-2.068141745414119
32.947,-3.163851259959236,-16.198177042801557,-2.0685753196220125
32.967,-3.160270566981657,-16.1979046692607,-2.0690088938299054
32.987,-3.1566898740040763,-16.197632295719846,-2.0694424680377987
33.007000000000005,-3.1531091810264953,-16.19735992217899,-2.069876042245692
33.027,-3.149528488048916,-16.197087548638134,-2.0703096164535855
33.047000000000004,-3.1459477950713355,-16.196815175097278,-2.070743190661479
33.067,-3.142367102093756,-16.196542801556422,-2.0711767648693717
33.087,-3.1387864091161752,-16.196270428015566,-2.071610339077265
33.107,-3.1352057161385956,-16.19599805447471,-2.0720439132851585
33.127,-3.131625023161015,-16.195725680933855,-2.072477487493052
33.147,-3.1280443301834353,-16.195453307392995,-2.072911061700945
33.167,-3.1244636372058547,-16.19518093385214,-2.0733446359088386
33.187000000000005,-3.120882944228274,-16.194908560311283,-2.073778210116732
33.207,-3.1173022512506945,-16.194636186770428,-2.074211784324625
33.227000000000004,-3.113721558273114,-16.19436381322957,-2.074645358532518
33.247,-3.1101408652955347,-16.194091439688716,-2.0750789327404116
33.267,-3.1065601723179537,-16.19381906614786,-2.075512506948305
33.287,-3.1029794793403744,-16.193546692607004,-2.075946081156198
33.307,-3.099398786362794,-16.19327431906615,-2.076379655364091
33.327,-3.0958180933852146,-16.193001945525292,-2.0768132295719846
33.347,-3.0922374004076336,-16.192729571984437,-2.077246803779878
33.367000000000004,-3.088656707430053,-16.19245719844358,-2.0776803779877713
33.387,-3.085076014452474,-16.192184824902725,-2.078113952195664
33.407000000000004,-3.081495321474893,-16.19191245136187,-2.0785475264035576
33.427,-3.0779146284973136,-16.191640077821013,-2.078981100611451
33.447,-3.074333935519733,-16.191367704280157,-2.0794146748193443
33.467,-3.0707532425421533,-16.1910953307393,-2.079848249027237
33.487,-3.0671725495645727,-16.190822957198446,-2.0802818232351306
33.507000000000005,-3.063591856586992,-16.19055058365759,-2.080715397443024
33.527,-3.0600111636094125,-16.190278210116734,-2.0811489716509173
33.547000000000004,-3.056430470631832,-16.190005836575875,-2.0815825458588106
33.567,-3.0528497776542523,-16.18973346303502,-2.082016120066704
33.587,-3.0492690846766717,-16.189461089494163,-2.0824496942745974
33.607,-3.045688391699092,-16.189188715953307,-2.0828832684824903
33.627,-3.0421076987215114,-16.18891634241245,-2.0833168426903836
33.647,-3.038527005743932,-16.188643968871595,-2.083750416898277
33.667,-3.034946312766351,-16.18837159533074,-2.0841839911061704
33.687000000000005,-3.0313656197887706,-16.188099221789884,-2.0846175653140637
33.707,-3.0277849268111914,-16.187826848249028,-2.0850511395219566
33.727000000000004,-3.0242042338336104,-16.187554474708172,-2.08548471372985
33.747,-3.020623540856031,-16.187282101167316,-2.0859182879377434
33.767,-3.0170428478784506,-16.18700972762646,-2.0863518621456367
33.787,-3.0134621549008713,-16.186737354085604,-2.0867854363535296
33.807,-3.0098814619232903,-16.18646498054475,-2.087219010561423
33.827,-3.006300768945711,-16.186192607003893,-2.0876525847693164
33.847,-3.0027200759681305,-16.185920233463037,-2.0880861589772097
33.867000000000004,-2.9991393829905495,-16.18564785992218,-2.088519733185103
33.887,-2.9955586900129703,-16.185375486381325,-2.088953307392996
33.907000000000004,-2.9919779970353892,-16.18510311284047,-2.0893868816008894
33.927,-2.98839730405781,-16.184830739299613,-2.0898204558087827
33.947,-2.9848166110802294,-16.184558365758754,-2.090254030016676
33.967,-2.9812359181026498,-16.184285992217898,-2.0906876042245695
33.987,-2.977655225125069,-16.184013618677042,-2.091121178432463
34.007000000000005,-2.9740745321474886,-16.183741245136186,-2.0915547526403557
34.027,-2.970493839169909,-16.18346887159533,-2.091988326848249
34.047000000000004,-2.9669131461923284,-16.183196498054475,-2.0924219010561425
34.067,-2.963332453214749,-16.18292412451362,-2.092855475264036
34.087,-2.959751760237168,-16.182651750972763,-2.093289049471929
34.107,-2.956171067259589,-16.182379377431907,-2.093722623679822
34.127,-2.9525903742820083,-16.18210700389105,-2.0941561978877155
34.147,-2.9490096813044286,-16.181834630350195,-2.094589772095609
34.167,-2.945428988326848,-16.18156225680934,-2.095023346303502
34.187000000000005,-2.9418482953492675,-16.181289883268484,-2.0954569205113955
34.207,-2.938267602371688,-16.181017509727628,-2.0958904947192885
34.227000000000004,-2.9346869093941073,-16.180745136186772,-2.096324068927182
34.247,-2.9311062164165276,-16.180472762645916,-2.096757643135075
34.267,-2.927525523438947,-16.18020038910506,-2.0971912173429685
34.287,-2.9239448304613678,-16.179928015564204,-2.097624791550862
34.307,-2.9203641374837868,-16.17965564202335,-2.098058365758755
34.327000000000005,-2.916783444506206,-16.17938326848249,-2.098491939966648
34.347,-2.913202751528627,-16.179110894941633,-2.0989255141745415
34.367000000000004,-2.909622058551046,-16.178838521400777,-2.099359088382435
34.387,-2.9060413655734667,-16.17856614785992,-2.0997926625903283
34.407000000000004,-2.902460672595886,-16.178293774319066,-2.100226236798221
34.427,-2.8988799796183065,-16.17802140077821,-2.1006598110061145
34.447,-2.895299286640726,-16.177749027237354,-2.101093385214008
34.467,-2.8917185936631467,-16.1774766536965,-2.1015269594219013
34.487,-2.8881379006855656,-16.177204280155642,-2.1019605336297946
34.507000000000005,-2.884557207707985,-16.176931906614787,-2.102394107837688
34.527,-2.880976514730406,-16.17665953307393,-2.102827682045581
34.547000000000004,-2.877395821752825,-16.176387159533075,-2.1032612562534743
34.567,-2.8738151287752456,-16.17611478599222,-2.1036948304613676
34.587,-2.870234435797665,-16.175842412451363,-2.104128404669261
34.607,-2.8666537428200853,-16.175570038910507,-2.104561978877154
34.627,-2.8630730498425048,-16.17529766536965,-2.1049955530850473
34.647,-2.859492356864925,-16.175025291828796,-2.1054291272929406
34.667,-2.8559116638873445,-16.17475291828794,-2.105862701500834
34.687000000000005,-2.852330970909764,-16.174480544747084,-2.1062962757087274
34.707,-2.8487502779321843,-16.174208171206228,-2.1067298499166203
34.727000000000004,-2.8451695849546037,-16.17393579766537,-2.1071634241245136
34.747,-2.8415888919770245,-16.173663424124513,-2.107596998332407
34.767,-2.8380081989994435,-16.173391050583657,-2.1080305725403004
34.787,-2.834427506021864,-16.1731186770428,-2.1084641467481937
34.807,-2.8308468130442836,-16.172846303501945,-2.1088977209560866
34.827000000000005,-2.8272661200667026,-16.17257392996109,-2.1093312951639804
34.847,-2.8236854270891234,-16.172301556420233,-2.1097648693718734
34.867000000000004,-2.820104734111543,-16.172029182879378,-2.1101984435797667
34.887,-2.816524041133963,-16.171756809338522,-2.11063201778766
34.907000000000004,-2.8129433481563826,-16.171484435797666,-2.1110655919955534
34.927,-2.8093626551788033,-16.17121206225681,-2.1114991662034464
34.947,-2.8057819622012223,-16.170939688715954,-2.1119327404113397
34.967,-2.802201269223643,-16.1706673151751,-2.112366314619233
34.987,-2.7986205762460625,-16.170394941634243,-2.1127998888271264
35.007000000000005,-2.7950398832684815,-16.170122568093387,-2.11323346303502
35.027,-2.7914591902909023,-16.16985019455253,-2.1136670372429127
35.047000000000004,-2.7878784973133217,-16.169577821011675,-2.114100611450806
35.067,-2.784297804335742,-16.16930544747082,-2.1145341856586994
35.087,-2.7807171113581615,-16.169033073929963,-2.114967759866593
35.107,-2.777136418380582,-16.168760700389107,-2.1154013340744857
35.127,-2.773555725403001,-16.168488326848248,-2.115834908282379
35.147,-2.769975032425422,-16.168215953307392,-2.1162684824902724
35.167,-2.766394339447841,-16.167943579766536,-2.116702056698166
35.187000000000005,-2.7628136464702604,-16.16767120622568,-2.117135630906059
35.207,-2.759232953492681,-16.167398832684825,-2.117569205113952
35.227000000000004,-2.7556522605151,-16.16712645914397,-2.118002779321846
35.247,-2.752071567537521,-16.166854085603113,-2.118436353529739
35.267,-2.7484908745599403,-16.166581712062257,-2.118869927737632
35.287,-2.7449101815823607,-16.1663093385214,-2.1193035019455255
35.307,-2.74132948860478,-16.166036964980545,-2.119737076153419
35.327000000000005,-2.7377487956271995,-16.16576459143969,-2.1201706503613122
35.347,-2.73416810264962,-16.165492217898834,-2.120604224569205
35.367000000000004,-2.7305874096720393,-16.165219844357978,-2.1210377987770985
35.387,-2.72700671669446,-16.164947470817122,-2.121471372984992
35.407000000000004,-2.723426023716879,-16.164675097276266,-2.1219049471928852
35.427,-2.7198453307393,-16.16440272373541,-2.122338521400778
35.447,-2.7162646377617192,-16.164130350194554,-2.1227720956086715
35.467,-2.7126839447841395,-16.1638579766537,-2.123205669816565
35.487,-2.709103251806559,-16.163585603112843,-2.1236392440244583
35.507000000000005,-2.7055225588289784,-16.163313229571987,-2.1240728182323516
35.527,-2.7019418658513987,-16.163040856031127,-2.1245063924402445
35.547000000000004,-2.698361172873818,-16.16276848249027,-2.124939966648138
35.567,-2.6947804798962385,-16.162496108949416,-2.1253735408560313
35.587,-2.691199786918658,-16.16222373540856,-2.1258071150639246
35.607,-2.6876190939410787,-16.161951361867704,-2.1262406892718175
35.627,-2.6840384009634977,-16.161678988326848,-2.1266742634797113
35.647,-2.6804577079859184,-16.161406614785992,-2.1271078376876043
35.667,-2.676877015008338,-16.161134241245136,-2.1275414118954976
35.687000000000005,-2.673296322030757,-16.16086186770428,-2.127974986103391
35.707,-2.6697156290531776,-16.160589494163425,-2.1284085603112843
35.727000000000004,-2.666134936075597,-16.16031712062257,-2.1288421345191777
35.747,-2.6625542430980174,-16.160044747081713,-2.1292757087270706
35.767,-2.658973550120437,-16.159772373540857,-2.129709282934964
35.787,-2.6553928571428576,-16.1595,-2.1301428571428573
35.807,-2.6518121641652765,-16.159227626459145,-2.1305764313507507
35.827000000000005,-2.648231471187696,-16.15895525291829,-2.131010005558644
