timestamp,acc_x,acc_y,acc_z
0.027,1.411,0.093,0.28
0.047,0.9523846153846154,0.021076923076923104,0.4948461538461539
0.067,0.5746,-0.17159999999999997,0.34500000000000003
0.087,-0.4674999999999998,-0.8269999999999995,0.24299999999999977
0.107,-1.3018571428571428,-1.5298571428571428,0.5561428571428572
0.127,-1.4798,-1.162,-0.6317999999999999
0.147,-1.8468749999999998,-1.2181249999999997,-0.7201250000000002
0.167,-1.4082222222222223,-0.32666666666666666,0.11283333333333337
0.187,-1.3439411764705882,-0.6776470588235294,-0.16176470588235295
0.207,-0.8049999999999999,-0.971764705882353,-0.12376470588235294
0.227,-1.0311818181818182,-0.9428181818181818,-0.43972727272727274
0.247,-1.1520909090909088,-0.791909090909091,-0.5883636363636362
0.267,-1.273,-0.641,-0.737
0.28700000000000003,-1.7733076923076942,-0.09811538461538348,-2.19273076923077
0.30700000000000005,-2.4225384615384637,0.3134230769230781,-2.399653846153847
0.327,-0.2667333333333333,2.4164666666666665,0.7204
0.34700000000000003,-0.530882352941177,2.4804117647058805,-1.0076470588235318
0.36700000000000005,0.05372000000000031,0.6872799999999993,-1.515919999999998
0.387,0.16732,0.43367999999999995,-0.7855199999999999
0.40700000000000003,0.21249999999999986,0.27024999999999977,-0.7907500000000003
0.42700000000000005,0.09221621621621603,0.12343243243243242,-0.9963243243243244
0.447,0.028972972972972966,0.11694594594594596,-1.0114594594594595
0.467,-0.17979999999999757,0.28079999999999905,0.3495999999999991
0.48700000000000004,0.049153846153847394,0.41600000000000215,0.6932307692307698
0.507,0.37981818181818183,0.9496363636363636,0.5851818181818181
0.527,0.74975,0.8425,-0.729875
0.547,0.8830833333333337,0.7999999999999998,-1.0184166666666665
0.5670000000000001,1.045861111111112,0.7466666666666664,-0.978972222222222
0.5870000000000001,0.7021904761904754,-0.49776190476190496,-0.5118571428571416
0.607,0.59775,-0.53,-0.25475000000000003
0.627,0.79155,-0.6371,-0.03255
0.647,0.1449090909090909,-0.8112727272727273,0.48627272727272725
0.667,0.6240526315789474,-1.1508947368421052,0.22836842105263158
0.687,0.5768,-2.0494000000000008,-0.2779999999999998
0.7070000000000001,-0.7492500000000065,-0.9899999999999901,0.7390000000000091
0.7270000000000001,0.07400000000000499,-0.1374000000000034,1.3345999999999956
0.747,-0.626,-0.5434,1.0306
0.767,1.262,-1.5365000000000002,-0.8045000000000001
0.787,0.9257142857142857,-1.9017142857142857,-1.1095714285714287
0.807,0.7879999999999988,-4.101846153846156,1.164846153846157
0.8270000000000001,1.8075000000000028,-4.073999999999994,-0.030000000000020566
0.8470000000000001,1.3366249999999933,-3.457624999999999,-2.7713750000000132
0.867,0.5715,-3.3005,-3.8725
0.887,0.14554545454545453,-4.718181818181818,-2.284909090909091
0.907,0.017799999999999996,-5.831466666666667,-0.9528
0.927,0.7875714285714285,-4.824,0.4357142857142857
0.9470000000000001,1.6928181818181702,-4.271727272727277,1.0623636363636346
0.9670000000000001,-1.0445000000000109,-4.273299999999997,0.16479999999998707
0.987,-1.7867777777777776,-2.695111111111111,-3.381666666666667
1.007,-0.6565000000000001,-1.58175,-3.71575
1.027,0.2165,-1.1295000000000002,1.464
1.047,1.2758,0.678,3.3156
1.067,0.9400769230769243,2.475076923076921,1.6614615384615439
1.087,-0.22099999999999503,3.0200000000000014,1.1449999999999982
1.107,-4.30924999999997,2.131750000000006,1.1095000000000024
1.127,-5.391,1.7395,1.6875
1.147,-0.021727272727251945,1.7909999999999953,1.4118181818181745
1.167,0.6574999999999531,2.336500000000044,-1.3814999999999855
1.1869999999999998,-4.523363636363647,9.800999999999977,2.016545454545428
1.2069999999999999,-0.7140000000000291,10.21150000000001,5.084999999999984
1.2269999999999999,1.9656249999999689,8.049625000000011,9.356875000000002
1.2469999999999999,4.800999999999979,8.32399999999999,10.444999999999983
1.267,9.047,11.109000000000007,15.561999999999983
1.287,5.954000000000024,10.368999999999998,19.201999999999977
1.307,4.46699999999999,9.85150000000001,22.748999999999985
1.327,6.471999999999988,7.325375000000014,24.117187499999996
1.347,6.512500000000005,1.373000000000022,25.89631249999999
1.367,7.154000000000004,-4.308666666666637,25.91366666666669
1.387,4.668,-9.436333333333334,19.503
1.407,2.2587619047618994,-11.417380952380956,15.622047619047612
1.427,-1.4558181818181835,-14.038,9.803818181818178
1.4469999999999998,-1.7667272727272705,-14.183714285714284,8.806155844155851
1.4669999999999999,-2.077636363636361,-14.32942857142857,7.808493506493516
1.4869999999999999,-2.388545454545451,-14.475142857142856,6.81083116883118
1.507,-8.212499999999917,-12.649499999999982,-6.251499999999898
1.527,-11.333249999999998,-16.257642857142848,-9.39892857142857
1.547,-9.445222222222224,-25.17499999999999,-6.433888888888894
1.567,-9.99585714285714,-26.715,-5.042142857142859
1.587,-11.5938,-24.3358,-1.2294
1.607,-7.651333333333346,-22.770333333333337,-1.0556666666666628
1.627,-3.374,-21.6178,-3.5753999999999997
1.647,-0.2156,-19.929,-6.012
1.667,5.324,-18.080000000000002,-6.9398
1.687,15.763,-15.7928,-4.6132
1.7069999999999999,29.417799999999886,-12.788200000000042,-3.1473999999999966
1.7269999999999999,32.30666666666668,-7.949166666666678,-5.233999999999994
1.7469999999999999,30.429333333333346,-5.729833333333346,-6.365999999999993
1.767,26.442555555555558,1.5465555555555515,-8.24044444444445
1.787,26.1495,5.2935,-2.248
1.807,22.68150000000004,7.63449999999999,2.6424999999999814
1.827,16.822411764705883,8.79135294117647,4.145882352941176
1.847,6.878545454545482,9.545181818181817,4.386909090909094
1.867,0.99,9.417,3.683
1.887,-4.826687500000015,8.530249999999997,3.0076874999999985
1.907,-8.932727272727279,8.002363636363636,2.940818181818183
1.927,-11.435365853658537,8.429170731707318,3.7004146341463415
1.9469999999999998,-11.882195121951217,8.7150243902439,4.177487804878045
1.9669999999999999,-12.925799999999992,9.960999999999975,6.288599999999956
1.9869999999999999,-12.520454545454564,11.312909090909098,13.070909090909062
2.007,-7.997428571428543,9.240428571428561,19.727857142857182
2.027,-0.11566666666658354,7.303666666666655,26.746000000000045
2.047,10.917400000000042,6.448799999999998,30.0832
2.067,17.221600000000016,3.3601999999999785,26.46039999999997
2.087,23.29240000000004,-1.4878000000000164,20.237399999999973
2.107,28.233666666666675,-3.9176666666666917,13.145666666666537
2.1270000000000002,23.585599999999896,-7.310600000000085,6.996599999999901
2.1470000000000002,20.25433333333333,-8.348666666666592,3.021888888888835
2.1670000000000003,20.83800000000002,-7.0565000000000655,0.49249999999988736
2.1870000000000003,14.837199999999788,-11.076000000000066,-2.293000000000048
2.2070000000000003,2.7063999999998507,-14.497200000000065,-3.951200000000014
2.2270000000000003,-7.880200000000192,-18.650800000000057,-5.53580000000003
2.2470000000000003,-11.065199999999948,-21.96400000000005,-5.01399999999997
2.2670000000000003,-7.530199999999969,-24.541800000000045,-4.190599999999994
2.2870000000000004,-7.794000000000036,-25.943000000000012,-4.732000000000044
2.3070000000000004,-10.521777777777842,-25.587111111111074,-8.44555555555567
2.3270000000000004,-11.716181818181807,-23.952818181818156,-12.328000000000046
2.347,-7.71933333333335,-22.42777777777778,-13.632666666666667
2.367,-0.10609090909092567,-21.57536363636364,-12.13236363636364
2.387,10.76520000000005,-18.312199999999983,-7.296599999999973
2.407,19.558500000000002,-13.3935,-3.146
2.427,24.037666666666663,-9.196888888888896,-1.5741111111111135
2.447,23.932999999999996,-4.086199999999964,0.8230000000000138
2.467,26.75007692307694,1.643230769230771,2.065230769230768
2.487,29.62072727272729,3.7589090909091345,0.141454545454534
2.507,29.192545454545407,8.287181818181853,-0.5909999999999924
2.527,22.02999999999995,9.793600000000003,-0.023599999999996596
2.547,10.837,10.017,1.056
2.567,3.3031111111110656,8.062666666666644,1.995222222222228
2.587,-1.7120909090909453,5.315909090909073,2.6709090909090962
2.607,-6.333222222222236,3.5891111111111083,3.355222222222224
2.6270000000000002,-10.774500000000032,3.0739999999999985,3.674000000000001
2.6470000000000002,-13.7314444444445,4.152444444444476,4.117333333333345
2.6670000000000003,-16.130000000000017,6.976000000000043,5.094000000000009
2.6870000000000003,-16.822181818181814,11.246454545454574,5.558090909090908
2.7070000000000003,-13.501181818181744,13.80609090909093,5.816363636363654
2.7270000000000003,-6.619999999999797,15.161500000000027,9.294500000000143
2.7470000000000003,0.8762222222223766,14.206333333333262,16.213666666666835
2.7670000000000003,4.56600000000002,9.535499999999862,21.911000000000076
2.7870000000000004,9.293500000000178,5.776499999999973,22.98100000000003
2.8070000000000004,15.462000000000193,5.186999999999978,24.785000000000053
2.8270000000000004,22.32454545454555,2.0419999999999137,23.19227272727263
2.847,21.248,-3.9130000000000003,16.009
2.867,15.30800000000001,-7.999444444444445,9.866777777777791
2.887,16.681600000000017,-7.398600000000004,3.71859999999997
2.907,14.882199999999969,-10.114600000000014,-2.2118000000000206
2.927,4.696999999999887,-12.07350000000001,-4.232
2.947,-4.711818181818219,-13.778454545454563,-3.3455454545454457
2.967,-6.7023999999999955,-17.005400000000012,-1.3827999999999945
2.987,-5.537666666666667,-20.2981111111111,-0.9961111111111117
3.007,-6.161555555555571,-22.28600000000001,-1.445333333333344
3.027,-8.102600000000008,-23.111800000000002,-3.232000000000009
3.047,-7.900399999999991,-23.7952,-5.723600000000013
3.067,-5.207499999999968,-22.812999999999978,-8.568500000000027
3.087,-4.189777777777778,-21.076888888888885,-9.898999999999997
3.107,-1.686727272727205,-19.14490909090907,-8.469818181818155
3.1270000000000002,5.2516666666667815,-17.292666666666634,-5.100999999999932
3.1470000000000002,10.778636363636398,-14.155090909090884,-0.6118181818181399
3.1670000000000003,17.9560000000002,-10.102199999999867,4.95600000000009
3.1870000000000003,29.764500000000112,0.6450000000001097,7.808000000000002
3.2070000000000003,37.92300000000006,4.257,5.157499999999944
3.2270000000000003,36.30999999999987,7.594333333333404,1.2379999999999765
3.2470000000000003,25.12527272727254,9.495272727272736,0.802999999999996
3.2670000000000003,12.422545454545325,9.398272727272714,0.28909090909090257
3.2870000000000004,4.267454545454461,7.892818181818161,0.029909090909090393
3.3070000000000004,-1.237000000000094,6.330999999999965,0.2195000000000091
3.3270000000000004,-4.976600000000064,4.550399999999965,0.5221999999999992
3.3470000000000004,-6.983909090909301,4.513636363636228,-0.39100000000001295
3.367,-13.4265,2.4055,-0.014000000000000012
3.387,-16.15472727272728,4.5695454545454695,2.2455454545454723
3.407,-16.404333333333334,6.807888888888897,4.34233333333334
3.427,-15.5605,9.523,6.353
3.447,-11.675399999999977,10.5206,8.947200000000015
3.467,-5.0445454545454025,10.131545454545448,13.694181818181862
3.487,1.297,9.0085,19.334000000000003
3.507,9.578666666666745,7.34733333333332,21.20466666666666
3.527,18.409500000000072,5.697499999999972,20.19999999999999
3.547,21.99218181818185,2.3675454545454255,17.120181818181738
3.567,17.781272727272714,-1.619636363636371,11.560090909090903
3.587,11.908999999999907,-4.626250000000027,7.677249999999915
3.607,12.947666666666741,-3.164333333333319,3.2356666666665923
3.6270000000000002,14.187499999999966,-5.78500000000005,-0.812000000000042
3.6470000000000002,6.499399999999819,-9.46040000000005,-2.749400000000005
3.6670000000000003,-2.8049090909091516,-12.106454545454563,-2.4746363636363595
3.6870000000000003,-8.645000000000028,-14.447500000000026,-1.2729999999999735
3.7070000000000003,-9.321363636363621,-18.00345454545461,-0.024090909090889956
3.7270000000000003,-7.0983999999999625,-21.611400000000053,0.3497999999999997
3.7470000000000003,-7.309555555555605,-23.439777777777792,-0.8790000000000506
3.7670000000000003,-10.607888888888972,-22.871888888888872,-4.014222222222298
3.7870000000000004,-12.539299999999987,-21.402699999999964,-7.862100000000076
3.8070000000000004,-8.440222222222074,-19.793444444444404,-10.771666666666718
3.8270000000000004,-0.5919999999997834,-17.506999999999927,-10.306499999999925
3.8470000000000004,9.483416666666812,-13.98091666666662,-6.287416666666609
3.867,16.746099999999995,-10.499400000000005,-3.592900000000001
3.887,17.800299999999996,-7.239100000000009,-3.9449000000000005
3.907,21.509,-0.8500000000000001,-2.255
3.927,27.73639999999999,2.031900000000003,2.031699999999993
3.947,31.682299999999994,4.020599999999989,2.6507999999999985
3.967,29.84294326404043,6.677603767083955,3.2356317905133802
3.987,29.83135258987022,6.679328815895256,3.234579763408752
4.007,29.819761915700013,6.681053864706557,3.2335277363041235
4.027,29.808171241529806,6.682778913517859,3.2324757091994947
4.047000000000001,29.796580567359598,6.68450396232916,3.2314236820948663
4.067,29.78498989318939,6.686229011140461,3.230371654990238
4.087000000000001,29.77339921901918,6.687954059951762,3.2293196278856096
4.107,29.76180854484897,6.689679108763064,3.228267600780981
4.127,29.750217870678764,6.6914041575743655,3.2272155736763524
4.147,29.738627196508556,6.693129206385667,3.226163546571724
4.167,29.72703652233835,6.694854255196968,3.2251115194670956
4.187,29.71544584816814,6.696579304008269,3.2240594923624672
4.207,29.703855173997933,6.69830435281957,3.223007465257839
4.227,29.692264499827726,6.7000294016308715,3.22195543815321
4.247,29.680673825657518,6.701754450442173,3.2209034110485817
4.267,29.66908315148731,6.703479499253474,3.2198513839439533
4.287,29.657492477317103,6.705204548064775,3.218799356839325
4.307,29.645901803146895,6.706929596876076,3.2177473297346966
4.327,29.634311128976687,6.7086546456873775,3.2166953026300678
4.347,29.62272045480648,6.710379694498679,3.2156432755254394
4.367,29.611129780636272,6.71210474330998,3.214591248420811
4.3870000000000005,29.599539106466064,6.713829792121281,3.2135392213161826
4.407,29.587948432295857,6.715554840932582,3.2124871942115543
4.4270000000000005,29.576357758125646,6.7172798897438835,3.2114351671069254
4.447,29.564767083955438,6.7190049385551855,3.210383140002297
4.4670000000000005,29.55317640978523,6.720729987366487,3.2093311128976687
4.487,29.541585735615023,6.722455036177788,3.2082790857930403
4.507000000000001,29.529995061444815,6.724180084989089,3.207227058688412
4.527,29.518404387274607,6.72590513380039,3.206175031583783
4.547000000000001,29.5068137131044,6.7276301826116915,3.2051230044791548
4.567,29.495223038934192,6.729355231422993,3.2040709773745264
4.587000000000001,29.483632364763984,6.731080280234294,3.203018950269898
4.607,29.472041690593777,6.732805329045595,3.2019669231652697
4.627000000000001,29.46045101642357,6.734530377856896,3.200914896060641
4.647,29.44886034225336,6.7362554266681975,3.1998628689560125
4.667,29.437269668083154,6.737980475479499,3.198810841851384
4.687,29.425678993912946,6.7397055242908,3.1977588147467557
4.707,29.41408831974274,6.741430573102101,3.1967067876421273
4.727,29.402497645572527,6.743155621913402,3.1956547605374985
4.747,29.39090697140232,6.7448806707247035,3.19460273343287
4.767,29.379316297232112,6.746605719536005,3.193550706328242
4.787,29.367725623061904,6.748330768347307,3.1924986792236134
4.807,29.356134948891697,6.750055817158608,3.191446652118985
4.827,29.34454427472149,6.751780865969909,3.1903946250143567
4.847,29.33295360055128,6.75350591478121,3.189342597909728
4.867,29.321362926381074,6.755230963592512,3.1882905708050995
4.8870000000000005,29.309772252210866,6.756956012403813,3.187238543700471
4.907,29.29818157804066,6.758681061215114,3.1861865165958427
4.9270000000000005,29.28659090387045,6.760406110026415,3.185134489491214
4.947,29.275000229700243,6.762131158837716,3.1840824623865855
4.9670000000000005,29.263409555530036,6.763856207649018,3.183030435281957
4.987,29.251818881359828,6.765581256460319,3.181978408177329
5.007000000000001,29.240228207189617,6.76730630527162,3.1809263810727004
5.027,29.22863753301941,6.769031354082921,3.179874353968072
5.047000000000001,29.2170468588492,6.770756402894222,3.1788223268634432
5.067,29.205456184678994,6.772481451705524,3.177770299758815
5.087000000000001,29.193865510508786,6.774206500516825,3.1767182726541865
5.107,29.18227483633858,6.775931549328126,3.175666245549558
5.127000000000001,29.17068416216837,6.777656598139428,3.1746142184449297
5.147,29.159093487998163,6.779381646950729,3.173562191340301
5.167,29.147502813827955,6.7811066957620305,3.1725101642356726
5.187,29.135912139657748,6.782831744573332,3.171458137131044
5.207,29.12432146548754,6.784556793384633,3.170406110026416
5.227,29.112730791317333,6.786281842195934,3.1693540829217874
5.247,29.101140117147125,6.788006891007235,3.1683020558171586
5.267,29.089549442976917,6.7897319398185365,3.1672500287125303
5.287,29.07795876880671,6.791456988629838,3.166198001607902
5.307,29.0663680946365,6.793182037441139,3.1651459745032735
5.327,29.05477742046629,6.79490708625244,3.164093947398645
5.347,29.043186746296083,6.796632135063741,3.1630419202940163
5.367,29.031596072125875,6.7983571838750425,3.161989893189388
5.3870000000000005,29.020005397955668,6.800082232686344,3.1609378660847596
5.407,29.00841472378546,6.801807281497645,3.159885838980131
5.4270000000000005,28.996824049615253,6.803532330308946,3.158833811875503
5.447,28.985233375445045,6.805257379120247,3.157781784770874
5.4670000000000005,28.973642701274837,6.806982427931549,3.1567297576662456
5.487,28.96205202710463,6.808707476742851,3.1556777305616173
5.507000000000001,28.950461352934422,6.810432525554152,3.154625703456989
5.527,28.938870678764214,6.812157574365453,3.1535736763523605
5.547000000000001,28.927280004594007,6.813882623176754,3.1525216492477317
5.567,28.9156893304238,6.815607671988055,3.1514696221431033
5.587000000000001,28.904098656253588,6.817332720799357,3.150417595038475
5.607,28.89250798208338,6.819057769610658,3.1493655679338466
5.627000000000001,28.880917307913172,6.820782818421959,3.148313540829218
5.647,28.869326633742965,6.82250786723326,3.1472615137245894
5.667,28.857735959572757,6.824232916044561,3.146209486619961
5.687,28.84614528540255,6.825957964855863,3.1451574595153327
5.707,28.834554611232342,6.827683013667164,3.1441054324107043
5.727,28.822963937062134,6.829408062478465,3.143053405306076
5.747,28.811373262891927,6.831133111289766,3.142001378201447
5.767,28.79978258872172,6.832858160101067,3.1409493510968187
5.787,28.78819191455151,6.834583208912369,3.1398973239921903
5.807,28.776601240381304,6.836308257723671,3.138845296887562
5.827,28.765010566211096,6.838033306534972,3.1377932697829336
5.847,28.75341989204089,6.839758355346273,3.136741242678305
5.867,28.74182921787068,6.841483404157574,3.1356892155736764
5.8870000000000005,28.730238543700473,6.8432084529688755,3.134637188469048
5.907,28.718647869530265,6.844933501780177,3.1335851613644197
5.9270000000000005,28.707057195360054,6.846658550591478,3.1325331342597913
5.947,28.695466521189847,6.848383599402779,3.1314811071551625
5.9670000000000005,28.68387584701964,6.85010864821408,3.130429080050534
5.987,28.67228517284943,6.8518336970253815,3.1293770529459057
6.007000000000001,28.660694498679224,6.853558745836683,3.1283250258412774
6.027,28.649103824509016,6.855283794647984,3.127272998736649
6.047000000000001,28.63751315033881,6.857008843459285,3.12622097163202
6.067,28.6259224761686,6.858733892270586,3.125168944527392
6.087000000000001,28.614331801998393,6.8604589410818875,3.1241169174227634
6.107,28.602741127828185,6.862183989893189,3.123064890318135
6.127000000000001,28.591150453657978,6.863909038704491,3.1220128632135067
6.147,28.57955977948777,6.865634087515792,3.120960836108878
6.167000000000001,28.567969105317562,6.867359136327093,3.1199088090042495
6.187,28.556378431147355,6.869084185138394,3.118856781899621
6.207,28.544787756977147,6.870809233949696,3.1178047547949927
6.227,28.533197082806936,6.872534282760997,3.1167527276903644
6.247,28.52160640863673,6.874259331572298,3.115700700585736
6.267,28.51001573446652,6.875984380383599,3.114648673481107
6.287,28.498425060296313,6.8777094291949,3.113596646376479
6.307,28.486834386126105,6.879434478006202,3.1125446192718504
6.327,28.475243711955898,6.881159526817503,3.111492592167222
6.347,28.46365303778569,6.882884575628804,3.1104405650625937
6.367,28.452062363615482,6.884609624440105,3.109388537957965
6.3870000000000005,28.440471689445275,6.886334673251406,3.1083365108533365
6.407,28.428881015275067,6.888059722062708,3.107284483748708
6.4270000000000005,28.41729034110486,6.889784770874009,3.1062324566440798
6.447,28.40569966693465,6.89150981968531,3.105180429539451
6.4670000000000005,28.394108992764444,6.893234868496612,3.1041284024348226
6.487,28.382518318594236,6.894959917307913,3.103076375330194
6.507000000000001,28.370927644424025,6.896684966119214,3.102024348225566
6.527,28.35933697025382,6.898410014930516,3.1009723211209375
6.547000000000001,28.34774629608361,6.900135063741817,3.099920294016309
6.567,28.336155621913402,6.901860112553118,3.0988682669116803
6.587000000000001,28.324564947743195,6.903585161364419,3.097816239807052
6.607,28.312974273572987,6.90531021017572,3.0967642127024235
6.627000000000001,28.30138359940278,6.907035258987022,3.095712185597795
6.647,28.28979292523257,6.908760307798323,3.094660158493167
6.667000000000001,28.278202251062364,6.910485356609624,3.093608131388538
6.687,28.266611576892156,6.912210405420925,3.0925561042839096
6.707,28.25502090272195,6.913935454232226,3.091504077179281
6.727,28.24343022855174,6.915660503043528,3.090452050074653
6.747,28.231839554381533,6.917385551854829,3.0894000229700245
6.767,28.220248880211326,6.91911060066613,3.0883479958653957
6.787,28.208658206041118,6.920835649477431,3.0872959687607673
6.807,28.197067531870907,6.922560698288733,3.086243941656139
6.827,28.1854768577007,6.9242857471000345,3.0851919145515105
6.847,28.17388618353049,6.926010795911336,3.084139887446882
6.867,28.162295509360284,6.927735844722637,3.0830878603422534
6.8870000000000005,28.150704835190076,6.929460893533938,3.082035833237625
6.907,28.13911416101987,6.931185942345239,3.0809838061329966
6.9270000000000005,28.12752348684966,6.9329109911565405,3.0799317790283682
6.947,28.115932812679453,6.934636039967842,3.07887975192374
6.9670000000000005,28.104342138509246,6.936361088779143,3.077827724819111
6.987,28.092751464339038,6.938086137590444,3.0767756977144827
7.007000000000001,28.08116079016883,6.939811186401745,3.0757236706098543
7.027,28.069570115998623,6.9415362352130465,3.074671643505226
7.047000000000001,28.057979441828415,6.943261284024348,3.0736196164005976
7.067,28.046388767658208,6.944986332835649,3.0725675892959687
7.087000000000001,28.034798093488,6.94671138164695,3.0715155621913404
7.107,28.023207419317792,6.948436430458251,3.070463535086712
7.127000000000001,28.01161674514758,6.950161479269553,3.0694115079820836
7.147,28.000026070977373,6.951886528080855,3.0683594808774552
7.167000000000001,27.988435396807166,6.953611576892156,3.0673074537728264
7.187,27.976844722636958,6.955336625703457,3.066255426668198
7.207,27.96525404846675,6.957061674514758,3.0652033995635697
7.227,27.953663374296543,6.958786723326059,3.0641513724589413
7.247,27.942072700126335,6.960511772137361,3.063099345354313
7.267,27.930482025956128,6.962236820948662,3.062047318249684
7.287,27.91889135178592,6.963961869759963,3.0609952911450558
7.307,27.907300677615712,6.965686918571264,3.0599432640404274
7.327,27.895710003445505,6.967411967382565,3.058891236935799
7.347,27.884119329275297,6.969137016193867,3.0578392098311706
7.367,27.87252865510509,6.970862065005168,3.056787182726542
7.3870000000000005,27.86093798093488,6.972587113816469,3.0557351556219134
7.407,27.849347306764674,6.97431216262777,3.054683128517285
7.4270000000000005,27.837756632594463,6.976037211439071,3.0536311014126567
7.447,27.826165958424255,6.977762260250373,3.0525790743080283
7.4670000000000005,27.814575284254047,6.979487309061675,3.0515270472033995
7.487,27.80298461008384,6.981212357872976,3.050475020098771
7.507000000000001,27.791393935913632,6.982937406684277,3.0494229929941428
7.527,27.779803261743425,6.984662455495578,3.0483709658895144
7.547000000000001,27.768212587573217,6.9863875043068795,3.047318938784886
7.567,27.75662191340301,6.988112553118181,3.046266911680257
7.587000000000001,27.7450312392328,6.989837601929482,3.045214884575629
7.607,27.733440565062594,6.991562650740783,3.0441628574710005
7.627000000000001,27.721849890892386,6.993287699552084,3.043110830366372
7.647,27.71025921672218,6.9950127483633855,3.0420588032617437
7.667000000000001,27.69866854255197,6.996737797174687,3.041006776157115
7.687,27.687077868381763,6.998462845985988,3.0399547490524865
7.707,27.675487194211556,7.000187894797289,3.038902721947858
7.727,27.663896520041348,7.00191294360859,3.03785069484323
7.747,27.65230584587114,7.0036379924198915,3.0367986677386014
7.767,27.64071517170093,7.005363041231193,3.0357466406339726
7.787,27.62912449753072,7.007088090042494,3.034694613529344
7.807,27.617533823360514,7.008813138853796,3.033642586424716
7.827,27.605943149190306,7.010538187665096,3.0325905593200875
7.847,27.5943524750201,7.012263236476398,3.031538532215459
7.867,27.58276180084989,7.0139882852877,3.0304865051108303
7.8870000000000005,27.571171126679683,7.015713334099001,3.029434478006202
7.907,27.559580452509476,7.017438382910302,3.0283824509015735
7.9270000000000005,27.547989778339268,7.019163431721603,3.027330423796945
7.947,27.53639910416906,7.020888480532904,3.026278396692317
7.9670000000000005,27.524808429998853,7.022613529344206,3.025226369587688
7.987,27.513217755828645,7.024338578155507,3.0241743424830596
8.007,27.501627081658437,7.026063626966808,3.0231223153784312
8.027,27.49003640748823,7.027788675778109,3.022070288273803
8.046999999999999,27.478445733318022,7.02951372458941,3.0210182611691745
8.067,27.46685505914781,7.031238773400712,3.0199662340645457
8.087,27.455264384977603,7.032963822212013,3.0189142069599173
8.107,27.443673710807396,7.034688871023314,3.017862179855289
8.126999999999999,27.432083036637188,7.036413919834615,3.0168101527506606
8.147,27.42049236246698,7.038138968645917,3.015758125646032
8.167,27.408901688296773,7.039864017457218,3.014706098541404
8.187,27.397311014126565,7.04158906626852,3.013654071436775
8.206999999999999,27.385720339956357,7.043314115079821,3.0126020443321466
8.226999999999999,27.37412966578615,7.045039163891122,3.0115500172275182
8.247,27.362538991615942,7.046764212702423,3.01049799012289
8.267,27.350948317445734,7.0484892615137245,3.0094459630182615
8.286999999999999,27.339357643275527,7.050214310325026,3.0083939359136327
8.306999999999999,27.32776696910532,7.051939359136327,3.0073419088090043
8.327,27.31617629493511,7.053664407947628,3.006289881704376
8.347,27.304585620764904,7.055389456758929,3.0052378545997476
8.366999999999999,27.292994946594696,7.0571145055702305,3.004185827495119
8.386999999999999,27.28140427242449,7.058839554381532,3.003133800390491
8.407,27.269813598254277,7.060564603192833,3.002081773285862
8.427,27.25822292408407,7.062289652004134,3.0010297461812336
8.447,27.246632249913862,7.064014700815435,2.9999777190766053
8.466999999999999,27.235041575743654,7.0657397496267365,2.998925691971977
8.487,27.223450901573447,7.0674647984380385,2.997873664867348
8.507,27.21186022740324,7.069189847249339,2.9968216377627197
8.527,27.20026955323303,7.070914896060641,2.9957696106580913
8.546999999999999,27.188678879062824,7.072639944871942,2.994717583553463
8.567,27.177088204892616,7.074364993683243,2.9936655564488346
8.587,27.16549753072241,7.0760900424945445,2.9926135293442058
8.607,27.1539068565522,7.077815091305846,2.9915615022395774
8.626999999999999,27.142316182381993,7.079540140117147,2.990509475134949
8.647,27.130725508211782,7.081265188928448,2.9894574480303207
8.667,27.119134834041574,7.082990237739749,2.9884054209256923
8.687,27.107544159871367,7.0847152865510505,2.9873533938210635
8.706999999999999,27.09595348570116,7.086440335362352,2.986301366716435
8.727,27.08436281153095,7.088165384173653,2.9852493396118067
8.747,27.072772137360744,7.089890432984954,2.9841973125071783
8.767,27.061181463190536,7.091615481796255,2.98314528540255
8.786999999999999,27.04959078902033,7.0933405306075565,2.9820932582979216
8.806999999999999,27.03800011485012,7.095065579418858,2.981041231193293
8.827,27.026409440679913,7.09679062823016,2.9799892040886644
8.847,27.014818766509705,7.09851567704146,2.978937176984036
8.866999999999999,27.003228092339498,7.100240725852762,2.9778851498794077
8.886999999999999,26.99163741816929,7.101965774664063,2.9768331227747793
8.907,26.980046743999083,7.103690823475365,2.9757810956701505
8.927,26.968456069828875,7.105415872286666,2.974729068565522
8.947,26.956865395658667,7.107140921097967,2.9736770414608937
8.966999999999999,26.94527472148846,7.108865969909268,2.9726250143562654
8.987,26.93368404731825,7.110591018720569,2.971572987251637
9.007,26.92209337314804,7.112316067531871,2.970520960147008
9.027,26.910502698977833,7.114041116343172,2.96946893304238
9.046999999999999,26.898912024807625,7.115766165154473,2.9684169059377514
9.067,26.887321350637418,7.117491213965774,2.967364878833123
9.087,26.87573067646721,7.119216262777075,2.9663128517284942
9.107,26.864140002297002,7.120941311588377,2.965260824623866
9.126999999999999,26.852549328126795,7.122666360399678,2.9642087975192375
9.147,26.840958653956587,7.124391409210979,2.963156770414609
9.167,26.82936797978638,7.126116458022281,2.9621047433099807
9.187,26.817777305616172,7.127841506833581,2.9610527162053524
9.206999999999999,26.806186631445964,7.1295665556448835,2.9600006891007236
9.227,26.794595957275753,7.131291604456185,2.958948661996095
9.247,26.783005283105545,7.133016653267486,2.957896634891467
9.267,26.771414608935338,7.134741702078787,2.9568446077868384
9.286999999999999,26.75982393476513,7.136466750890088,2.95579258068221
9.306999999999999,26.748233260594922,7.1381917997013895,2.9547405535775813
9.327,26.736642586424715,7.139916848512691,2.953688526472953
9.347,26.725051912254507,7.141641897323992,2.9526364993683245
9.366999999999999,26.7134612380843,7.143366946135293,2.951584472263696
9.386999999999999,26.701870563914092,7.145091994946594,2.9505324451590678
9.407,26.690279889743884,7.1468170437578955,2.949480418054439
9.427,26.678689215573677,7.148542092569197,2.9484283909498106
9.447,26.66709854140347,7.150267141380498,2.947376363845182
9.466999999999999,26.65550786723326,7.151992190191799,2.946324336740554
9.487,26.643917193063054,7.1537172390031,2.945272309635925
9.507,26.632326518892846,7.155442287814402,2.9442202825312966
9.527,26.62073584472264,7.157167336625703,2.9431682554266683
9.546999999999999,26.60914517055243,7.158892385437005,2.94211622832204
9.567,26.59755449638222,7.160617434248306,2.9410642012174115
9.587,26.585963822212012,7.162342483059607,2.940012174112783
9.607,26.574373148041804,7.164067531870908,2.9389601470081543
9.626999999999999,26.562782473871597,7.16579258068221,2.937908119903526
9.647,26.55119179970139,7.167517629493511,2.9368560927988976
9.667,26.53960112553118,7.169242678304812,2.935804065694269
9.687,26.528010451360974,7.170967727116113,2.934752038589641
9.706999999999999,26.516419777190766,7.172692775927414,2.933700011485012
9.727,26.50482910302056,7.174417824738716,2.9326479843803837
9.747,26.49323842885035,7.176142873550017,2.9315959572757553
9.767,26.481647754680143,7.177867922361318,2.930543930171127
9.786999999999999,26.470057080509935,7.179592971172619,2.9294919030664985
9.806999999999999,26.458466406339728,7.18131801998392,2.92843987596187
9.827,26.44687573216952,7.183043068795222,2.9273878488572413
9.847,26.435285057999312,7.184768117606524,2.926335821752613
9.866999999999999,26.423694383829105,7.186493166417824,2.9252837946479846
9.886999999999999,26.412103709658897,7.188218215229126,2.9242317675433562
9.907,26.400513035488686,7.189943264040427,2.9231797404387274
9.927,26.38892236131848,7.1916683128517285,2.922127713334099
9.947,26.37733168714827,7.19339336166303,2.9210756862294707
9.966999999999999,26.365741012978063,7.195118410474331,2.9200236591248423
9.987,26.354150338807855,7.196843459285632,2.918971632020214
10.007,26.342559664637648,7.198568508096933,2.917919604915585
10.027,26.33096899046744,7.2002935569082345,2.9168675778109567
10.046999999999999,26.319378316297232,7.202018605719536,2.9158155507063284
10.067,26.307787642127025,7.203743654530837,2.9147635236017
10.087,26.296196967956817,7.205468703342138,2.9137114964970716
10.107,26.28460629378661,7.207193752153439,2.912659469392443
10.126999999999999,26.2730156196164,7.2089188009647405,2.9116074422878144
10.147,26.261424945446194,7.210643849776043,2.910555415183186
10.167,26.249834271275986,7.212368898587343,2.9095033880785577
10.187,26.23824359710578,7.214093947398645,2.9084513609739293
10.206999999999999,26.22665292293557,7.215818996209945,2.907399333869301
10.227,26.21506224876536,7.217544045021247,2.906347306764672
10.247,26.203471574595152,7.219269093832549,2.9052952796600438
10.267,26.191880900424945,7.22099414264385,2.9042432525554154
10.286999999999999,26.180290226254737,7.222719191455151,2.903191225450787
10.306999999999999,26.16869955208453,7.224444240266452,2.9021391983461586
10.327,26.15710887791432,7.226169289077753,2.90108717124153
10.347,26.145518203744114,7.2278943378890546,2.9000351441369014
10.366999999999999,26.133927529573906,7.229619386700356,2.898983117032273
10.386999999999999,26.1223368554037,7.231344435511657,2.8979310899276447
10.407,26.11074618123349,7.233069484322958,2.896879062823016
10.427,26.099155507063283,7.234794533134259,2.8958270357183875
10.447,26.087564832893076,7.2365195819455606,2.894775008613759
10.466999999999999,26.075974158722868,7.238244630756862,2.8937229815091308
10.487,26.064383484552657,7.239969679568164,2.8926709544045024
10.507,26.05279281038245,7.241694728379464,2.8916189272998736
10.527,26.04120213621224,7.243419777190766,2.890566900195245
10.546999999999999,26.029611462042034,7.2451448260020666,2.889514873090617
10.567,26.018020787871826,7.246869874813369,2.8884628459859885
10.587,26.00643011370162,7.24859492362467,2.88741081888136
10.607,25.99483943953141,7.250319972435971,2.8863587917767317
10.626999999999999,25.983248765361203,7.252045021247272,2.885306764672103
10.647,25.971658091190996,7.253770070058573,2.8842547375674745
10.667,25.960067417020788,7.255495118869875,2.883202710462846
10.687,25.94847674285058,7.257220167681176,2.882150683358218
10.706999999999999,25.936886068680373,7.258945216492477,2.8810986562535894
10.727,25.925295394510165,7.260670265303778,2.8800466291489606
10.747,25.913704720339958,7.262395314115079,2.878994602044332
10.767,25.90211404616975,7.264120362926381,2.877942574939704
10.786999999999999,25.890523371999542,7.265845411737682,2.8768905478350755
10.806999999999999,25.878932697829335,7.267570460548983,2.875838520730447
10.827,25.867342023659123,7.269295509360284,2.8747864936258183
10.847,25.855751349488916,7.271020558171585,2.87373446652119
10.866999999999999,25.844160675318708,7.2727456069828875,2.8726824394165615
10.886999999999999,25.8325700011485,7.274470655794188,2.871630412311933
10.907,25.820979326978293,7.27619570460549,2.8705783852073044
10.927,25.809388652808085,7.277920753416791,2.869526358102676
10.947,25.797797978637877,7.279645802228092,2.8684743309980476
10.966999999999999,25.78620730446767,7.2813708510393935,2.8674223038934192
10.987,25.774616630297462,7.283095899850695,2.866370276788791
11.007,25.763025956127255,7.284820948661996,2.8653182496841625
11.027,25.751435281957047,7.286545997473297,2.8642662225795337
11.046999999999999,25.73984460778684,7.288271046284598,2.8632141954749053
11.067,25.728253933616628,7.2899960950958995,2.862162168370277
11.087,25.71666325944642,7.291721143907201,2.8611101412656486
11.107,25.705072585276213,7.293446192718502,2.86005811416102
11.126999999999999,25.693481911106005,7.295171241529803,2.8590060870563914
11.147,25.681891236935797,7.296896290341104,2.857954059951763
11.167,25.67030056276559,7.2986213391524055,2.8569020328471346
11.187,25.658709888595382,7.300346387963707,2.8558500057425062
11.206999999999999,25.647119214425175,7.302071436775009,2.854797978637878
11.227,25.635528540254967,7.30379648558631,2.853745951533249
11.247,25.62393786608476,7.305521534397611,2.8526939244286207
11.267,25.61234719191455,7.307246583208912,2.8516418973239923
11.286999999999999,25.600756517744344,7.308971632020214,2.850589870219364
11.306999999999999,25.589165843574136,7.310696680831515,2.8495378431147356
11.327,25.57757516940393,7.312421729642816,2.8484858160101068
11.347,25.56598449523372,7.314146778454117,2.8474337889054784
11.366999999999999,25.554393821063513,7.315871827265418,2.84638176180085
11.386999999999999,25.542803146893306,7.31759687607672,2.8453297346962216
11.407,25.531212472723094,7.319321924888021,2.8442777075915933
11.427,25.519621798552887,7.321046973699322,2.8432256804869644
11.447,25.50803112438268,7.322772022510623,2.842173653382336
11.466999999999999,25.49644045021247,7.324497071321924,2.8411216262777077
11.487,25.484849776042264,7.326222120133226,2.8400695991730793
11.507,25.473259101872056,7.327947168944527,2.839017572068451
11.527,25.46166842770185,7.329672217755828,2.837965544963822
11.546999999999999,25.45007775353164,7.33139726656713,2.8369135178591938
11.567,25.438487079361433,7.333122315378431,2.8358614907545654
11.587,25.426896405191226,7.3348473641897325,2.834809463649937
11.607,25.415305731021018,7.336572413001034,2.8337574365453087
11.626999999999999,25.40371505685081,7.338297461812335,2.8327054094406803
11.647,25.3921243826806,7.340022510623636,2.8316533823360515
11.667,25.38053370851039,7.341747559434937,2.830601355231423
11.687,25.368943034340184,7.3434726082462385,2.8295493281267947
11.706999999999999,25.357352360169976,7.34519765705754,2.8284973010221663
11.727,25.34576168599977,7.346922705868841,2.8274452739175375
11.747,25.33417101182956,7.348647754680142,2.826393246812909
11.767,25.322580337659353,7.350372803491443,2.825341219708281
11.786999999999999,25.310989663489146,7.3520978523027445,2.8242891926036524
11.806999999999999,25.299398989318938,7.353822901114046,2.823237165499024
11.827,25.28780831514873,7.355547949925347,2.822185138394395
11.847,25.276217640978523,7.357272998736648,2.821133111289767
11.866999999999999,25.264626966808315,7.358998047547949,2.8200810841851385
11.886999999999999,25.253036292638107,7.360723096359251,2.81902905708051
11.907,25.2414456184679,7.362448145170553,2.8179770299758817
11.927,25.229854944297692,7.364173193981854,2.816925002871253
11.947,25.218264270127484,7.365898242793155,2.8158729757666245
11.966999999999999,25.206673595957277,7.367623291604456,2.814820948661996
11.987,25.195082921787066,7.369348340415757,2.813768921557368
12.007,25.183492247616858,7.371073389227059,2.8127168944527394
12.027,25.17190157344665,7.37279843803836,2.8116648673481106
12.046999999999999,25.160310899276443,7.374523486849661,2.8106128402434822
12.067,25.148720225106235,7.376248535660962,2.809560813138854
12.087,25.137129550936027,7.377973584472263,2.8085087860342255
12.107,25.12553887676582,7.379698633283565,2.807456758929597
12.126999999999999,25.113948202595612,7.381423682094866,2.8064047318249687
12.147,25.102357528425404,7.383148730906168,2.80535270472034
12.167,25.090766854255197,7.384873779717468,2.8043006776157116
12.187,25.07917618008499,7.38659882852877,2.803248650511083
12.206999999999999,25.06758550591478,7.388323877340071,2.802196623406455
12.227,25.055994831744574,7.390048926151373,2.8011445963018264
12.247,25.044404157574366,7.391773974962673,2.8000925691971976
12.267,25.03281348340416,7.393499023773975,2.7990405420925693
12.286999999999999,25.02122280923395,7.395224072585276,2.797988514987941
12.307,25.00963213506374,7.3969491213965775,2.796936487883312
12.327,24.998041460893532,7.398674170207879,2.7958844607786837
12.347,24.986450786723324,7.40039921901918,2.7948324336740553
12.366999999999999,24.974860112553117,7.402124267830481,2.793780406569427
12.386999999999999,24.96326943838291,7.403849316641782,2.7927283794647986
12.407,24.9516787642127,7.4055743654530835,2.79167635236017
12.427,24.940088090042494,7.407299414264385,2.790624325255542
12.447,24.928497415872286,7.409024463075686,2.7895722981509135
12.466999999999999,24.91690674170208,7.410749511886987,2.7885202710462846
12.487,24.90531606753187,7.412474560698289,2.7874682439416563
12.507,24.893725393361663,7.4141996095095895,2.786416216837028
12.527,24.882134719191455,7.4159246583208915,2.785364189732399
12.546999999999999,24.870544045021248,7.417649707132192,2.7843121626277707
12.567,24.85895337085104,7.419374755943494,2.7832601355231423
12.587,24.847362696680833,7.421099804754794,2.782208108418514
12.607,24.835772022510625,7.422824853566096,2.7811560813138856
12.626999999999999,24.824181348340417,7.4245499023773975,2.780104054209257
12.647,24.812590674170206,7.426274951188699,2.7790520271046284
12.667,24.801,7.428,2.778
12.687,-6.998200000000128,-15.758200000000047,-10.068399999999988
12.706999999999999,0.6167999999998575,-13.347400000000029,-8.866200000000058
12.727,7.71075000000016,-13.41350000000009,-4.781499999999864
12.747,11.74720000000007,-16.21599999999997,1.064400000000153
12.767,18.031100000000087,-10.632099999999927,8.626100000000042
12.786999999999999,29.31299999999974,-4.708666666666698,11.87800000000002
12.807,34.518,-4.819,9.381
12.827,28.341249999999853,0.42450000000010363,6.015749999999936
12.847,22.032000000000515,2.702999999999986,3.0042000000002305
12.866999999999999,12.531000000000837,2.5050000000000447,-0.5369999999997324
12.886999999999999,1.1723333333335,1.8466666666666802,-2.397999999999993
12.907,-3.5429090909091276,0.7738181818181538,-2.0801818181818015
12.927,-5.005333333333333,-0.5980000000000002,-1.176
12.947,-6.937799999999919,-2.3305999999999885,0.7779999999999399
12.966999999999999,-8.731249999999859,-2.1482500000000564,2.0494999999998917
12.987,-10.016800000000018,-1.421199999999968,3.305600000000043
13.007,-10.29966666666666,-0.3017777777778472,4.620222222222166
13.027,-10.42700000000002,2.6701111111108626,6.24555555555548
13.046999999999999,-9.784000000000086,6.208666666666461,7.786999999999754
13.067,-8.52,7.1786666666666665,11.568999999999999
13.087,-5.348600000000256,6.501000000000061,16.362599999999762
13.107,-0.04055555555575302,5.510222222222239,19.356666666666637
13.126999999999999,5.854999999999794,5.930857142857103,20.32685714285711
13.147,17.846090909091142,7.39999999999995,22.617818181818187
13.167,26.489250000000073,3.8769999999998586,19.842999999999805
13.187,25.680750000000213,-2.117249999999642,12.498500000000352
13.206999999999999,22.556909090909187,-5.941818181818165,6.722454545454808
13.227,20.299666666666667,-7.689,0.1303333333333333
13.247,13.438,-11.815,-3.6830000000000003
13.267,2.194666666666932,-12.853,-3.669666666666713
13.286999999999999,-4.962999999999472,-13.069999999999968,-1.5090000000002273
13.307,-7.729699999999905,-15.691400000000199,1.563300000000285
13.327,-6.666,-18.511,2.804
13.347,-6.529545454545352,-21.129909090909052,2.396000000000054
13.366999999999999,-9.653799999999798,-21.393800000000038,0.5894000000001196
13.386999999999999,-13.23790909090893,-20.572181818181885,-1.6642727272725875
13.407,-14.287538461538432,-19.35707692307688,-3.958230769230834
13.427,-11.666199999999948,-18.02119999999999,-5.5904000000000105
13.447,-3.9835000000005802,-16.593250000000104,-5.7772500000000715
13.466999999999999,6.872749999999186,-14.531000000000171,-3.4122500000003626
13.487,14.003111111111219,-13.081222222222204,0.8885555555556768
13.507,16.231749999999803,-11.684750000000278,3.591999999999984
13.527,21.785249999999596,-4.739250000000355,3.46550000000004
13.546999999999999,28.252999999999876,-2.2675454545454192,1.9510909090910051
13.567,28.273000000000003,-0.4599999999998946,1.614750000000037
13.587,25.335000000000147,3.0251999999999746,2.55320000000004
13.607,17.725,3.819,0.182
13.626999999999999,4.821666666666879,4.040000000000001,-2.044666666666643
13.647,-1.0436666666666667,3.487,-2.538
13.667,-2.9466666666666668,1.7603333333333333,-2.1759999999999997
13.687,-4.109444444444387,0.5172222222222749,-1.6322222222222513
13.706999999999999,-6.737999999999939,-0.4873333333333334,-0.39400000000003244
13.727,-9.270800000000023,-0.05579999999998947,1.2198000000000173
13.747,-11.489500000000048,1.5640000000000587,3.4600000000000684
13.767,-13.026636363636309,3.90072727272713,5.722818181818084
13.786999999999999,-13.224909090909259,7.400090909090705,7.791272727272594
13.807,-8.290083333333172,9.267749999999987,9.874416666666722
13.827,-2.5480000000001164,8.12400000000004,11.601666666666627
13.847,2.091333333333181,6.035111111111204,14.416222222222096
13.866999999999999,7.745499999999744,3.4190000000000693,18.208499999999884
13.886999999999999,11.368941176470482,2.876352941176478,19.732470588235252
13.907,19.83699999999982,0.5838750000001217,21.074750000000062
13.927,22.279,-4.297,16.936
13.947,16.254285714285906,-8.860857142857167,7.596000000000421
13.966999999999999,15.305732235180955,-8.738849464951304,5.517115185764098
13.987,15.30670854875556,-8.739982084886377,5.511935433449561
14.007,15.307684862330166,-8.741114704821449,5.506755681135025
14.027,15.308661175904772,-8.742247324756523,5.501575928820488
14.046999999999999,15.30963748947938,-8.743379944691595,5.496396176505952
14.067,15.310613803053986,-8.744512564626667,5.491216424191415
14.087,15.311590116628592,-8.74564518456174,5.486036671876879
14.107,15.312566430203198,-8.746777804496814,5.480856919562342
14.126999999999999,15.313542743777804,-8.747910424431886,5.475677167247806
14.147,15.31451905735241,-8.749043044366958,5.470497414933269
14.167,15.315495370927017,-8.75017566430203,5.465317662618733
14.187,15.316471684501623,-8.751308284237105,5.460137910304196
14.206999999999999,15.31744799807623,-8.752440904172177,5.45495815798966
14.227,15.318424311650835,-8.75357352410725,5.449778405675123
14.247,15.319400625225441,-8.754706144042322,5.444598653360587
14.267,15.320376938800047,-8.755838763977396,5.43941890104605
14.286999999999999,15.321353252374655,-8.756971383912468,5.434239148731514
14.307,15.32232956594926,-8.75810400384754,5.429059396416977
14.327,15.323305879523867,-8.759236623782613,5.423879644102441
14.347,15.324282193098473,-8.760369243717687,5.418699891787904
14.366999999999999,15.325258506673078,-8.761501863652759,5.413520139473368
14.386999999999999,15.326234820247684,-8.762634483587831,5.408340387158831
14.407,15.327211133822292,-8.763767103522904,5.403160634844295
14.427,15.328187447396898,-8.764899723457978,5.397980882529758
14.447,15.329163760971504,-8.76603234339305,5.392801130215222
14.466999999999999,15.33014007454611,-8.767164963328122,5.387621377900685
14.487,15.331116388120716,-8.768297583263195,5.382441625586149
14.507,15.332092701695323,-8.769430203198269,5.377261873271612
14.527,15.33306901526993,-8.770562823133341,5.372082120957076
14.546999999999999,15.334045328844535,-8.771695443068413,5.366902368642539
14.567,15.335021642419141,-8.772828063003486,5.361722616328002
14.587,15.335997955993747,-8.77396068293856,5.356542864013466
14.607,15.336974269568353,-8.775093302873632,5.35136311169893
14.626999999999999,15.33795058314296,-8.776225922808704,5.346183359384393
14.647,15.338926896717567,-8.777358542743777,5.341003607069856
14.667,15.339903210292173,-8.77849116267885,5.33582385475532
14.687,15.340879523866779,-8.779623782613923,5.330644102440784
14.706999999999999,15.341855837441384,-8.780756402548995,5.325464350126247
14.727,15.34283215101599,-8.781889022484068,5.32028459781171
14.747,15.343808464590598,-8.783021642419142,5.315104845497174
14.767,15.344784778165204,-8.784154262354214,5.309925093182638
14.786999999999999,15.34576109173981,-8.785286882289286,5.304745340868101
14.807,15.346737405314416,-8.786419502224359,5.299565588553564
14.827,15.347713718889022,-8.787552122159433,5.294385836239028
14.847,15.348690032463628,-8.788684742094505,5.289206083924492
14.866999999999999,15.349666346038235,-8.789817362029577,5.284026331609955
14.886999999999999,15.350642659612841,-8.79094998196465,5.278846579295419
14.907,15.351618973187447,-8.792082601899724,5.273666826980882
14.927,15.352595286762053,-8.793215221834796,5.268487074666346
14.947,15.35357160033666,-8.794347841769868,5.263307322351809
14.966999999999999,15.354547913911265,-8.79548046170494,5.258127570037273
14.987,15.355524227485873,-8.796613081640015,5.2529478177227364
15.007,15.356500541060479,-8.797745701575087,5.2477680654082
15.027,15.357476854635085,-8.79887832151016,5.2425883130936635
15.046999999999999,15.35845316820969,-8.800010941445231,5.237408560779127
15.067,15.359429481784296,-8.801143561380306,5.2322288084645905
15.087,15.360405795358902,-8.802276181315378,5.227049056150054
15.107,15.36138210893351,-8.80340880125045,5.2218693038355175
15.126999999999999,15.362358422508116,-8.804541421185522,5.2166895515209815
15.147,15.363334736082722,-8.805674041120596,5.2115097992064445
15.167,15.364311049657328,-8.806806661055669,5.2063300468919085
15.187,15.365287363231934,-8.807939280990741,5.2011502945773715
15.206999999999999,15.36626367680654,-8.809071900925813,5.1959705422628355
15.227,15.367239990381147,-8.810204520860887,5.190790789948299
15.247,15.368216303955753,-8.81133714079596,5.1856110376337625
15.267,15.36919261753036,-8.812469760731032,5.180431285319226
15.286999999999999,15.370168931104965,-8.813602380666104,5.1752515330046895
15.307,15.371145244679571,-8.814735000601178,5.170071780690153
15.327,15.372121558254179,-8.81586762053625,5.164892028375616
15.347,15.373097871828785,-8.817000240471323,5.15971227606108
15.366999999999999,15.37407418540339,-8.818132860406395,5.154532523746544
15.386999999999999,15.375050498977997,-8.81926548034147,5.149352771432007
15.407,15.376026812552603,-8.820398100276542,5.14417301911747
15.427,15.377003126127208,-8.821530720211614,5.138993266802934
15.447,15.377979439701816,-8.822663340146686,5.133813514488398
15.466999999999999,15.378955753276422,-8.82379596008176,5.128633762173861
15.487,15.379932066851028,-8.824928580016833,5.123454009859324
15.507,15.380908380425634,-8.826061199951905,5.118274257544788
15.527,15.38188469400024,-8.827193819886977,5.113094505230252
15.546999999999999,15.382861007574846,-8.828326439822051,5.107914752915715
15.567,15.383837321149453,-8.829459059757124,5.102735000601178
15.587,15.38481363472406,-8.830591679692196,5.097555248286642
15.607,15.385789948298665,-8.831724299627268,5.092375495972106
15.626999999999999,15.386766261873271,-8.832856919562342,5.087195743657569
15.647,15.387742575447877,-8.833989539497415,5.082015991343032
15.667,15.388718889022483,-8.835122159432487,5.076836239028496
15.687,15.38969520259709,-8.83625477936756,5.07165648671396
15.706999999999999,15.390671516171697,-8.837387399302633,5.066476734399423
15.727,15.391647829746303,-8.838520019237706,5.061296982084886
15.747,15.392624143320909,-8.839652639172778,5.05611722977035
15.767,15.393600456895514,-8.84078525910785,5.050937477455814
15.786999999999999,15.39457677047012,-8.841917879042924,5.045757725141277
15.807,15.395553084044728,-8.843050498977997,5.04057797282674
15.827,15.396529397619334,-8.844183118913069,5.035398220512204
15.847,15.39750571119394,-8.845315738848141,5.030218468197667
15.866999999999999,15.398482024768546,-8.846448358783215,5.025038715883131
15.887,15.399458338343152,-8.847580978718288,5.019858963568594
15.907,15.40043465191776,-8.84871359865336,5.014679211254058
15.927,15.401410965492365,-8.849846218588432,5.009499458939521
15.947,15.402387279066971,-8.850978838523506,5.004319706624985
15.966999999999999,15.403363592641577,-8.852111458458578,4.999139954310449
15.987,15.404339906216183,-8.85324407839365,4.993960201995912
16.007,15.40531621979079,-8.854376698328723,4.988780449681375
16.027,15.406292533365397,-8.855509318263797,4.983600697366839
16.047,15.407268846940003,-8.85664193819887,4.978420945052302
16.067,15.408245160514609,-8.857774558133942,4.973241192737766
16.087,15.409221474089215,-8.858907178069014,4.968061440423229
16.107000000000003,15.41019778766382,-8.860039798004088,4.962881688108692
16.127000000000002,15.411174101238426,-8.86117241793916,4.957701935794156
16.147000000000002,15.412150414813034,-8.862305037874233,4.952522183479619
16.167,15.41312672838764,-8.863437657809307,4.947342431165083
16.187,15.414103041962246,-8.86457027774438,4.942162678850547
16.207,15.415079355536852,-8.865702897679451,4.93698292653601
16.227,15.416055669111458,-8.866835517614524,4.931803174221474
16.247,15.417031982686064,-8.867968137549596,4.926623421906937
16.267000000000003,15.418008296260671,-8.86910075748467,4.9214436695924
16.287000000000003,15.418984609835277,-8.870233377419742,4.916263917277864
16.307000000000002,15.419960923409883,-8.871365997354815,4.911084164963327
16.327,15.42093723698449,-8.872498617289889,4.905904412648791
16.347,15.421913550559095,-8.873631237224961,4.900724660334254
16.367,15.422889864133703,-8.874763857160033,4.895544908019718
16.387,15.423866177708309,-8.875896477095106,4.890365155705182
16.407,15.424842491282915,-8.877029097030178,4.885185403390645
16.427,15.42581880485752,-8.878161716965252,4.880005651076109
16.447000000000003,15.426795118432127,-8.879294336900324,4.874825898761571
16.467000000000002,15.427771432006733,-8.880426956835397,4.869646146447035
16.487000000000002,15.42874774558134,-8.88155957677047,4.864466394132499
16.507,15.429724059155946,-8.882692196705543,4.859286641817962
16.527,15.430700372730552,-8.883824816640615,4.854106889503426
16.547,15.431676686305158,-8.884957436575688,4.84892713718889
16.567,15.432652999879764,-8.88609005651076,4.843747384874353
16.587,15.43362931345437,-8.887222676445834,4.838567632559817
16.607000000000003,15.434605627028978,-8.888355296380906,4.833387880245279
16.627000000000002,15.435581940603583,-8.889487916315979,4.828208127930743
16.647000000000002,15.43655825417819,-8.890620536251053,4.823028375616207
16.667,15.437534567752795,-8.891753156186125,4.81784862330167
16.687,15.438510881327401,-8.892885776121197,4.812668870987134
16.707,15.439487194902007,-8.89401839605627,4.807489118672597
16.727,15.440463508476615,-8.895151015991342,4.802309366358061
16.747,15.44143982205122,-8.896283635926416,4.797129614043525
16.767000000000003,15.442416135625827,-8.897416255861488,4.7919498617289875
16.787000000000003,15.443392449200433,-8.89854887579656,4.7867701094144515
16.807000000000002,15.444368762775039,-8.899681495731635,4.781590357099915
16.827,15.445345076349644,-8.900814115666707,4.7764106047853785
16.847,15.446321389924252,-8.90194673560178,4.771230852470842
16.867,15.447297703498858,-8.903079355536851,4.7660511001563055
16.887,15.448274017073464,-8.904211975471924,4.7608713478417695
16.907,15.44925033064807,-8.905344595406998,4.755691595527233
16.927,15.450226644222676,-8.90647721534207,4.7505118432126965
16.947000000000003,15.451202957797284,-8.907609835277142,4.7453320908981595
16.967000000000002,15.45217927137189,-8.908742455212217,4.7401523385836235
16.987000000000002,15.453155584946495,-8.909875075147289,4.734972586269087
17.007,15.454131898521101,-8.911007695082361,4.7297928339545505
17.027,15.455108212095707,-8.912140315017433,4.724613081640014
17.047,15.456084525670313,-8.913272934952506,4.7194333293254775
17.067,15.457060839244921,-8.91440555488758,4.7142535770109415
17.087,15.458037152819527,-8.915538174822652,4.709073824696405
17.107000000000003,15.459013466394133,-8.916670794757724,4.703894072381868
17.127000000000002,15.459989779968739,-8.917803414692798,4.698714320067332
17.147000000000002,15.460966093543345,-8.91893603462787,4.693534567752795
17.167,15.46194240711795,-8.920068654562943,4.688354815438259
17.187,15.462918720692558,-8.921201274498015,4.683175063123722
17.207,15.463895034267164,-8.922333894433088,4.677995310809186
17.227,15.46487134784177,-8.923466514368162,4.67281555849465
17.247,15.465847661416376,-8.924599134303234,4.667635806180113
17.267000000000003,15.466823974990982,-8.925731754238306,4.662456053865576
17.287000000000003,15.467800288565588,-8.92686437417338,4.65727630155104
17.307000000000002,15.468776602140196,-8.927996994108453,4.652096549236503
17.327,15.469752915714801,-8.929129614043525,4.646916796921967
17.347,15.470729229289407,-8.930262233978597,4.64173704460743
17.367,15.471705542864013,-8.93139485391367,4.636557292292894
17.387,15.47268185643862,-8.932527473848744,4.631377539978358
17.407,15.473658170013225,-8.933660093783816,4.626197787663821
17.427000000000003,15.474634483587833,-8.934792713718888,4.621018035349284
17.447000000000003,15.475610797162439,-8.935925333653962,4.615838283034747
17.467000000000002,15.476587110737045,-8.937057953589035,4.610658530720211
17.487000000000002,15.47756342431165,-8.938190573524107,4.605478778405675
17.507,15.478539737886257,-8.93932319345918,4.600299026091138
17.527,15.479516051460863,-8.940455813394252,4.595119273776602
17.547,15.48049236503547,-8.941588433329326,4.589939521462066
17.567,15.481468678610076,-8.942721053264398,4.584759769147529
17.587,15.482444992184682,-8.94385367319947,4.579580016832993
17.607000000000003,15.483421305759288,-8.944986293134544,4.574400264518455
17.627000000000002,15.484397619333894,-8.946118913069617,4.569220512203919
17.647000000000002,15.485373932908502,-8.947251533004689,4.564040759889382
17.667,15.486350246483108,-8.948384152939761,4.558861007574846
17.687,15.487326560057713,-8.949516772874833,4.55368125526031
17.707,15.48830287363232,-8.950649392809908,4.548501502945773
17.727,15.489279187206925,-8.95178201274498,4.543321750631237
17.747,15.490255500781531,-8.952914632680052,4.538141998316701
17.767000000000003,15.491231814356139,-8.954047252615126,4.532962246002163
17.787000000000003,15.492208127930745,-8.955179872550199,4.527782493687627
17.807000000000002,15.49318444150535,-8.95631249248527,4.52260274137309
17.827,15.494160755079957,-8.957445112420343,4.517422989058554
17.847,15.495137068654563,-8.958577732355415,4.512243236744018
17.867,15.496113382229169,-8.95971035229049,4.507063484429481
17.887,15.497089695803776,-8.960842972225562,4.501883732114945
17.907,15.498066009378382,-8.961975592160634,4.496703979800408
17.927000000000003,15.499042322952988,-8.963108212095708,4.491524227485871
17.947000000000003,15.500018636527594,-8.96424083203078,4.486344475171335
17.967000000000002,15.5009949501022,-8.965373451965853,4.481164722856798
17.987000000000002,15.501971263676806,-8.966506071900925,4.475984970542262
18.007,15.502947577251414,-8.967638691835997,4.470805218227726
18.027,15.50392389082602,-8.968771311771071,4.465625465913189
18.047,15.504900204400625,-8.969903931706144,4.460445713598653
18.067,15.505876517975231,-8.971036551641216,4.455265961284116
18.087,15.506852831549837,-8.972169171576288,4.45008620896958
18.107000000000003,15.507829145124443,-8.973301791511362,4.444906456655043
18.127000000000002,15.508805458699051,-8.974434411446435,4.439726704340506
18.147000000000002,15.509781772273657,-8.975567031381507,4.43454695202597
18.167,15.510758085848263,-8.97669965131658,4.429367199711434
18.187,15.511734399422869,-8.977832271251653,4.424187447396897
18.207,15.512710712997475,-8.978964891186726,4.419007695082361
18.227,15.51368702657208,-8.980097511121798,4.413827942767824
18.247,15.514663340146688,-8.98123013105687,4.408648190453288
18.267000000000003,15.515639653721294,-8.982362750991944,4.403468438138751
18.287000000000003,15.5166159672959,-8.983495370927017,4.398288685824214
18.307000000000002,15.517592280870506,-8.984627990862089,4.393108933509678
18.327,15.518568594445112,-8.985760610797163,4.387929181195142
18.347,15.51954490801972,-8.986893230732235,4.382749428880605
18.367,15.520521221594326,-8.988025850667308,4.377569676566069
18.387,15.521497535168931,-8.98915847060238,4.372389924251532
18.407,15.522473848743537,-8.990291090537452,4.367210171936996
18.427000000000003,15.523450162318143,-8.991423710472526,4.362030419622459
18.447000000000003,15.52442647589275,-8.992556330407599,4.356850667307922
18.467000000000002,15.525402789467357,-8.993688950342671,4.351670914993386
18.487000000000002,15.526379103041963,-8.994821570277745,4.34649116267885
18.507,15.527355416616569,-8.995954190212817,4.341311410364313
18.527,15.528331730191175,-8.99708681014789,4.336131658049777
18.547,15.52930804376578,-8.998219430082962,4.33095190573524
18.567,15.530284357340387,-8.999352050018034,4.325772153420704
18.587,15.531260670914994,-9.000484669953108,4.320592401106168
18.607000000000003,15.5322369844896,-9.00161728988818,4.3154126487916304
18.627000000000002,15.533213298064206,-9.002749909823253,4.310232896477094
18.647000000000002,15.534189611638812,-9.003882529758327,4.305053144162558
18.667,15.535165925213418,-9.0050151496934,4.299873391848021
18.687,15.536142238788024,-9.006147769628472,4.294693639533485
18.707,15.537118552362632,-9.007280389563544,4.289513887218948
18.727,15.538094865937238,-9.008413009498616,4.284334134904412
18.747,15.539071179511843,-9.00954562943369,4.279154382589876
18.767000000000003,15.54004749308645,-9.010678249368762,4.2739746302753385
18.787000000000003,15.541023806661055,-9.011810869303835,4.2687948779608025
18.807000000000002,15.542000120235663,-9.012943489238909,4.263615125646266
18.827,15.542976433810269,-9.014076109173981,4.2584353733317295
18.847,15.543952747384875,-9.015208729109053,4.253255621017193
18.867,15.54492906095948,-9.016341349044126,4.2480758687026565
18.887,15.545905374534087,-9.017473968979198,4.2428961163881205
18.907,15.546881688108693,-9.018606588914272,4.237716364073584
18.927000000000003,15.5478580016833,-9.019739208849344,4.232536611759047
18.947000000000003,15.548834315257906,-9.020871828784417,4.227356859444511
18.967000000000002,15.549810628832512,-9.02200444871949,4.222177107129974
18.987000000000002,15.550786942407118,-9.023137068654563,4.216997354815438
19.007,15.551763255981724,-9.024269688589635,4.211817602500901
19.027,15.55273956955633,-9.025402308524708,4.206637850186365
19.047,15.553715883130938,-9.02653492845978,4.201458097871829
19.067,15.554692196705544,-9.027667548394854,4.1962783455572925
19.087,15.55566851028015,-9.028800168329926,4.191098593242756
19.107000000000003,15.556644823854755,-9.029932788264999,4.185918840928219
19.127000000000002,15.557621137429361,-9.031065408200073,4.180739088613682
19.147000000000002,15.558597451003967,-9.032198028135145,4.175559336299146
19.167,15.559573764578575,-9.033330648070217,4.170379583984609
19.187,15.560550078153181,-9.03446326800529,4.165199831670073
19.207,15.561526391727787,-9.035595887940362,4.160020079355537
19.227,15.562502705302393,-9.036728507875436,4.154840327041
19.247,15.563479018876999,-9.037861127810508,4.149660574726464
19.267000000000003,15.564455332451605,-9.03899374774558,4.144480822411927
19.287000000000003,15.565431646026212,-9.040126367680655,4.13930107009739
19.307000000000002,15.566407959600818,-9.041258987615727,4.134121317782854
19.327,15.567384273175424,-9.0423916075508,4.128941565468317
19.347,15.56836058675003,-9.043524227485872,4.123761813153781
19.367,15.569336900324636,-9.044656847420946,4.118582060839245
19.387,15.570313213899242,-9.045789467356018,4.113402308524708
19.407,15.57128952747385,-9.04692208729109,4.108222556210172
19.427000000000003,15.572265841048456,-9.048054707226163,4.103042803895635
19.447000000000003,15.573242154623061,-9.049187327161237,4.097863051581098
19.467000000000002,15.574218468197667,-9.050319947096309,4.092683299266562
19.487000000000002,15.575194781772273,-9.051452567031381,4.087503546952025
19.507,15.57617109534688,-9.052585186966454,4.082323794637489
19.527,15.577147408921487,-9.053717806901528,4.077144042322953
19.547,15.578123722496093,-9.0548504268366,4.071964290008416
19.567,15.579100036070699,-9.055983046771672,4.06678453769388
19.587,15.580076349645305,-9.057115666706745,4.061604785379343
19.607000000000003,15.58105266321991,-9.058248286641819,4.056425033064806
19.627000000000002,15.582028976794518,-9.05938090657689,4.05124528075027
19.647000000000002,15.583005290369124,-9.060513526511963,4.046065528435733
19.667,15.58398160394373,-9.061646146447035,4.040885776121197
19.687,15.584957917518336,-9.06277876638211,4.035706023806661
19.707,15.585934231092942,-9.063911386317182,4.030526271492124
19.727,15.586910544667548,-9.065044006252254,4.025346519177588
19.747,15.587886858242154,-9.066176626187326,4.020166766863051
19.767000000000003,15.588863171816762,-9.0673092461224,4.014987014548514
19.787000000000003,15.589839485391368,-9.068441866057473,4.009807262233978
19.807000000000002,15.590815798965973,-9.069574485992545,4.004627509919441
19.827,15.59179211254058,-9.070707105927617,3.999447757604905
19.847,15.592768426115185,-9.071839725862691,3.9942680052903685
19.867,15.593744739689793,-9.072972345797764,3.989088252975832
19.887,15.594721053264399,-9.074104965732836,3.983908500661296
19.907,15.595697366839005,-9.075237585667908,3.978728748346759
19.927000000000003,15.59667368041361,-9.076370205602982,3.973548996032222
19.947000000000003,15.597649993988217,-9.077502825538055,3.9683692437176856
19.967000000000002,15.598626307562823,-9.078635445473127,3.963189491403149
19.987000000000002,15.59960262113743,-9.0797680654082,3.958009739088613
20.007,15.600578934712036,-9.080900685343273,3.9528299867740766
20.027,15.601555248286642,-9.082033305278346,3.94765023445954
20.047,15.602531561861248,-9.083165925213418,3.942470482145004
20.067,15.603507875435854,-9.08429854514849,3.937290729830467
20.087,15.60448418901046,-9.085431165083563,3.932110977515931
20.107000000000003,15.605460502585068,-9.086563785018637,3.9269312252013937
20.127000000000002,15.606436816159674,-9.087696404953709,3.921751472886857
20.147000000000002,15.60741312973428,-9.088829024888781,3.916571720572321
20.167,15.608389443308885,-9.089961644823855,3.9113919682577842
20.187,15.609365756883491,-9.091094264758928,3.906212215943248
20.207,15.610342070458097,-9.092226884694,3.9010324636287117
20.227,15.611318384032705,-9.093359504629072,3.895852711314175
20.247,15.612294697607311,-9.094492124564145,3.890672958999639
20.267000000000003,15.613271011181917,-9.095624744499219,3.885493206685102
20.287000000000003,15.614247324756523,-9.096757364434291,3.8803134543705653
20.307000000000002,15.615223638331129,-9.097889984369363,3.8751337020560293
20.327,15.616199951905736,-9.099022604304437,3.8699539497414923
20.347,15.617176265480342,-9.10015522423951,3.8647741974269563
20.367,15.618152579054948,-9.101287844174582,3.85959444511242
20.387,15.619128892629554,-9.102420464109654,3.8544146927978833
20.407,15.62010520620416,-9.103553084044727,3.8492349404833472
20.427000000000003,15.621081519778766,-9.1046857039798,3.84405518816881
20.447000000000003,15.622057833353374,-9.105818323914873,3.8388754358542734
20.467000000000002,15.62303414692798,-9.106950943849945,3.8336956835397373
20.487000000000002,15.624010460502586,-9.10808356378502,3.8285159312252004
20.507,15.624986774077191,-9.109216183720092,3.8233361789106644
20.527,15.625963087651797,-9.110348803655164,3.818156426596128
20.547,15.626939401226403,-9.111481423590236,3.8129766742815914
20.567,15.627915714801011,-9.112614043525308,3.8077969219670553
20.587,15.628892028375617,-9.113746663460383,3.8026171696525184
20.607000000000003,15.629868341950223,-9.114879283395455,3.7974374173379815
20.627000000000002,15.630844655524829,-9.116011903330527,3.792257665023445
20.647000000000002,15.631820969099435,-9.117144523265601,3.7870779127089085
20.667,15.63279728267404,-9.118277143200674,3.7818981603943724
20.687,15.633773596248648,-9.119409763135746,3.776718408079836
20.707,15.634749909823254,-9.120542383070818,3.7715386557652995
20.727,15.63572622339786,-9.12167500300589,3.7663589034507634
20.747,15.636702536972466,-9.122807622940964,3.7611791511362265
20.767000000000003,15.637678850547072,-9.123940242876037,3.7559993988216895
20.787000000000003,15.63865516412168,-9.125072862811109,3.750819646507153
20.807000000000002,15.639631477696286,-9.126205482746183,3.7456398941926166
20.827,15.640607791270892,-9.127338102681255,3.7404601418780805
20.847,15.641584104845498,-9.128470722616328,3.7352803895635436
20.867,15.642560418420103,-9.1296033425514,3.7301006372490075
20.887,15.64353673199471,-9.130735962486472,3.724920884934471
20.907,15.644513045569315,-9.131868582421546,3.7197411326199346
20.927000000000003,15.645489359143923,-9.133001202356619,3.7145613803053976
20.947000000000003,15.646465672718529,-9.134133822291691,3.709381627990861
20.967000000000002,15.647441986293135,-9.135266442226765,3.7042018756763246
20.987000000000002,15.64841829986774,-9.136399062161837,3.6990221233617886
21.007,15.649394613442347,-9.13753168209691,3.6938423710472517
21.027,15.650370927016954,-9.138664302031982,3.6886626187327156
21.047,15.65134724059156,-9.139796921967054,3.683482866418179
21.067,15.652323554166166,-9.140929541902128,3.6783031141036426
21.087,15.653299867740772,-9.1420621618372,3.6731233617891066
21.107000000000003,15.654276181315378,-9.143194781772273,3.667943609474569
21.127000000000002,15.655252494889984,-9.144327401707347,3.6627638571600327
21.147000000000002,15.656228808464592,-9.14546002164242,3.6575841048454962
21.167,15.657205122039198,-9.146592641577492,3.6524043525309597
21.187,15.658181435613804,-9.147725261512564,3.6472246002164237
21.207,15.65915774918841,-9.148857881447636,3.642044847901887
21.227,15.660134062763015,-9.14999050138271,3.6368650955873507
21.247,15.661110376337621,-9.151123121317783,3.6316853432728147
21.267000000000003,15.662086689912229,-9.152255741252855,3.626505590958277
21.287000000000003,15.663063003486835,-9.153388361187929,3.621325838643741
21.307000000000002,15.664039317061441,-9.154520981123001,3.6161460863292043
21.327,15.665015630636047,-9.155653601058074,3.610966334014668
21.347,15.665991944210653,-9.156786220993146,3.6057865817001318
21.367,15.666968257785259,-9.157918840928218,3.6006068293855953
21.387,15.667944571359866,-9.159051460863292,3.595427077071059
21.407,15.668920884934472,-9.160184080798365,3.5902473247565228
21.427000000000003,15.669897198509078,-9.161316700733437,3.585067572441985
21.447000000000003,15.670873512083684,-9.162449320668511,3.579887820127449
21.467000000000002,15.67184982565829,-9.163581940603583,3.5747080678129124
21.487000000000002,15.672826139232896,-9.164714560538656,3.569528315498376
21.507,15.673802452807504,-9.165847180473728,3.56434856318384
21.527,15.67477876638211,-9.1669798004088,3.559168810869303
21.547,15.675755079956716,-9.168112420343874,3.553989058554767
21.567,15.676731393531322,-9.169245040278946,3.5488093062402304
21.587,15.677707707105927,-9.170377660214019,3.543629553925694
21.607000000000003,15.678684020680535,-9.171510280149093,3.538449801611157
21.627000000000002,15.679660334255141,-9.172642900084165,3.5332700492966205
21.647000000000002,15.680636647829747,-9.173775520019237,3.528090296982084
21.667,15.681612961404353,-9.17490813995431,3.522910544667548
21.687,15.682589274978959,-9.176040759889382,3.5177307923530114
21.707,15.683565588553565,-9.177173379824456,3.512551040038475
21.727,15.68454190212817,-9.178305999759528,3.5073712877239385
21.747,15.685518215702778,-9.1794386196946,3.502191535409402
21.767000000000003,15.686494529277384,-9.180571239629675,3.497011783094865
21.787000000000003,15.68747084285199,-9.181703859564747,3.4918320307803286
21.807000000000002,15.688447156426596,-9.18283647949982,3.486652278465792
21.827,15.689423470001202,-9.183969099434892,3.4814725261512556
21.847,15.69039978357581,-9.185101719369964,3.476292773836719
21.867,15.691376097150416,-9.186234339305038,3.471113021522183
21.887,15.692352410725022,-9.18736695924011,3.4659332692076465
21.907,15.693328724299628,-9.188499579175183,3.46075351689311
21.927000000000003,15.694305037874233,-9.189632199110257,3.4555737645785727
21.947000000000003,15.69528135144884,-9.190764819045329,3.4503940122640366
21.967000000000002,15.696257665023447,-9.191897438980401,3.4452142599495
21.987000000000002,15.697233978598053,-9.193030058915474,3.4400345076349637
22.007,15.698210292172659,-9.194162678850548,3.434854755320427
22.027,15.699186605747265,-9.19529529878562,3.429675003005891
22.047,15.70016291932187,-9.196427918720692,3.4244952506913546
22.067,15.701139232896477,-9.197560538655765,3.419315498376818
22.087,15.702115546471084,-9.198693158590837,3.4141357460622817
22.107000000000003,15.70309186004569,-9.199825778525911,3.4089559937477447
22.127000000000002,15.704068173620296,-9.200958398460983,3.4037762414332082
22.147000000000002,15.705044487194902,-9.202091018396056,3.3985964891186717
22.167,15.706020800769508,-9.20322363833113,3.3934167368041352
22.187,15.706997114344116,-9.204356258266202,3.3882369844895988
22.207,15.707973427918722,-9.205488878201274,3.3830572321750627
22.227,15.708949741493328,-9.206621498136347,3.377877479860526
22.247,15.709926055067934,-9.207754118071419,3.3726977275459897
22.267000000000003,15.71090236864254,-9.208886738006493,3.3675179752314524
22.287000000000003,6.1569999999805365,-10.954000000006497,0.5000000000042046
22.307000000000002,-7.556181818181987,-19.971363636363606,2.7259090909090236
22.327,-10.537090909091097,-19.360727272727193,1.248909090908963
22.347,-12.72876923076925,-18.160307692307676,-0.6704615384615638
22.367,-10.088799999999596,-16.966199999999947,-3.615400000000093
22.387,-1.7979999999995526,-15.764749999999939,-4.463916666666591
22.407,6.445,-14.965,-3.714
22.427000000000003,12.014545454545988,-15.932545454545586,-1.4819090909087882
22.447000000000003,21.15771428571483,-11.963785714285413,2.485142857142918
22.467000000000002,31.86000000000162,-7.516874999999572,2.4879999999998024
22.487000000000002,35.34918181818168,-6.736818181818046,0.5368181818180804
22.507,31.2528333333331,-1.6028333333330478,3.417666666666895
22.527,24.929727272726556,1.0020000000001532,4.093272727272555
22.547,15.053428571428665,1.9924285714285679,0.7930714285714562
22.567,3.8134166666663165,2.2250833333333073,-1.0701666666666811
22.587,-1.6006999999997438,1.4296000000000657,-1.1329000000000085
22.607000000000003,-4.339090909091119,0.27518181818170867,-0.8028181818181228
22.627000000000002,-6.6707000000001555,-0.7129999999999872,0.22460000000008895
22.647000000000002,-8.292150000000174,-0.4493999999999499,1.1460500000000984
22.667,-10.215,1.234,2.946
22.687,-10.90150000000002,4.50540000000019,4.300200000000105
22.707,-10.644599999999858,7.140600000000035,6.671200000000171
22.727,-7.112750000000252,7.629249999999979,9.650999999999835
22.747,-0.06266666666621862,8.063666666666592,13.29066666666681
22.767000000000003,6.3076666666677115,6.8191111111105815,14.19833333333279
22.787000000000003,8.273181818181738,4.56754545454534,11.449545454545335
22.807000000000002,7.369200000000407,3.5986000000001765,11.1328000000003
22.827,15.900400000001074,5.519200000000016,14.175000000000086
22.847,27.841000000000303,2.5405454545448136,12.747090909090417
22.867,29.38519999999999,-3.496800000000422,5.916599999999081
22.887,28.587666666666376,-6.766000000000166,-0.6593333333335043
22.907,21.25018181818232,-9.933181818181726,-2.1034545454546345
22.927000000000003,10.40709090908901,-11.966181818182347,-0.16990909090870615
22.947000000000003,4.570999999998159,-14.802000000000353,2.0550000000003816
22.967000000000002,-1.3140322580645754,-16.220096774193607,4.558032258064565
22.987000000000002,-1.7843548387097448,-16.6910645161291,4.948354838709733
23.007,-1.1253999999999835,-20.32490000000006,3.8892999999997775
23.027,-1.4224444444445834,-21.094555555555587,0.4542222222219371
23.047,-5.711199999999749,-21.143800000000027,-3.683399999999915
23.067,-11.535399999999886,-19.55280000000009,-5.809399999999955
23.087,-13.01677777777762,-16.866777777777635,-7.008555555555601
23.107000000000003,-8.857153846153214,-15.130846153845997,-7.560692307692358
23.127000000000002,1.025750000001497,-14.237374999999908,-7.093249999999767
23.147000000000002,6.333555555555954,-13.94988888888886,-3.7401111111106227
23.167,7.157875000000127,-14.194500000000016,1.4058750000007663
23.187,13.739363636364601,-12.179727272726923,5.686363636363979
23.207,27.102500000000624,-7.1737499999997425,6.704999999999945
23.227,34.28,-5.971,1.88
23.247,32.15633333333349,-1.4864000000002506,1.3973999999999533
23.267000000000003,25.475923076921838,1.848307692307932,0.8019999999995453
23.287000000000003,13.328799999999164,1.780299999999965,-1.9589999999999659
23.307000000000002,4.2639999999990374,1.0599999999996437,-1.5819999999999002
23.327,-0.5476000000003118,-1.3512000000002293,-0.6651999999998734
23.347,-2.7673333333332817,-3.0870000000000686,-0.07677777777773251
23.367,-2.3062499999999835,-3.423499999999981,1.0142500000001162
23.387,-5.18190909090925,-2.039545454545348,2.2403636363636874
23.407,-7.454636363636262,-0.1286363636364689,3.2321818181817603
23.427000000000003,-8.632166666666711,3.4155000000004065,5.160833333333528
23.447000000000003,-7.490923076922925,7.048384615384961,7.13223076923097
23.467000000000002,-4.514999999999199,9.83200000000028,10.303000000000482
23.487000000000002,1.6058181818188406,10.963818181818102,13.773181818182092
23.507,6.467583333333886,10.139499999999883,15.288083333333454
23.527,11.502,7.547,14.325
23.547,11.917,3.622,12.276
23.567,14.560090909091189,1.7329090909090008,14.683636363636456
23.587,20.937,-0.725,15.23
23.607000000000003,22.557833333333363,-7.407916666667443,11.810583333332964
23.627000000000002,22.21960000000012,-10.866999999999866,4.305799999999223
23.647000000000002,22.031444444444165,-10.322111111111157,-1.3806666666668734
23.667,16.721,-11.128,-3.712
23.687,8.193,-11.631,-2.533
23.707,0.5734999999996879,-12.59858333333341,1.3250000000001503
23.727,-5.381799999999946,-14.453399999999952,4.643399999999842
23.747,-5.607,-15.515,7.219
23.767000000000003,-5.577416666666541,-17.614333333333846,7.824249999999774
23.787000000000003,-6.13970000000022,-19.91550000000009,6.062899999999794
23.807000000000002,-9.772666666667012,-20.67049999999998,2.692166666666263
23.827,-12.527090909090957,-20.175818181818094,-1.5404545454548406
23.847,-12.282499999999722,-18.10599999999977,-6.0526250000001545
23.867,-6.96399999999926,-15.474818181818037,-6.025272727272474
23.887,1.187,-14.49,-2.812
23.907,10.285727272727112,-15.96736363636351,0.21390909090888888
23.927000000000003,14.449071428572472,-15.475785714284655,6.20950000000085
23.947000000000003,24.0699090909098,-8.111818181817942,10.382727272727305
23.967000000000002,33.705,-6.2049999999999885,9.237999999999271
23.987000000000002,33.69923115896137,-6.1729107029765675,7.596573780873971
24.007,33.68794975723032,-6.164428541270847,7.5941967489972555
24.027,33.67666835549927,-6.155946379565126,7.59181971712054
24.047,33.66538695376821,-6.147464217859405,7.589442685243825
24.067,33.65410555203716,-6.138982056153684,7.58706565336711
24.087000000000003,33.642824150306105,-6.130499894447962,7.584688621490394
24.107000000000003,33.63154274857505,-6.122017732742242,7.5823115896136795
24.127000000000002,33.620261346843996,-6.113535571036521,7.579934557736964
24.147000000000002,33.60897994511294,-6.105053409330799,7.577557525860249
24.167,33.59769854338189,-6.096571247625079,7.575180493983534
24.187,33.586417141650834,-6.088089085919358,7.572803462106819
24.207,33.57513573991979,-6.079606924213637,7.570426430230103
24.227,33.56385433818873,-6.0711247625079166,7.568049398353388
24.247,33.55257293645768,-6.062642600802196,7.565672366476673
24.267000000000003,33.541291534726625,-6.054160439096473,7.563295334599958
24.287000000000003,33.53001013299557,-6.045678277390753,7.560918302723242
24.307000000000002,33.51872873126452,-6.037196115685032,7.558541270846527
24.327,33.50744732953346,-6.028713953979311,7.556164238969812
24.347,33.49616592780241,-6.020231792273591,7.553787207093097
24.367,33.484884526071355,-6.01174963056787,7.551410175216382
24.387,33.4736031243403,-6.003267468862149,7.549033143339666
24.407,33.462321722609246,-5.9947853071564285,7.546656111462951
24.427000000000003,33.45104032087819,-5.986303145450706,7.544279079586236
24.447000000000003,33.43975891914714,-5.977820983744985,7.54190204770952
24.467000000000002,33.42847751741609,-5.969338822039265,7.5395250158328055
24.487000000000002,33.41719611568504,-5.960856660333544,7.53714798395609
24.507,33.40591471395398,-5.952374498627823,7.534770952079375
24.527,33.39463331222293,-5.943892336922103,7.53239392020266
24.547,33.383351910491875,-5.935410175216382,7.530016888325945
24.567,33.37207050876082,-5.926928013510661,7.5276398564492295
24.587000000000003,33.36078910702977,-5.918445851804939,7.525262824572514
24.607000000000003,33.34950770529871,-5.909963690099218,7.522885792695798
24.627000000000002,33.33822630356766,-5.901481528393497,7.520508760819084
24.647000000000002,33.326944901836605,-5.892999366687777,7.518131728942368
24.667,33.31566350010556,-5.884517204982056,7.5157546970656535
24.687,33.304382098374504,-5.876035043276335,7.513377665188938
24.707,33.29310069664345,-5.867552881570615,7.511000633312223
24.727,33.281819294912395,-5.859070719864894,7.508623601435508
24.747,33.27053789318134,-5.850588558159173,7.506246569558792
24.767000000000003,33.25925649145029,-5.842106396453451,7.5038695376820765
24.787000000000003,33.24797508971923,-5.83362423474773,7.501492505805362
24.807000000000002,33.23669368798818,-5.825142073042009,7.499115473928646
24.827,33.225412286257125,-5.816659911336289,7.496738442051932
24.847,33.21413088452607,-5.808177749630568,7.494361410175216
24.867,33.20284948279502,-5.799695587924847,7.491984378298501
24.887,33.19156808106397,-5.791213426219127,7.489607346421786
24.907,33.180286679332916,-5.782731264513405,7.487230314545071
24.927000000000003,33.16900527760186,-5.774249102807683,7.484853282668356
24.947000000000003,33.15772387587081,-5.765766941101963,7.48247625079164
24.967000000000002,33.146442474139754,-5.757284779396242,7.4800992189149245
24.987000000000002,33.1351610724087,-5.7488026176905205,7.47772218703821
25.007,33.123879670677645,-5.7403204559848,7.475345155161494
25.027,33.11259826894659,-5.731838294279079,7.4729681232847796
25.047,33.10131686721554,-5.723356132573358,7.470591091408064
25.067,33.09003546548448,-5.714873970867638,7.468214059531349
25.087000000000003,33.07875406375343,-5.706391809161916,7.465837027654634
25.107000000000003,33.067472662022375,-5.6979096474561945,7.463459995777918
25.127000000000002,33.05619126029133,-5.689427485750474,7.4610829639012035
25.147000000000002,33.044909858560274,-5.680945324044753,7.458705932024488
25.167,33.03362845682922,-5.6724631623390325,7.456328900147772
25.187,33.022347055098166,-5.663981000633312,7.453951868271058
25.207,33.01106565336711,-5.655498838927591,7.451574836394342
25.227,32.99978425163606,-5.64701667722187,7.4491978045176275
25.247,32.988502849905004,-5.63853451551615,7.446820772640912
25.267000000000003,32.97722144817395,-5.630052353810427,7.444443740764196
25.287000000000003,32.965940046442896,-5.6215701921047065,7.442066708887482
25.307000000000002,32.95465864471184,-5.613088030398986,7.439689677010766
25.327,32.94337724298079,-5.604605868693265,7.4373126451340505
25.347,32.93209584124974,-5.5961237069875445,7.434935613257336
25.367,32.920814439518686,-5.587641545281824,7.43255858138062
25.387,32.90953303778763,-5.579159383576103,7.430181549503906
25.407,32.89825163605658,-5.570677221870382,7.42780451762719
25.427000000000003,32.886970234325524,-5.56219506016466,7.4254274857504745
25.447000000000003,32.87568883259447,-5.553712898458939,7.42305045387376
25.467000000000002,32.864407430863416,-5.5452307367532185,7.420673421997044
25.487000000000002,32.85312602913236,-5.536748575047498,7.41829639012033
25.507,32.84184462740131,-5.528266413341777,7.415919358243614
25.527,32.830563225670254,-5.5197842516360565,7.4135423263668985
25.547,32.81928182393921,-5.511302089930336,7.411165294490184
25.567,32.80800042220815,-5.502819928224615,7.408788262613468
25.587000000000003,32.7967190204771,-5.494337766518893,7.406411230736753
25.607000000000003,32.785437618746045,-5.485855604813172,7.404034198860038
25.627000000000002,32.77415621701499,-5.477373443107451,7.401657166983322
25.647000000000002,32.762874815283936,-5.4688912814017305,7.399280135106608
25.667,32.75159341355288,-5.46040911969601,7.396903103229892
25.687,32.74031201182183,-5.451926957990289,7.394526071353177
25.707,32.729030610090774,-5.4434447962845685,7.392149039476462
25.727,32.71774920835972,-5.434962634578847,7.389772007599746
25.747,32.70646780662867,-5.426480472873127,7.387394975723032
25.767000000000003,32.69518640489761,-5.417998311167405,7.385017943846316
25.787000000000003,32.683905003166565,-5.409516149461684,7.382640911969601
25.807000000000002,32.67262360143551,-5.401033987755963,7.380263880092886
25.827,32.66134219970446,-5.3925518260502425,7.37788684821617
25.847,32.6500607979734,-5.384069664344521,7.375509816339456
25.867,32.63877939624235,-5.3755875026388,7.37313278446274
25.887,32.627497994511295,-5.36710534093308,7.370755752586025
25.907,32.61621659278024,-5.358623179227359,7.36837872070931
25.927000000000003,32.60493519104919,-5.350141017521636,7.366001688832594
25.947000000000003,32.59365378931813,-5.341658855815917,7.363624656955879
25.967000000000002,32.58237238758708,-5.333176694110195,7.361247625079164
25.987000000000002,32.571090985856024,-5.324694532404474,7.3588705932024485
26.007,32.55980958412498,-5.316212370698754,7.356493561325734
26.027,32.54852818239392,-5.307730208993033,7.354116529449018
26.047,32.53724678066287,-5.299248047287312,7.351739497572304
26.067,32.525965378931815,-5.2907658855815916,7.349362465695588
26.087000000000003,32.51468397720076,-5.282283723875869,7.3469854338188725
26.107000000000003,32.50340257546971,-5.273801562170148,7.344608401942157
26.127000000000002,32.49212117373865,-5.265319400464428,7.342231370065442
26.147000000000002,32.4808397720076,-5.256837238758707,7.339854338188727
26.167,32.469558370276545,-5.248355077052986,7.337477306312012
26.187,32.45827696854549,-5.239872915347266,7.335100274435296
26.207,32.446995566814444,-5.231390753641545,7.332723242558582
26.227,32.43571416508339,-5.222908591935824,7.330346210681866
26.247,32.424432763352335,-5.2144264302301035,7.327969178805151
26.267000000000003,32.41315136162128,-5.205944268524381,7.325592146928435
26.287000000000003,32.40186995989023,-5.19746210681866,7.32321511505172
26.307000000000002,32.39058855815917,-5.18897994511294,7.320838083175005
26.327,32.37930715642812,-5.180497783407219,7.31846105129829
26.347,32.368025754697065,-5.172015621701498,7.316084019421575
26.367,32.35674435296601,-5.163533459995778,7.31370698754486
26.387,32.34546295123496,-5.155051298290057,7.311329955668144
26.407,32.33418154950391,-5.146569136584336,7.308952923791429
26.427000000000003,32.32290014777285,-5.138086974878614,7.306575891914713
26.447000000000003,32.3116187460418,-5.129604813172893,7.304198860037999
26.467000000000002,32.30033734431075,-5.121122651467172,7.301821828161283
26.487000000000002,32.289055942579694,-5.112640489761452,7.299444796284568
26.507,32.27777454084864,-5.104158328055731,7.297067764407853
26.527,32.266493139117586,-5.09567616635001,7.294690732531138
26.547,32.25521173738653,-5.08719400464429,7.2923137006544225
26.567,32.24393033565548,-5.078711842938569,7.289936668777708
26.587000000000003,32.23264893392442,-5.0702296812328465,7.287559636900992
26.607000000000003,32.22136753219337,-5.061747519527126,7.285182605024277
26.627000000000002,32.210086130462315,-5.053265357821405,7.282805573147561
26.647000000000002,32.19880472873126,-5.044783196115684,7.2804285412708465
26.667,32.187523327000214,-5.036301034409963,7.278051509394131
26.687,32.17624192526916,-5.027818872704243,7.275674477517416
26.707,32.164960523538106,-5.019336710998521,7.273297445640701
26.727,32.15367912180705,-5.010854549292802,7.270920413763986
26.747,32.142397720076,-5.00237238758708,7.2685433818872704
26.767000000000003,32.131116318344944,-4.9938902258813584,7.266166350010555
26.787000000000003,32.11983491661389,-4.985408064175637,7.26378931813384
26.807000000000002,32.108553514882836,-4.976925902469917,7.261412286257125
26.827,32.09727211315178,-4.9684437407641955,7.259035254380409
26.847,32.08599071142073,-4.959961579058475,7.256658222503694
26.867,32.07470930968968,-4.951479417352754,7.254281190626979
26.887,32.063427907958626,-4.942997255647033,7.251904158750264
26.907,32.05214650622757,-4.934515093941313,7.249527126873549
26.927000000000003,32.04086510449652,-4.926032932235591,7.247150094996833
26.947000000000003,32.029583702765464,-4.9175507705298696,7.244773063120118
26.967000000000002,32.01830230103441,-4.909068608824149,7.242396031243403
26.987000000000002,32.007020899303356,-4.900586447118428,7.240018999366687
27.007,31.995739497572302,-4.8921042854127075,7.237641967489973
27.027,31.984458095841248,-4.883622123706987,7.235264935613257
27.047,31.973176694110197,-4.875139962001266,7.232887903736542
27.067,31.961895292379143,-4.866657800295545,7.230510871859827
27.087000000000003,31.95061389064809,-4.858175638589823,7.228133839983111
27.107000000000003,31.939332488917035,-4.849693476884102,7.2257568081063965
27.127000000000002,31.92805108718598,-4.8412113151783815,7.223379776229681
27.147000000000002,31.916769685454927,-4.832729153472661,7.221002744352965
27.167,31.905488283723876,-4.82424699176694,7.218625712476251
27.187,31.894206881992822,-4.8157648300612195,7.216248680599535
27.207,31.88292548026177,-4.807282668355499,7.2138716487228205
27.227,31.871644078530714,-4.798800506649778,7.211494616846105
27.247,31.860362676799664,-4.790318344944057,7.20911758496939
27.267000000000003,31.849081275068606,-4.781836183238335,7.206740553092675
27.287000000000003,31.837799873337556,-4.773354021532614,7.204363521215959
27.307000000000002,31.8265184716065,-4.7648718598268935,7.2019864893392445
27.327,31.815237069875447,-4.756389698121173,7.199609457462529
27.347,31.803955668144393,-4.747907536415452,7.197232425585813
27.367,31.792674266413343,-4.7394253747097315,7.194855393709099
27.387,31.78139286468229,-4.730943213004011,7.192478361832383
27.407,31.770111462951235,-4.722461051298289,7.190101329955668
27.427000000000003,31.75883006122018,-4.713978889592568,7.187724298078953
27.447000000000003,31.747548659489127,-4.705496727886847,7.185347266202237
27.467000000000002,31.736267257758072,-4.697014566181126,7.182970234325523
27.487000000000002,31.724985856027022,-4.6885324044754055,7.180593202448807
27.507,31.713704454295968,-4.680050242769685,7.178216170572092
27.527,31.702423052564914,-4.671568081063963,7.175839138695377
27.547,31.69114165083386,-4.6630859193582435,7.173462106818661
27.567,31.67986024910281,-4.654603757652522,7.171085074941947
27.587000000000003,31.66857884737175,-4.6461215959468,7.168708043065231
27.607000000000003,31.6572974456407,-4.63763943424108,7.1663310111885155
27.627000000000002,31.646016043909647,-4.629157272535359,7.163953979311801
27.647000000000002,31.634734642178593,-4.620675110829637,7.161576947435085
27.667,31.62345324044754,-4.6121929491239175,7.1591999155583705
27.687,31.612171838716485,-4.603710787418196,7.156822883681655
27.707,31.600890436985434,-4.595228625712475,7.15444585180494
27.727,31.58960903525438,-4.586746464006755,7.152068819928225
27.747,31.578327633523326,-4.578264302301034,7.149691788051509
27.767000000000003,31.567046231792272,-4.569782140595311,7.147314756174794
27.787000000000003,31.555764830061218,-4.561299978889592,7.144937724298079
27.807000000000002,31.544483428330164,-4.55281781718387,7.142560692421363
27.827,31.533202026599113,-4.544335655478149,7.140183660544649
27.847,31.52192062486806,-4.535853493772429,7.137806628667933
27.867,31.510639223137005,-4.527371332066708,7.1354295967912185
27.887,31.49935782140595,-4.518889170360987,7.133052564914503
27.907,31.4880764196749,-4.510407008655267,7.130675533037787
27.927000000000003,31.476795017943843,-4.501924846949544,7.128298501161072
27.947000000000003,31.465513616212792,-4.493442685243823,7.125921469284357
27.967000000000002,31.45423221448174,-4.484960523538103,7.1235444374076415
27.987000000000002,31.442950812750684,-4.476478361832382,7.121167405530927
28.007,31.43166941101963,-4.467996200126661,7.118790373654211
28.027,31.42038800928858,-4.459514038420941,7.116413341777497
28.047,31.409106607557526,-4.45103187671522,7.114036309900781
28.067,31.39782520582647,-4.442549715009499,7.1116592780240655
28.087000000000003,31.386543804095417,-4.434067553303777,7.10928224614735
28.107000000000003,31.375262402364363,-4.425585391598056,7.106905214270635
28.127000000000002,31.36398100063331,-4.417103229892335,7.10452818239392
28.147000000000002,31.352699598902255,-4.408621068186615,7.102151150517205
28.167,31.341418197171205,-4.400138906480894,7.0997741186404895
28.187,31.33013679544015,-4.391656744775173,7.097397086763775
28.207,31.318855393709097,-4.383174583069453,7.095020054887059
28.227,31.307573991978046,-4.374692421363732,7.0926430230103445
28.247,31.296292590246992,-4.366210259658011,7.090265991133629
28.267000000000003,31.285011188515938,-4.357728097952289,7.087888959256913
28.287000000000003,31.273729786784884,-4.349245936246568,7.085511927380198
28.307000000000002,31.26244838505383,-4.340763774540847,7.083134895503483
28.327,31.251166983322776,-4.332281612835127,7.080757863626768
28.347,31.23988558159172,-4.323799451129406,7.078380831750053
28.367,31.22860417986067,-4.315317289423685,7.076003799873337
28.387,31.217322778129617,-4.306835127717964,7.073626767996623
28.407,31.206041376398563,-4.298352966012244,7.071249736119907
28.427000000000003,31.19475997466751,-4.2898708043065215,7.068872704243192
28.447000000000003,31.183478572936455,-4.281388642600801,7.066495672366477
28.467000000000002,31.1721971712054,-4.272906480895079,7.064118640489761
28.487000000000002,31.16091576947435,-4.264424319189359,7.061741608613046
28.507,31.149634367743296,-4.255942157483638,7.059364576736331
28.527,31.138352966012242,-4.247459995777918,7.0569875448596155
28.547,31.127071564281188,-4.238977834072196,7.054610512982901
28.567,31.115790162550137,-4.230495672366476,7.052233481106185
28.587000000000003,31.10450876081908,-4.222013510660753,7.04985644922947
28.607000000000003,31.093227359088026,-4.2135313489550335,7.047479417352755
28.627000000000002,31.081945957356975,-4.205049187249312,7.0451023854760395
28.647000000000002,31.07066455562592,-4.196567025543592,7.042725353599325
28.667,31.059383153894867,-4.1880848638378705,7.040348321722609
28.687,31.048101752163817,-4.17960270213215,7.037971289845894
28.707,31.036820350432762,-4.171120540426429,7.035594257969179
28.727,-4.0105,11.099499999999999,8.7995
28.747,14.47,2.5645,17.1545
28.767000000000003,24.853538461539312,-0.5576923076929798,19.37923076923049
28.787000000000003,27.137999999999714,-7.807000000000782,13.30399999999904
28.807000000000002,24.240999999999914,-11.330363636363609,4.284272727271965
28.827,21.834333333332822,-10.006333333333156,-4.112555555556222
28.847,14.91469230769189,-9.447384615384628,-4.8513846153844895
28.867,5.506666666666666,-10.548,-0.4796666666666667
28.887,-2.381133333333533,-13.202600000000068,4.50060000000022
28.907,-8.17566666666647,-14.451416666666654,9.577083333333155
28.927000000000003,-9.091461538461683,-14.631692307692363,12.35261538461521
28.947000000000003,-9.143999999999812,-14.93500000000016,10.762166666666428
28.967000000000002,-8.419600000000159,-16.289600000000032,7.547999999999395
28.987000000000002,-10.567285714285926,-15.723142857142767,2.729857142856803
29.007,-12.802111111111207,-13.997666666666522,-2.0105555555558396
29.027,-12.550999999999739,-11.878499999999866,-5.1540000000001225
29.047,-6.315727272727034,-11.334545454545468,-4.2443636363635555
29.067,2.611272727272985,-12.47127272727278,-0.8320909090907931
29.087000000000003,8.66180000000065,-15.18160000000036,4.719400000001087
29.107000000000003,15.835333333335544,-13.941333333332317,10.049666666667877
29.127000000000002,26.639333333334047,-9.30088888888867,13.920555555555584
29.147000000000002,34.55346153846153,-7.2889230769229565,11.58576923076872
29.167,28.94333333333133,-5.223666666665851,7.025999999999417
29.187,23.194,-1.325,2.9825
29.207,18.008500000000215,1.0561428571428095,-2.2718571428569723
29.227,9.884909090908975,2.493363636363646,-6.2958181818181975
29.247,2.4569999999998533,2.0469999999999664,-7.89800000000008
29.267000000000003,-0.22800000000031667,0.3419999999994793,-7.3415714285707
29.287000000000003,-1.9075454545457127,-2.056000000000215,-1.427272727271955
29.307000000000002,-5.163800000000455,-2.645599999999879,4.323200000000576
29.327,-9.159200000000197,-0.2853999999997896,7.008400000000072
29.347,-10.553888888888931,3.1435555555560724,7.664333333333399
29.367,-9.624999999999844,7.193800000000269,8.262600000000058
29.387,-5.943799999999694,9.88580000000011,9.844600000000153
29.407,-1.3583333333336878,9.853444444444508,12.262444444444249
29.427000000000003,3.998500000000795,7.901999999999577,13.679000000000041
29.447000000000003,7.989428571428931,4.455285714285167,13.138857142856942
29.467000000000002,9.935000000000237,2.4360000000000266,13.007000000000232
29.487000000000002,13.92571428571481,2.4665714285713514,16.013142857143162
29.507,21.19054545454559,-0.146909090909215,18.26672727272723
29.527,22.00071428571404,-4.165714285714612,14.595714285713772
29.547,18.621615384615392,-6.534769230769246,6.248153846153917
29.567,19.184384615384612,-6.237384615384593,0.7358461538462319
29.587000000000003,17.15919999999906,-7.043600000000066,-0.762199999999979
29.607000000000003,7.912499999998653,-7.661000000000134,0.6110000000003618
29.627000000000002,0.31333333333278546,-9.023083333333483,3.6500000000004427
29.647000000000002,-4.809000000000408,-10.8710000000003,7.396000000000496
29.667,-5.981666666666498,-13.307666666667265,10.103000000000492
29.687,-6.108999999999993,-15.702000000000103,10.54919999999998
29.707,-7.295750000000345,-16.615500000000118,10.046249999999757
29.727,-10.192705882352975,-17.14988235294117,7.025235294117606
29.747,-12.261090909090896,-15.960000000000043,3.4502727272728313
29.767000000000003,-10.857499999999193,-14.76424999999977,0.590249999999662
29.787000000000003,-3.644142857141423,-13.281285714285454,-0.5521428571427629
29.807000000000002,5.35940000000091,-11.754599999999936,1.0848000000002598
29.827,12.939000000000274,-12.280000000000072,3.8460000000001524
29.847,15.979846153846243,-9.882769230769116,6.3035384615385155
29.867,22.87583333333424,-4.658166666666278,7.715000000000017
29.887,29.836400000000115,-3.338200000000023,5.941199999999861
29.907,29.702374999999925,-1.883624999999908,3.6882499999999783
29.927000000000003,26.210181818181297,0.8070909090910248,2.1085454545449864
29.947000000000003,21.200599999998598,1.2652999999999652,-1.4420000000004094
29.967000000000002,11.565272727271413,1.0505454545454638,-2.7359090909089416
29.987000000000002,2.983222222221441,0.7467777777776543,-1.097888888888639
30.007,-1.2046666666666668,-0.6426666666666667,0.7949999999999999
30.027,-2.4150000000001137,-2.082250000000113,2.1090000000001234
30.047,-3.4692500000000424,-2.5243750000000036,2.9451250000000266
30.067,-6.986,-1.731,4.471
30.087000000000003,-8.673333333333543,-0.034666666666244184,5.997666666666943
30.107000000000003,-9.444125000000085,2.8822500000007123,7.152000000000208
30.127000000000002,-9.198909090908943,7.663545454546206,8.131818181818343
30.147000000000002,-6.674099999999473,11.153500000000271,10.395900000000413
30.167,-1.2742727272721326,10.757363636363477,13.194545454545686
30.187,6.408700000000131,8.851199999999963,15.817300000000039
30.207,11.495333333333333,7.005,15.857333333333333
30.227,15.174545322566011,6.242072407222575,14.526806914073132
30.247,15.178960529897468,6.242279285001361,14.52625523999637
30.267000000000003,15.183375737228928,6.242486162780147,14.525703565919606
30.287000000000003,15.187790944560385,6.242693040558933,14.525151891842844
30.307000000000002,15.192206151891844,6.242899918337719,14.524600217766082
30.327,15.196621359223302,6.243106796116505,14.52404854368932
30.347,15.201036566554759,6.243313673895291,14.523496869612558
30.367,15.205451773886217,6.243520551674076,14.522945195535794
30.387,15.209866981217676,6.243727429452862,14.522393521459032
30.407,15.214282188549134,6.243934307231648,14.52184184738227
30.427000000000003,15.218697395880593,6.2441411850104345,14.521290173305507
30.447000000000003,15.223112603212051,6.2443480627892205,14.520738499228745
30.467000000000002,15.227527810543508,6.2445549405680065,14.520186825151981
30.487000000000002,15.231943017874967,6.244761818346793,14.519635151075219
30.507,15.236358225206425,6.244968696125579,14.519083476998457
30.527,15.240773432537884,6.245175573904365,14.518531802921695
30.547,15.24518863986934,6.245382451683151,14.51798012884493
30.567,15.249603847200799,6.245589329461937,14.517428454768169
30.587000000000003,15.254019054532257,6.245796207240723,14.516876780691407
30.607000000000003,15.258434261863716,6.246003085019508,14.516325106614644
30.627000000000002,15.262849469195174,6.246209962798294,14.515773432537882
30.647000000000002,15.267264676526631,6.24641684057708,14.515221758461118
30.667,15.27167988385809,6.246623718355866,14.514670084384356
30.687,15.276095091189548,6.246830596134652,14.514118410307594
30.707,15.280510298521007,6.247037473913438,14.513566736230832
30.727,15.284925505852463,6.247244351692224,14.51301506215407
30.747,15.289340713183922,6.24745122947101,14.512463388077306
30.767000000000003,15.29375592051538,6.247658107249796,14.511911714000544
30.787000000000003,15.298171127846839,6.247864985028582,14.511360039923781
30.807000000000002,15.302586335178297,6.248071862807368,14.51080836584702
30.827,15.307001542509754,6.248278740586153,14.510256691770255
30.847,15.311416749841213,6.248485618364939,14.509705017693493
30.867,15.315831957172671,6.248692496143725,14.509153343616731
30.887,15.32024716450413,6.248899373922511,14.508601669539969
30.907,15.324662371835586,6.249106251701297,14.508049995463207
30.927000000000003,15.329077579167047,6.249313129480083,14.507498321386443
30.947000000000003,15.333492786498503,6.2495200072588695,14.50694664730968
30.967000000000002,15.337907993829962,6.2497268850376555,14.506394973232918
30.987000000000002,15.34232320116142,6.2499337628164415,14.505843299156156
31.007,15.346738408492879,6.250140640595228,14.505291625079392
31.027,15.351153615824336,6.250347518374014,14.50473995100263
31.047,15.355568823155794,6.2505543961528,14.504188276925868
31.067,15.359984030487253,6.250761273931585,14.503636602849106
31.087000000000003,15.364399237818711,6.250968151710371,14.503084928772344
31.107000000000003,15.36881444515017,6.251175029489157,14.50253325469558
31.127000000000002,15.373229652481626,6.251381907267943,14.501981580618818
31.147000000000002,15.377644859813085,6.251588785046729,14.501429906542056
31.167,15.382060067144543,6.251795662825515,14.500878232465293
31.187,15.386475274476002,6.252002540604301,14.50032655838853
31.207,15.390890481807459,6.252209418383087,14.499774884311767
31.227,15.395305689138917,6.252416296161873,14.499223210235005
31.247000000000003,15.399720896470376,6.252623173940659,14.498671536158243
31.267000000000003,15.404136103801834,6.252830051719445,14.49811986208148
31.287000000000003,15.408551311133293,6.253036929498231,14.497568188004717
31.307000000000002,15.41296651846475,6.253243807277016,14.497016513927955
31.327,15.417381725796208,6.253450685055802,14.496464839851193
31.347,15.421796933127666,6.253657562834588,14.49591316577443
31.367,15.426212140459125,6.253864440613374,14.495361491697668
31.387,15.430627347790582,6.25407131839216,14.494809817620904
31.407,15.43504255512204,6.254278196170946,14.494258143544142
31.427000000000003,15.439457762453499,6.254485073949732,14.49370646946738
31.447000000000003,15.443872969784957,6.254691951728518,14.493154795390618
31.467000000000002,15.448288177116416,6.2548988295073045,14.492603121313854
31.487000000000002,15.452703384447872,6.2551057072860905,14.492051447237092
31.507,15.45711859177933,6.2553125850648765,14.49149977316033
31.527,15.46153379911079,6.255519462843662,14.490948099083568
31.547,15.465949006442248,6.255726340622448,14.490396425006805
31.567,15.470364213773705,6.255933218401234,14.489844750930041
31.587000000000003,15.474779421105165,6.25614009618002,14.48929307685328
31.607000000000003,15.479194628436622,6.256346973958806,14.488741402776517
31.627000000000002,15.48360983576808,6.256553851737592,14.488189728699755
31.647000000000002,15.488025043099539,6.256760729516378,14.487638054622991
31.667,15.492440250430997,6.256967607295164,14.487086380546229
31.687,15.496855457762454,6.25717448507395,14.486534706469467
31.707,15.501270665093912,6.257381362852736,14.485983032392705
31.727,15.50568587242537,6.257588240631522,14.485431358315942
31.747000000000003,15.51010107975683,6.257795118410308,14.484879684239178
31.767000000000003,15.514516287088288,6.258001996189093,14.484328010162416
31.787000000000003,15.518931494419745,6.258208873967879,14.483776336085654
31.807000000000002,15.523346701751203,6.258415751746665,14.483224662008892
31.827,15.527761909082662,6.258622629525451,14.482672987932128
31.847,15.53217711641412,6.258829507304237,14.482121313855366
31.867,15.536592323745577,6.259036385083023,14.481569639778604
31.887,15.541007531077035,6.259243262861809,14.481017965701842
31.907,15.545422738408494,6.259450140640595,14.48046629162508
31.927000000000003,15.549837945739952,6.259657018419381,14.479914617548316
31.947000000000003,15.55425315307141,6.259863896198167,14.479362943471553
31.967000000000002,15.558668360402867,6.260070773976953,14.478811269394791
31.987000000000002,15.563083567734326,6.2602776517557395,14.478259595318029
32.007,15.567498775065783,6.260484529534525,14.477707921241267
32.027,15.571913982397243,6.260691407313311,14.477156247164503
32.047000000000004,15.576329189728702,6.260898285092097,14.47660457308774
32.067,15.580744397060158,6.261105162870883,14.476052899010979
32.087,15.585159604391617,6.261312040649669,14.475501224934217
32.107,15.589574811723075,6.261518918428455,14.474949550857453
32.127,15.593990019054534,6.261725796207241,14.47439787678069
32.147,15.59840522638599,6.261932673986027,14.473846202703928
32.167,15.602820433717449,6.262139551764813,14.473294528627166
32.187000000000005,15.607235641048907,6.262346429543599,14.472742854550404
32.207,15.611650848380366,6.262553307322385,14.47219118047364
32.227000000000004,15.616066055711824,6.262760185101171,14.471639506396878
32.247,15.620481263043281,6.262967062879956,14.471087832320116
32.267,15.62489647037474,6.263173940658742,14.470536158243354
32.287,15.629311677706198,6.263380818437528,14.469984484166591
32.307,15.633726885037657,6.263587696216314,14.469432810089828
32.327,15.638142092369113,6.2637945739951,14.468881136013065
32.347,15.642557299700572,6.264001451773886,14.468329461936303
32.367000000000004,15.64697250703203,6.264208329552672,14.467777787859541
32.387,15.651387714363489,6.264415207331458,14.467226113782777
32.407000000000004,15.655802921694947,6.264622085110244,14.466674439706015
32.427,15.660218129026404,6.26482896288903,14.466122765629253
32.447,15.664633336357863,6.265035840667816,14.46557109155249
32.467,15.669048543689321,6.2652427184466015,14.465019417475729
32.487,15.67346375102078,6.2654495962253876,14.464467743398965
32.507000000000005,15.677878958352238,6.265656474004174,14.463916069322202
32.527,15.682294165683695,6.26586335178296,14.46336439524544
32.547000000000004,15.686709373015155,6.266070229561746,14.462812721168678
32.567,15.691124580346612,6.266277107340532,14.462261047091914
32.587,15.69553978767807,6.266483985119318,14.461709373015152
32.607,15.699954995009527,6.266690862898104,14.46115769893839
32.627,15.704370202340986,6.26689774067689,14.460606024861628
32.647,15.708785409672444,6.267104618455676,14.460054350784866
32.667,15.713200617003903,6.267311496234462,14.459502676708102
32.687000000000005,15.717615824335361,6.267518374013248,14.45895100263134
32.707,15.722031031666818,6.267725251792033,14.458399328554577
32.727000000000004,15.726446238998278,6.267932129570819,14.457847654477815
32.747,15.730861446329735,6.268139007349605,14.457295980401051
32.767,15.735276653661193,6.268345885128391,14.456744306324289
32.787,15.73969186099265,6.268552762907177,14.456192632247527
32.807,15.74410706832411,6.268759640685963,14.455640958170765
32.827,15.748522275655567,6.268966518464749,14.455089284094003
32.847,15.752937482987026,6.269173396243535,14.454537610017239
32.867000000000004,15.757352690318484,6.269380274022321,14.453985935940477
32.887,15.761767897649943,6.269587151801107,14.453434261863714
32.907000000000004,15.766183104981401,6.269794029579893,14.452882587786952
32.927,15.770598312312858,6.270000907358678,14.45233091371019
32.947,15.775013519644316,6.2702077851374645,14.451779239633426
32.967,15.779428726975773,6.2704146629162505,14.451227565556664
32.987,15.783843934307233,6.2706215406950365,14.450675891479902
33.007000000000005,15.788259141638692,6.2708284184738226,14.45012421740314
33.027,15.792674348970149,6.271035296252609,14.449572543326376
33.047000000000004,15.797089556301607,6.271242174031395,14.449020869249614
33.067,15.801504763633066,6.271449051810181,14.448469195172851
33.087,15.805919970964524,6.271655929588967,14.44791752109609
33.107,15.810335178295981,6.271862807367753,14.447365847019327
33.127,15.81475038562744,6.272069685146539,14.446814172942563
33.147,15.819165592958896,6.272276562925325,14.446262498865801
33.167,15.823580800290356,6.27248344070411,14.445710824789039
33.187000000000005,15.827996007621815,6.272690318482896,14.445159150712277
33.207,15.832411214953272,6.272897196261682,14.444607476635513
33.227000000000004,15.83682642228473,6.273104074040468,14.44405580255875
33.247,15.841241629616189,6.273310951819254,14.443504128481989
33.267,15.845656836947647,6.27351782959804,14.442952454405226
33.287,15.850072044279104,6.273724707376826,14.442400780328464
33.307,15.854487251610562,6.273931585155612,14.4418491062517
33.327,15.85890245894202,6.274138462934398,14.441297432174938
33.347,15.86331766627348,6.274345340713184,14.440745758098176
33.367000000000004,15.867732873604938,6.27455221849197,14.440194084021414
33.387,15.872148080936395,6.274759096270756,14.43964240994465
33.407000000000004,15.876563288267853,6.274965974049541,14.439090735867888
33.427,15.880978495599312,6.275172851828327,14.438539061791126
33.447,15.88539370293077,6.275379729607113,14.437987387714363
33.467,15.889808910262227,6.2755866073858995,14.437435713637601
33.487,15.894224117593685,6.2757934851646855,14.436884039560837
33.507000000000005,15.898639324925146,6.2760003629434715,14.436332365484075
33.527,15.903054532256602,6.2762072407222576,14.435780691407313
33.547000000000004,15.90746973958806,6.276414118501044,14.43522901733055
33.567,15.911884946919518,6.27662099627983,14.434677343253789
33.587,15.916300154250976,6.276827874058616,14.434125669177025
33.607,15.920715361582435,6.277034751837402,14.433573995100263
33.627,15.925130568913893,6.277241629616188,14.4330223210235
33.647,15.92954577624535,6.277448507394973,14.432470646946738
33.667,15.933960983576808,6.277655385173759,14.431918972869974
33.687000000000005,15.938376190908269,6.277862262952545,14.431367298793212
33.707,15.942791398239725,6.278069140731331,14.43081562471645
33.727000000000004,15.947206605571184,6.278276018510117,14.430263950639688
33.747,15.95162181290264,6.278482896288903,14.429712276562926
33.767,15.956037020234099,6.278689774067689,14.429160602486162
33.787,15.960452227565558,6.278896651846475,14.4286089284094
33.807,15.964867434897016,6.279103529625261,14.428057254332638
33.827,15.969282642228473,6.279310407404047,14.427505580255875
33.847,15.973697849559931,6.279517285182833,14.426953906179111
33.867000000000004,15.978113056891392,6.279724162961619,14.42640223210235
33.887,15.982528264222848,6.279931040740404,14.425850558025587
33.907000000000004,15.986943471554307,6.28013791851919,14.425298883948825
33.927,15.991358678885764,6.280344796297976,14.424747209872063
33.947,15.995773886217224,6.280551674076762,14.424195535795299
33.967,16.00018909354868,6.280758551855548,14.423643861718537
33.987,16.00460430088014,6.2809654296343345,14.423092187641775
34.007000000000005,16.009019508211598,6.2811723074131205,14.422540513565012
34.027,16.013434715543056,6.2813791851919065,14.42198883948825
34.047000000000004,16.017849922874515,6.2815860629706926,14.421437165411486
34.067,16.02226513020597,6.281792940749479,14.420885491334724
34.087,16.02668033753743,6.281999818528265,14.420333817257962
34.107,16.031095544868887,6.28220669630705,14.4197821431812
34.127,16.035510752200345,6.282413574085836,14.419230469104436
34.147,16.039925959531804,6.282620451864622,14.418678795027674
34.167,16.044341166863262,6.282827329643408,14.418127120950912
34.187000000000005,16.04875637419472,6.283034207422194,14.41757544687415
34.207,16.05317158152618,6.28324108520098,14.417023772797387
34.227000000000004,16.057586788857638,6.283447962979766,14.416472098720623
34.247,16.062001996189096,6.283654840758552,14.415920424643861
34.267,16.066417203520555,6.283861718537338,14.415368750567099
34.287,16.07083241085201,6.284068596316124,14.414817076490337
34.307,16.075247618183468,6.28427547409491,14.414265402413573
34.327000000000005,16.079662825514927,6.284482351873696,14.41371372833681
34.347,16.084078032846385,6.284689229652481,14.413162054260049
34.367000000000004,16.088493240177844,6.284896107431267,14.412610380183287
34.387,16.092908447509302,6.285102985210053,14.412058706106524
34.407000000000004,16.09732365484076,6.285309862988839,14.41150703202976
34.427,16.10173886217222,6.285516740767625,14.410955357952998
34.447,16.106154069503678,6.285723618546411,14.410403683876236
34.467,16.110569276835133,6.285930496325197,14.409852009799474
34.487,16.11498448416659,6.286137374103983,14.40930033572271
34.507000000000005,16.11939969149805,6.2863442518827695,14.408748661645948
34.527,16.123814898829508,6.2865511296615555,14.408196987569186
34.547000000000004,16.128230106160967,6.2867580074403415,14.407645313492424
34.567,16.132645313492425,6.286964885219127,14.407093639415661
34.587,16.137060520823884,6.287171762997913,14.406541965338898
34.607,16.141475728155342,6.287378640776699,14.405990291262135
34.627,16.1458909354868,6.287585518555485,14.405438617185373
34.647,16.150306142818255,6.287792396334271,14.404886943108611
34.667,16.154721350149714,6.287999274113057,14.404335269031849
34.687000000000005,16.159136557481176,6.288206151891843,14.403783594955085
34.707,16.16355176481263,6.288413029670629,14.403231920878323
34.727000000000004,16.16796697214409,6.288619907449415,14.40268024680156
34.747,16.172382179475548,6.288826785228201,14.402128572724799
34.767,16.176797386807007,6.289033663006987,14.401576898648035
34.787,16.181212594138465,6.289240540785773,14.401025224571272
34.807,16.185627801469924,6.289447418564558,14.40047355049451
34.827000000000005,16.190043008801382,6.289654296343344,14.399921876417748
34.847,16.194458216132837,6.28986117412213,14.399370202340986
34.867000000000004,16.1988734234643,6.290068051900916,14.398818528264222
34.887,16.203288630795754,6.290274929679702,14.39826685418746
34.907000000000004,16.207703838127212,6.290481807458488,14.397715180110698
34.927,16.21211904545867,6.290688685237274,14.397163506033936
34.947,16.21653425279013,6.29089556301606,14.396611831957172
34.967,16.220949460121588,6.291102440794846,14.39606015788041
34.987,16.225364667453047,6.291309318573632,14.395508483803647
35.007000000000005,16.229779874784505,6.291516196352418,14.394956809726885
35.027,16.23419508211596,6.2917230741312045,14.394405135650123
35.047000000000004,16.238610289447422,6.29192995190999,14.393853461573359
35.067,16.243025496778877,6.292136829688776,14.393301787496597
35.087,16.247440704110335,6.292343707467562,14.392750113419835
35.107,16.251855911441794,6.292550585246348,14.392198439343073
35.127,16.256271118773252,6.292757463025134,14.391646765266309
35.147,16.26068632610471,6.29296434080392,14.391095091189547
35.167,16.26510153343617,6.293171218582706,14.390543417112784
35.187000000000005,16.269516740767628,6.293378096361492,14.389991743036022
35.207,16.273931948099083,6.293584974140278,14.38944006895926
35.227000000000004,16.278347155430545,6.293791851919064,14.388888394882496
35.247,16.282762362762,6.29399872969785,14.388336720805734
35.267,16.28717757009346,6.294205607476636,14.387785046728972
35.287,16.291592777424917,6.294412485255421,14.38723337265221
35.307,16.296007984756375,6.294619363034207,14.386681698575448
35.327000000000005,16.300423192087834,6.294826240812993,14.386130024498684
35.347,16.304838399419292,6.295033118591779,14.385578350421921
35.367000000000004,16.30925360675075,6.295239996370565,14.38502667634516
35.387,16.313668814082206,6.295446874149351,14.384475002268397
35.407000000000004,16.318084021413668,6.295653751928137,14.383923328191633
35.427,16.322499228745123,6.295860629706923,14.383371654114871
35.447,16.32691443607658,6.296067507485709,14.382819980038109
35.467,16.33132964340804,6.296274385264495,14.382268305961347
35.487,16.3357448507395,6.296481263043281,14.381716631884585
35.507000000000005,16.340160058070957,6.2966881408220665,14.38116495780782
35.527,16.344575265402415,6.2968950186008525,14.380613283731059
35.547000000000004,16.348990472733874,6.297101896379639,14.380061609654296
35.567,16.353405680065332,6.297308774158425,14.379509935577534
35.587,16.35782088739679,6.297515651937211,14.37895826150077
35.607,16.362236094728246,6.297722529715997,14.378406587424008
35.627,16.366651302059704,6.297929407494783,14.377854913347246
35.647,16.371066509391163,6.298136285273569,14.377303239270484
35.667,16.37548171672262,6.298343163052355,14.376751565193722
35.687000000000005,16.37989692405408,6.298550040831141,14.376199891116958
35.707,16.38431213138554,6.298756918609927,14.375648217040196
35.727000000000004,16.388727338716997,6.298963796388713,14.375096542963433
35.747,16.393142546048455,6.299170674167498,14.374544868886671
35.767,16.397557753379914,6.299377551946284,14.37399319480991
35.787,16.40197296071137,6.29958442972507,14.373441520733145
35.807,16.406388168042827,6.299791307503856,14.372889846656383
35.827000000000005,16.410803375374286,6.299998185282642,14.37233817257962
35.847,16.415218582705744,6.300205063061428,14.371786498502859
35.867000000000004,16.419633790037203,6.300411940840214,14.371234824426095
35.887,16.42404899736866,6.300618818619,14.370683150349333
35.907000000000004,16.42846420470012,6.300825696397786,14.37013147627257
35.927,16.43287941203158,6.301032574176572,14.369579802195808
35.947,16.437294619363037,6.301239451955358,14.369028128119046
35.967,16.441709826694492,6.301446329734143,14.368476454042282
35.987,16.44612503402595,6.3016532075129295,14.36792477996552
36.007000000000005,16.45054024135741,6.3018600852917155,14.367373105888758
36.027,16.454955448688867,6.3020669630705015,14.366821431811996
36.047000000000004,16.459370656020326,6.3022738408492875,14.366269757735232
36.067,16.463785863351784,6.302480718628074,14.36571808365847
36.087,16.468201070683243,6.30268759640686,14.365166409581708
36.107,16.4726162780147,6.302894474185646,14.364614735504945
36.127,16.47703148534616,6.303101351964432,14.364063061428183
36.147,16.481446692677615,6.303308229743218,14.36351138735142
36.167,16.485861900009073,6.303515107522004,14.362959713274657
36.187000000000005,16.490277107340535,6.30372198530079,14.362408039197895
36.207,16.49469231467199,6.303928863079575,14.361856365121133
36.227000000000004,16.49910752200345,6.304135740858361,14.36130469104437
36.247,16.503522729334907,6.304342618637147,14.360753016967607
36.267,16.507937936666366,6.304549496415933,14.360201342890845
36.287,16.512353143997824,6.304756374194719,14.359649668814082
36.307,16.516768351329283,6.304963251973505,14.35909799473732
36.327000000000005,16.52118355866074,6.305170129752291,14.358546320660556
36.347,16.5255987659922,6.305377007531077,14.357994646583794
36.367000000000004,16.53001397332366,6.305583885309863,14.357442972507032
36.387,16.534429180655113,6.305790763088649,14.35689129843027
36.407000000000004,16.538844387986572,6.305997640867435,14.356339624353508
