timestamp,acc_x,acc_y,acc_z
0.016,0.78,0.083,-0.488
0.036000000000000004,-0.38733333333333336,0.06005555555555557,-0.9306666666666668
0.05600000000000001,-0.6805999999999999,0.47079999999999994,-0.6177999999999999
0.07600000000000001,-0.5727272727272728,0.2716363636363637,-0.4982727272727271
0.09600000000000002,-0.7080000000000003,0.4472000000000002,-0.030999999999999722
0.11600000000000002,-0.9088,0.5358,0.19740000000000027
0.136,-0.879,0.6486000000000001,0.4764
0.15600000000000003,-0.7099230769230763,0.6441538461538455,0.41107692307692273
0.17600000000000005,-0.16022222222222057,0.04555555555555392,-0.12955555555555887
0.19600000000000006,0.3054000000000008,-0.43600000000000133,-1.3282000000000047
0.21600000000000003,0.5443333333333338,-0.770833333333333,-2.9201666666666672
0.23600000000000004,1.1306000000000018,-0.5482000000000002,-2.7912
0.25600000000000006,2.1755000000000018,-0.9981666666666688,-2.502999999999999
0.2760000000000001,2.6159999999999997,-1.7916000000000019,-2.1192
0.29600000000000004,2.4054117647058817,-2.1855294117647066,-2.22164705882353
0.31600000000000006,1.9285714285714277,-2.585714285714285,-1.6752857142857125
0.3360000000000001,1.4381999999999981,-2.174,-1.3226000000000027
0.3560000000000001,0.763124999999998,-2.4812500000000015,-2.421125000000006
0.3760000000000001,0.5773636363636377,-2.450999999999998,-4.106000000000005
0.3960000000000001,0.7213333333333332,-2.303000000000001,-4.786666666666666
0.4160000000000001,0.534166666666666,-2.8670000000000035,-4.2379999999999916
0.4360000000000001,0.06750000000000292,-3.1031666666666675,-2.0001666666666598
0.45600000000000007,1.0647777777777794,-3.384555555555554,-0.9565555555555545
0.4760000000000001,1.470714285714287,-2.964714285714284,-0.5561428571428555
0.4960000000000001,1.5962499999999964,-1.9486666666666634,0.05174999999999365
0.5160000000000001,0.7686428571428514,-1.5789999999999995,-0.936071428571433
0.5360000000000001,-0.868764705882357,-1.4579999999999989,-1.3762941176470578
0.5560000000000002,-1.0009999999999981,-1.0559999999999992,1.0040000000000073
0.5760000000000001,-0.6829333333333334,-0.7878666666666662,2.8635000000000037
0.5960000000000001,-0.6816000000000001,-0.6851999999999995,3.5135000000000036
0.6160000000000001,-0.4782000000000031,0.1819000000000063,4.382599999999998
0.6360000000000001,-0.7995333333333358,0.49493333333333334,4.643399999999986
0.6560000000000001,-2.541000000000015,1.9669090909090972,1.04954545454544
0.6760000000000002,-4.457000000000009,2.5176,-0.5058000000000038
0.6960000000000002,-7.043363636363632,2.8420000000000196,2.0067272727273
0.7160000000000002,-6.131999999999987,5.3500000000000005,4.375000000000014
0.7360000000000002,-5.050399999999988,5.438000000000001,5.651800000000014
0.7560000000000001,-3.8552307692307783,4.033538461538459,8.789461538461552
0.7760000000000001,-5.8250526315789495,4.277105263157898,11.703000000000008
0.7960000000000002,-4.238700000000013,3.9829999999999917,15.08730000000001
0.8160000000000002,-6.336470588235311,2.40882352941175,15.57482352941176
0.8360000000000002,-6.801999999999973,0.6120000000000089,10.35299999999993
0.8560000000000002,-4.480444444444429,1.342999999999989,5.144111111111089
0.8760000000000002,-3.717913043478257,0.6202173913043417,3.982565217391298
0.8960000000000001,-3.212999999999985,-1.141000000000011,3.4770000000000025
0.9160000000000001,-0.9519999999999902,-1.9909999999999952,3.5929999999999844
0.9360000000000002,-0.06199999999999985,-1.3480000000000059,1.1339999999999903
0.9560000000000002,0.8933636363636593,-2.1486363636363714,0.3819999999999927
0.9760000000000002,2.4070000000000107,-2.759000000000006,-0.3366666666666754
0.9960000000000002,2.8009999999999824,-3.851000000000016,-2.7460000000000164
1.0160000000000002,1.5136666666666576,-5.562666666666688,-3.7307499999999845
1.0360000000000003,1.7260000000000029,-6.411,-3.0450000000000026
1.0560000000000003,1.5024166666666539,-6.476250000000005,-3.8794166666666827
1.0760000000000003,1.077608695652174,-6.731173913043482,-4.375217391304346
1.0960000000000003,1.7865454545454713,-8.23736363636363,-4.765272727272742
1.1160000000000003,2.4563636363636503,-8.471363636363662,-5.749090909090919
1.1360000000000001,3.3979999999999952,-9.831444444444445,-5.749333333333325
1.1560000000000001,2.001999999999989,-9.33038461538461,-4.953230769230767
1.1760000000000002,2.355680000000012,-8.27,-4.888560000000002
1.1960000000000002,4.414272727272713,-9.445727272727272,-2.095999999999978
1.2160000000000002,3.598636363636377,-9.288000000000006,0.7022727272727276
1.2360000000000002,5.6995000000000005,-10.4075,0.4313000000000021
1.2560000000000002,4.943833333333342,-10.843833333333366,1.5850000000000048
1.2760000000000002,3.932818181818153,-13.716272727272695,2.345636363636425
1.2960000000000003,3.334083333333358,-10.238833333333291,8.6594166666668
1.3160000000000003,4.66363636363635,-6.866272727272701,18.94609090909101
1.3360000000000003,3.9380000000000064,-5.7539999999999765,25.622000000000018
1.3560000000000003,4.560555555555569,-1.9442222222221237,24.341111111110976
1.3760000000000003,4.366217391304335,1.5952173913043732,18.64860869565212
1.3960000000000004,-1.0210000000001092,4.104857142857154,10.928142857142753
1.4160000000000004,-6.08130000000002,3.4910666666666597,5.632633333333306
1.4360000000000004,-7.281625000000031,3.034749999999983,3.8562499999999273
1.4560000000000004,-6.646976190476183,2.2115714285714274,0.6512857142857185
1.4760000000000002,-6.176023809523807,2.134428571428571,0.9027142857142871
1.4960000000000002,-4.028599999999994,4.139000000000032,4.408600000000012
1.5160000000000002,-4.3850000000000025,8.320000000000025,5.722000000000016
1.5360000000000003,-4.448700000000018,11.220600000000026,7.5950000000000575
1.5560000000000003,-6.344000000000051,12.205000000000034,9.496000000000018
1.5760000000000003,-13.626181818181825,20.353727272727305,13.580090909090885
1.5960000000000003,-8.857999999999933,19.39799999999992,13.030000000000046
1.6160000000000003,-3.5958181818181414,13.10399999999988,16.858454545454663
1.6360000000000003,-1.889454545454512,5.939909090909014,24.62290909090919
1.6560000000000004,2.2521000000001483,2.613599999999953,28.457400000000007
1.6760000000000004,10.345545454545524,-0.5224545454546017,28.07209090909086
1.6960000000000004,11.494818181818124,-3.4358181818182576,24.119818181818058
1.7160000000000004,6.883099999999979,-7.429100000000007,15.923274999999972
1.7360000000000004,5.645099999999973,-7.89110000000001,14.208774999999962
1.7560000000000004,4.278999999999902,-8.865333333333611,11.893666666666311
1.7760000000000002,10.284499999999948,-15.567000000000068,5.259999999999529
1.7960000000000003,3.2309999999998964,-15.681000000000012,-3.9870000000000894
1.8160000000000003,-4.344142857142929,-16.373285714285718,-7.7801428571428675
1.8360000000000003,-11.587999999999978,-15.538000000000034,-5.17499999999998
1.8560000000000003,-9.455058823529376,-18.30905882352944,-3.5971176470588087
1.8760000000000003,-7.4230000000000675,-19.863000000000003,-2.3380000000000263
1.8960000000000004,-11.112000000000034,-20.068999999999978,-3.9050000000000233
1.9160000000000004,-12.955666666666676,-19.053166666666666,-5.033000000000011
1.9360000000000004,-13.029468749999992,-19.00775,-5.254562499999999
1.9560000000000004,-12.720406249999993,-18.97525,-5.197687499999999
1.9760000000000004,-12.411343749999993,-18.94275,-5.140812499999999
1.9960000000000004,-10.288999999999632,-18.666999999999977,-4.728999999999964
2.0160000000000005,9.447833333333403,-16.120833333333337,0.5560000000000619
2.0360000000000005,14.694000000000207,-14.924999999999843,5.11500000000011
2.0560000000000005,25.4669000000002,-7.68519999999996,8.628299999999978
2.0760000000000005,35.05320000000005,-5.292799999999841,6.599399999999942
2.0960000000000005,33.71639999999984,0.5952000000001496,6.095400000000076
2.1160000000000005,26.932199999999728,4.192400000000079,8.209800000000032
2.1360000000000006,18.38139999999977,6.2127333333333645,8.584199999999985
2.1560000000000006,8.969727272727106,7.144636363636379,7.567181818181787
2.1760000000000006,2.7424999999997604,6.667999999999957,5.875499999999938
2.1960000000000006,-3.3746000000001506,5.756799999999988,4.032199999999936
2.2160000000000006,-7.524181818181912,5.241545454545437,1.9712727272726747
2.2360000000000007,-10.876000000000104,5.424200000000056,0.7427999999999987
2.2560000000000002,-13.848000000000102,7.152000000000062,1.0470000000000248
2.2760000000000002,-17.30387500000007,9.738250000000074,1.6443749999999915
2.2960000000000003,-19.433111111111064,13.352111111111178,0.7331111111110843
2.3160000000000003,-13.359799999999868,15.484799999999979,-0.46360000000000223
2.3360000000000003,-5.257999999999909,13.029124999999938,0.22687500000007194
2.3560000000000003,-2.994199999999999,11.210999999999991,8.806400000000151
2.3760000000000003,0.9659090909092019,9.563090909090889,20.62918181818192
2.3960000000000004,14.863100000000324,7.3310999999999344,30.919000000000203
2.4160000000000004,24.86144444444449,3.167666666666576,34.47244444444437
2.4360000000000004,22.963599999999904,-4.102000000000112,25.890399999999826
2.4560000000000004,14.854111111110948,-11.034666666666688,14.41755555555539
2.4760000000000004,9.779250000000037,-11.26237500000002,6.2397499999998365
2.4960000000000004,9.53239999999992,-12.41520000000001,-0.6454000000000247
2.5160000000000005,1.8663636363635254,-12.470545454545466,-0.3220909090908975
2.5360000000000005,-7.368000000000081,-13.885000000000055,0.8010000000000128
2.5560000000000005,-9.347999999999963,-16.077000000000044,1.196999999999995
2.5760000000000005,-6.414727272727244,-18.37945454545459,0.656727272727249
2.5960000000000005,-5.93600000000004,-20.87600000000004,-0.8830000000000451
2.6160000000000005,-8.023000000000062,-22.201750000000022,-3.0105000000000386
2.6360000000000006,-11.133600000000092,-22.626899999999974,-4.710400000000053
2.6560000000000006,-13.298555555555597,-21.671222222222163,-6.301888888888977
2.6760000000000006,-13.292999999999871,-20.613999999999976,-8.408000000000062
2.6960000000000006,-5.909749999999717,-19.388416666666632,-10.56900000000003
2.7160000000000006,3.293000000000292,-17.745999999999924,-9.48699999999985
2.7360000000000007,15.608636363636672,-14.52672727272719,-2.788181818181608
2.7560000000000007,21.410333333333355,-11.690777777777523,2.055555555555592
2.7760000000000007,23.464100000000176,-4.279699999999843,2.7721000000000378
2.7960000000000007,28.400090909090956,-2.197818181818167,4.2865454545455375
2.8160000000000007,28.514833333333243,1.3085000000001907,7.928833333333447
2.8360000000000007,25.14299999999982,5.973000000000076,10.196999999999887
2.8560000000000008,19.719999999999548,7.514000000000025,6.939999999999798
2.876000000000001,9.493999999999774,7.485999999999983,2.90074999999993
2.896000000000001,2.41615384615366,6.6677692307691805,1.030999999999963
2.9160000000000004,-2.0731250000000943,5.206249999999968,0.4637500000000003
2.9360000000000004,-6.184000000000119,4.063999999999989,0.4680000000000042
2.9560000000000004,-10.611000000000065,4.000111111111123,0.6420000000000062
2.9760000000000004,-13.827000000000035,5.098400000000027,1.0210000000000046
2.9960000000000004,-16.68820000000004,7.967000000000054,1.1421999999999959
3.0160000000000005,-18.10144444444435,11.85888888888899,1.05644444444446
3.0360000000000005,-11.860999999999677,13.982500000000014,2.8763333333335
3.0560000000000005,0.02800000000020031,14.4526,11.273000000000227
3.0760000000000005,5.640444444444619,12.464888888888707,18.436777777777902
3.0960000000000005,9.426250000000012,6.327624999999861,20.38700000000002
3.1160000000000005,8.738249999999935,0.9976249999999669,21.396375
3.1360000000000006,7.177800000000122,-0.12360000000007546,20.59219999999992
3.1560000000000006,10.766800000000066,-2.2272000000000394,17.861399999999932
3.1760000000000006,10.756874999999821,-6.563125000000227,15.088249999999718
3.1960000000000006,8.613909090909184,-9.721636363636414,9.572454545454468
3.2160000000000006,11.885999999999989,-12.025363636363704,6.464181818181687
3.2360000000000007,8.845888888888572,-14.054000000000055,2.4617777777775927
3.2560000000000007,1.5269999999996076,-15.190000000000122,-1.18400000000005
3.2760000000000007,-5.583000000000247,-17.79200000000011,-2.611000000000025
3.2960000000000007,-7.842000000000018,-19.801200000000033,-2.165599999999917
3.3160000000000007,-9.087454545454639,-20.194363636363644,-0.4070909090909004
3.3360000000000007,-12.061800000000057,-20.395000000000007,-0.7608000000000642
3.3560000000000008,-13.033799999999985,-20.23759999999998,-2.8326000000001033
3.376000000000001,-11.497307692307608,-19.43584615384613,-6.280230769230854
3.396000000000001,-7.350888888888677,-18.353555555555484,-9.383555555555606
3.416000000000001,-2.1148181818179688,-16.570090909090823,-9.037999999999876
3.436000000000001,5.494000000000069,-14.12109090909097,-6.901363636363524
3.456000000000001,7.757833333333358,-15.175166666666675,-3.0353333333331656
3.476000000000001,10.42033333333374,-15.542888888888761,3.576555555555826
3.496000000000001,19.92900000000074,-10.342999999999401,7.914000000000125
3.516000000000001,28.900000000000205,-4.288000000000005,9.327999999999928
3.5360000000000005,30.907999999999817,-3.8139999999999086,7.575000000000003
3.5560000000000005,22.59299999999986,0.14200000000005536,8.924000000000087
3.5760000000000005,17.587384615384487,2.5696153846154615,11.263000000000035
3.5960000000000005,11.046333333333122,5.452333333333383,10.574111111111051
3.6160000000000005,5.221499999999889,6.695666666666719,8.46716666666659
3.6360000000000006,3.8895999999998443,9.873599999999866,4.219999999999876
3.6560000000000006,-5.879111111111376,5.093444444444606,0.9618888888888777
3.6760000000000006,-10.934727272727365,7.31445454545455,0.18963636363632602
3.6960000000000006,-13.593000000000103,8.108777777777831,-0.6039999999999978
3.7160000000000006,-15.567000000000041,9.356000000000039,-0.275999999999967
3.7360000000000007,-15.63889999999994,9.91549999999996,1.3205000000001124
3.7560000000000007,-13.420666666666584,8.229444444444376,6.495666666666956
3.7760000000000007,-11.10412499999982,7.099749999999999,13.4165000000003
3.7960000000000007,-4.559249999999538,7.112500000000007,19.68225000000025
3.8160000000000007,5.507000000001003,7.06699999999984,24.270000000000213
3.8360000000000007,20.04820000000027,3.8801999999998995,25.47469999999991
3.8560000000000008,25.96527272727276,0.07118181818167135,20.24063636363614
3.876000000000001,23.551249999999634,-4.065250000000205,13.409249999999778
3.896000000000001,15.476999999999704,-9.02000000000008,8.800999999999846
3.916000000000001,9.815818181818335,-9.59681818181816,2.9534545454543557
3.936000000000001,11.478799999999746,-10.01510000000006,-1.5626000000001625
3.956000000000001,3.5003999999996176,-11.410800000000071,-3.7072000000000225
3.976000000000001,-5.20870000000026,-13.42630000000011,-2.7772999999998644
3.996000000000001,-13.708363636363664,-16.14536363636376,-0.782090909090831
4.016000000000001,-13.311555555555465,-19.564444444444558,2.4412222222223345
4.0360000000000005,-12.409666666666675,-21.96533333333336,4.858000000000016
4.056000000000001,-12.300153846153817,-23.647846153846206,4.951461538461496
4.0760000000000005,-12.122400000000013,-24.587800000000012,3.3409999999998834
4.096000000000001,-12.897333333333366,-24.152666666666594,0.023999999999798682
4.1160000000000005,-11.906199999999965,-22.676999999999982,-3.014100000000022
4.136000000000001,-6.340285714284929,-20.411714285713987,-5.348857142857341
4.156000000000001,3.9728000000002925,-16.291399999999854,-7.2950000000000115
4.176000000000001,9.812272727272882,-13.88581818181821,-6.259727272727147
4.196000000000001,15.74550000000042,-14.494749999999941,-3.3712499999999013
4.216000000000001,26.96020000000043,-9.839199999999707,-1.6445999999999816
4.236000000000001,38.20872727272739,-5.9896363636363965,-1.0150909090909084
4.256000000000001,37.7242499999992,-5.952499999999559,-0.23312499999980354
4.276000000000001,26.83779999999973,-1.0019999999999056,3.3640000000001145
4.296000000000001,18.773111111110552,1.74577777777798,5.046777777777757
4.316000000000001,10.103999999999743,3.999200000000022,4.410799999999947
4.336000000000001,3.6582307692305633,4.652000000000027,2.2013846153844963
4.356000000000001,0.325999999999941,5.832999999999987,-0.673800000000135
4.376000000000001,-2.4080000000003,4.218999999999899,-3.547000000000038
4.396000000000001,-8.052400000000091,3.446200000000019,-3.3537999999999664
4.416000000000001,-10.622000000000135,4.205000000000091,-2.5609999999999333
4.436000000000001,-13.456111111111202,6.686222222222326,-0.8305555555554974
4.456000000000001,-15.167200000000008,9.686800000000217,0.7552000000001616
4.476000000000001,-13.89727272727265,11.63927272727274,4.729818181818403
4.496,-11.46927272727268,11.207636363636343,12.4836363636365
4.516000000000001,-7.616666666666179,9.71788888888875,20.39822222222264
4.5360000000000005,2.5670000000002613,6.661399999999908,25.494800000000044
4.556000000000001,9.350555555555788,4.026222222222084,26.471777777777827
4.5760000000000005,12.553857142857275,1.7357142857141852,25.40014285714271
4.596000000000001,16.83400000000004,-2.2206666666668338,18.944999999999723
4.6160000000000005,14.523333333333222,-7.426666666666754,14.067666666666591
4.636000000000001,10.123000000000133,-9.632545454545495,8.828818181817919
4.656000000000001,13.894399999999994,-10.620700000000008,3.6568999999999243
4.676000000000001,10.021999999999451,-11.137000000000029,0.8279999999999587
4.696000000000001,0.4959999999996452,-12.1050000000001,0.7980000000000218
4.716000000000001,-5.908000000000212,-14.127000000000091,1.180000000000006
4.736000000000001,-7.848999999999934,-16.372000000000146,1.348999999999931
4.756000000000001,-5.538999999999883,-19.05745454545464,0.2333636363636365
4.776000000000001,-5.593000000000173,-20.337000000000053,-0.30900000000013444
4.796000000000001,-9.021100000000287,-20.84950000000002,-3.8142000000001706
4.816000000000001,-12.299285714285698,-20.236285714285682,-6.555285714285786
4.836000000000001,-10.89279999999981,-18.56739999999986,-9.518800000000201
4.856000000000001,-6.577571428571263,-16.681285714285682,-11.591857142857132
4.876000000000001,2.265900000000542,-14.723399999999872,-9.342699999999784
4.896000000000001,11.676636363636701,-12.721363636363572,-4.583909090908852
4.916000000000001,17.316222222222375,-11.372666666666483,-0.7482222222221551
4.936000000000001,20.62540000000038,-6.687999999999584,-0.0009999999999387998
4.956000000000001,26.852500000000173,-2.3452500000001164,1.6731250000002884
4.976000000000001,26.18099999999989,-1.9213333333332379,6.706333333333466
4.996000000000001,21.73787499999976,1.4351250000002005,10.264875000000035
5.016000000000001,16.80989999999961,3.6982000000000568,8.777799999999786
5.036000000000001,9.093818181817756,4.249818181818184,4.302181818181569
5.056000000000001,2.422499999999808,3.924999999999967,0.8874999999999373
5.076000000000001,-2.3486363636366003,2.8684545454544783,-0.07263636363636308
5.096000000000001,-6.286428571428896,1.908428571428507,0.21242857142862215
5.116000000000001,-9.5528571428574,1.5987142857143553,0.8348571428572061
5.136000000000001,-12.658769230769302,2.787307692307747,1.6181538461538805
5.156000000000001,-14.869000000000018,5.658666666666737,3.1153333333333633
5.176000000000001,-14.795999999999916,8.766200000000158,4.020200000000068
5.196000000000001,-11.984999999999806,11.263000000000059,6.6570000000002025
5.216000000000001,-7.735749999999792,11.615749999999979,11.528250000000256
5.236000000000001,-2.1045999999998353,11.427799999999989,17.321800000000092
5.256000000000001,5.757428571429576,10.184857142856838,19.631000000000157
5.276000000000001,13.667250000000218,7.331249999999874,21.40187500000008
5.296000000000001,17.71333333333374,5.064999999999797,21.021333333333086
5.316000000000001,21.666888888888863,2.3141111111110524,16.72177777777768
5.336000000000001,17.045142857142025,-1.8200000000005798,12.716571428571084
5.356000000000001,9.158714285714334,-5.9145714285714455,9.631142857142853
5.376000000000001,14.286900000000102,-8.21200000000019,8.915599999999795
5.396000000000001,9.52155555555512,-10.131888888888984,3.3092222222219587
5.416000000000001,0.8289090909086112,-12.0183636363637,-0.6097272727273148
5.436000000000001,-6.451888888889024,-13.473666666666777,-0.7707777777777218
5.456000000000001,-7.845500000000101,-14.980250000000115,1.2949999999999633
5.476000000000001,-7.970333333333234,-17.64455555555558,0.615222222222212
5.496000000000001,-6.243749999999862,-18.87962500000013,0.5232499999999356
5.516000000000001,-5.913700000000108,-20.000799999999998,-0.7423000000000555
5.536000000000001,-8.041090909091041,-19.77472727272726,-2.641909090909231
5.556000000000001,-9.82437499999998,-19.50612499999999,-4.621625000000175
5.576000000000001,-7.696142857142335,-19.309142857142835,-7.335142857143216
5.596000000000001,-0.8609999999996734,-18.703999999999944,-10.537000000000026
5.616000000000001,3.9452666666669307,-17.524666666666587,-9.901266666666583
5.636000000000001,6.236000000000106,-17.10849999999997,-3.688999999999267
5.6560000000000015,9.200555555556226,-14.17044444444379,7.071111111111847
5.676000000000001,20.682000000000606,-5.026999999999667,13.452000000000105
5.6960000000000015,31.717416666667035,-1.6718333333332047,13.46674999999989
5.716000000000001,30.538727272726895,1.6325454545456064,12.564000000000018
5.7360000000000015,20.863249999999432,4.335375000000106,11.62712499999971
5.756000000000001,14.141599999999587,5.303800000000026,7.781399999999709
5.776000000000002,7.87599999999947,5.258799999999922,3.9315999999997415
5.796000000000001,1.8857777777773987,3.8017777777776276,1.577555555555484
5.816000000000001,-2.2440909090910135,2.1949090909090474,0.8752727272727044
5.836000000000001,-6.354500000000135,1.1492499999999828,0.3238333333333123
5.856000000000001,-8.523277777777794,0.8514444444444327,-0.36083333333335277
5.876000000000001,-10.91650000000016,1.6640000000001127,-0.581499999999969
5.896000000000001,-13.292000000000185,3.9020000000002484,-0.26499999999991686
5.916000000000001,-15.030499999999975,6.458833333333486,1.0810000000002393
5.936000000000001,-13.701485714285672,8.07874285714288,4.455200000000076
5.956000000000001,-12.878057142857086,8.537028571428602,5.983200000000105
5.976000000000001,-4.863999999999524,8.660714285714073,18.414142857143553
5.996000000000001,1.3631428571432005,4.785571428571096,24.872857142857114
6.016000000000001,1.5306666666664723,2.1443333333333325,20.11466666666621
6.036000000000001,3.3525000000004734,1.6934999999999385,17.48850000000016
6.056000000000001,10.421000000000335,0.26699999999979906,20.737428571428662
6.076000000000001,12.647999999999817,-5.328000000000346,18.255599999999564
6.096000000000001,13.07944444444473,-8.667222222222373,11.568999999999503
6.116000000000001,15.015555555555377,-10.372666666666712,5.599999999999522
6.136000000000001,9.744299999999548,-10.917300000000038,-0.6358000000001935
6.1560000000000015,1.8331999999994355,-11.807500000000092,-2.4082999999998886
6.176000000000001,-3.104090909090986,-13.070909090909133,-0.8859999999999351
6.1960000000000015,-3.975800000000543,-14.38620000000022,1.2643999999996813
6.216000000000001,-6.290499999999998,-16.16450000000002,-1.0039999999999454
6.2360000000000015,-6.45166666666677,-16.83900000000007,-0.20199999999995144
6.256000000000001,-8.741625000000209,-17.605250000000026,-0.5568750000000815
6.276000000000002,-11.492500000000144,-17.58399999999997,-2.6690000000002003
6.296000000000001,-12.017571428571385,-16.961285714285683,-5.775428571428709
6.316000000000002,-8.923999999999491,-15.985999999999867,-8.682000000000091
6.336000000000001,-2.674428571427752,-14.598142857142705,-8.482142857142614
6.356000000000002,5.777181818182294,-12.717454545454451,-5.325636363636063
6.376000000000001,10.434753238741518,-12.195541024059223,-1.6153942011104254
6.396000000000002,10.44059736787991,-12.194011104256631,-1.6100415381451774
6.416000000000001,10.446441497018302,-12.19248118445404,-1.6046888751799298
6.436000000000001,10.452285626156694,-12.19095126465145,-1.5993362122146821
6.456000000000001,10.458129755295085,-12.189421344848858,-1.593983549249434
6.476000000000001,10.463973884433477,-12.187891425046267,-1.5886308862841865
6.496000000000001,10.469818013571869,-12.186361505243676,-1.5832782233189386
6.516000000000001,10.475662142710261,-12.184831585441085,-1.577925560353691
6.536000000000001,10.481506271848653,-12.183301665638494,-1.572572897388443
6.556000000000001,10.487350400987046,-12.181771745835903,-1.5672202344231954
6.576000000000001,10.493194530125438,-12.180241826033312,-1.5618675714579475
6.596000000000001,10.49903865926383,-12.178711906230722,-1.5565149084926997
6.616000000000001,10.50488278840222,-12.177181986428131,-1.5511622455274519
6.636000000000001,10.510726917540612,-12.17565206662554,-1.5458095825622042
6.6560000000000015,10.516571046679005,-12.174122146822949,-1.5404569195969562
6.676000000000001,10.522415175817397,-12.172592227020358,-1.5351042566317086
6.6960000000000015,10.528259304955789,-12.171062307217767,-1.5297515936664607
6.716000000000001,10.534103434094181,-12.169532387415176,-1.524398930701213
6.7360000000000015,10.539947563232573,-12.168002467612585,-1.519046267735965
6.756000000000001,10.545791692370965,-12.166472547809994,-1.5136936047707175
6.776000000000002,10.551635821509358,-12.164942628007402,-1.5083409418054694
6.796000000000001,10.557479950647748,-12.163412708204811,-1.5029882788402218
6.816000000000002,10.56332407978614,-12.16188278840222,-1.497635615874974
6.836000000000001,10.569168208924532,-12.16035286859963,-1.4922829529097261
6.856000000000002,10.575012338062924,-12.158822948797038,-1.4869302899444783
6.876000000000001,10.580856467201317,-12.157293028994447,-1.4815776269792307
6.896000000000002,10.586700596339709,-12.155763109191856,-1.4762249640139826
6.916000000000001,10.5925447254781,-12.154233189389265,-1.470872301048735
6.936000000000002,10.598388854616493,-12.152703269586674,-1.4655196380834872
6.956000000000001,10.604232983754883,-12.151173349784084,-1.4601669751182393
6.976000000000002,10.610077112893276,-12.149643429981493,-1.4548143121529915
6.996000000000001,10.615921242031668,-12.148113510178902,-1.449461649187744
7.016000000000002,10.62176537117006,-12.146583590376311,-1.4441089862224958
7.036000000000001,10.627609500308452,-12.14505367057372,-1.4387563232572482
7.056000000000001,10.633453629446844,-12.143523750771129,-1.4334036602920006
7.076000000000001,10.639297758585236,-12.141993830968538,-1.4280509973267526
7.096000000000001,10.645141887723627,-12.140463911165947,-1.422698334361505
7.116000000000001,10.650986016862019,-12.138933991363356,-1.4173456713962571
7.136000000000001,10.656830146000411,-12.137404071560765,-1.4119930084310095
7.1560000000000015,10.662674275138803,-12.135874151758173,-1.4066403454657614
7.176000000000001,10.668518404277195,-12.134344231955582,-1.4012876825005138
7.1960000000000015,10.674362533415588,-12.132814312152991,-1.395935019535266
7.216000000000001,10.68020666255398,-12.1312843923504,-1.3905823565700182
7.2360000000000015,10.686050791692372,-12.129754472547809,-1.3852296936047703
7.256000000000001,10.691894920830762,-12.128224552745218,-1.3798770306395227
7.276000000000002,10.697739049969154,-12.126694632942627,-1.3745243676742747
7.296000000000001,10.703583179107547,-12.125164713140038,-1.369171704709027
7.316000000000002,10.709427308245939,-12.123634793337446,-1.3638190417437792
7.336000000000001,10.715271437384331,-12.122104873534855,-1.3584663787785314
7.356000000000002,10.721115566522723,-12.120574953732264,-1.3531137158132835
7.376000000000001,10.726959695661115,-12.119045033929673,-1.347761052848036
7.396000000000002,10.732803824799507,-12.117515114127082,-1.3424083898827879
7.416000000000001,10.738647953937898,-12.115985194324491,-1.3370557269175403
7.436000000000002,10.74449208307629,-12.1144552745219,-1.3317030639522924
7.456000000000001,10.750336212214682,-12.112925354719309,-1.3263504009870446
7.476000000000002,10.756180341353074,-12.111395434916718,-1.3209977380217968
7.496000000000001,10.762024470491466,-12.109865515114127,-1.3156450750565492
7.516000000000002,10.767868599629859,-12.108335595311535,-1.310292412091301
7.536000000000001,10.77371272876825,-12.106805675508944,-1.3049397491260535
7.556000000000002,10.779556857906643,-12.105275755706353,-1.2995870861608056
7.576000000000001,10.785400987045033,-12.103745835903762,-1.294234423195558
7.596000000000002,10.791245116183426,-12.102215916101171,-1.28888176023031
7.616000000000001,10.797089245321818,-12.10068599629858,-1.2835290972650624
7.636000000000002,10.80293337446021,-12.099156076495989,-1.2781764342998145
7.6560000000000015,10.808777503598602,-12.0976261566934,-1.2728237713345667
7.676000000000002,10.814621632736994,-12.096096236890808,-1.2674711083693189
7.6960000000000015,10.820465761875386,-12.094566317088217,-1.262118445404071
7.716000000000001,10.826309891013778,-12.093036397285626,-1.2567657824388234
7.7360000000000015,10.83215402015217,-12.091506477483035,-1.2514131194735756
7.756000000000001,10.837998149290561,-12.089976557680444,-1.246060456508328
7.776000000000002,10.843842278428953,-12.088446637877853,-1.24070779354308
7.796000000000001,10.849686407567345,-12.086916718075262,-1.2353551305778323
7.816000000000002,10.855530536705738,-12.08538679827267,-1.2300024676125845
7.836000000000001,10.86137466584413,-12.08385687847008,-1.2246498046473366
7.856000000000002,10.867218794982522,-12.082326958667489,-1.2192971416820888
7.876000000000001,10.873062924120914,-12.080797038864898,-1.2139444787168412
7.896000000000002,10.878907053259306,-12.079267119062306,-1.2085918157515931
7.916000000000001,10.884751182397697,-12.077737199259715,-1.2032391527863455
7.936000000000002,10.890595311536089,-12.076207279457124,-1.1978864898210977
7.956000000000001,10.896439440674481,-12.074677359654533,-1.19253382685585
7.976000000000002,10.902283569812873,-12.073147439851942,-1.187181163890602
7.996000000000001,10.908127698951265,-12.071617520049353,-1.1818285009253544
8.016000000000002,10.913971828089657,-12.070087600246762,-1.1764758379601066
8.036000000000001,10.91981595722805,-12.06855768044417,-1.1711231749948587
8.056000000000001,10.92566008636644,-12.06702776064158,-1.1657705120296111
8.076000000000002,10.931504215504834,-12.065497840838988,-1.160417849064363
8.096000000000002,10.937348344643224,-12.063967921036397,-1.1550651860991152
8.116000000000001,10.943192473781616,-12.062438001233806,-1.1497125231338676
8.136000000000001,10.949036602920009,-12.060908081431215,-1.14435986016862
8.156000000000002,10.9548807320584,-12.059378161628624,-1.1390071972033717
8.176000000000002,10.960724861196793,-12.057848241826033,-1.1336545342381241
8.196000000000002,10.966568990335185,-12.056318322023442,-1.1283018712728765
8.216000000000001,10.972413119473575,-12.05478840222085,-1.1229492083076287
8.236000000000002,10.978257248611968,-12.05325848241826,-1.1175965453423806
8.256000000000002,10.98410137775036,-12.051728562615668,-1.112243882377133
8.276000000000002,10.989945506888752,-12.050198642813077,-1.1068912194118852
8.296000000000001,10.995789636027144,-12.048668723010486,-1.1015385564466376
8.316000000000003,11.001633765165536,-12.047138803207895,-1.0961858934813895
8.336000000000002,11.007477894303928,-12.045608883405304,-1.0908332305161417
8.356000000000002,11.01332202344232,-12.044078963602715,-1.085480567550894
8.376000000000001,11.019166152580711,-12.042549043800124,-1.0801279045856464
8.396,11.025010281719103,-12.041019123997533,-1.0747752416203986
8.416000000000002,11.030854410857495,-12.039489204194942,-1.0694225786551506
8.436000000000002,11.036698539995887,-12.03795928439235,-1.064069915689903
8.456000000000001,11.04254266913428,-12.03642936458976,-1.0587172527246551
8.476,11.048386798272672,-12.034899444787168,-1.0533645897594075
8.496000000000002,11.054230927411064,-12.033369524984577,-1.0480119267941594
8.516000000000002,11.060075056549456,-12.031839605181986,-1.0426592638289116
8.536000000000001,11.065919185687846,-12.030309685379395,-1.037306600863664
8.556000000000001,11.071763314826239,-12.028779765576804,-1.0319539378984164
8.576000000000002,11.07760744396463,-12.027249845774213,-1.026601274933168
8.596000000000002,11.083451573103023,-12.025719925971622,-1.0212486119679205
8.616000000000001,11.089295702241415,-12.02419000616903,-1.0158959490026729
8.636000000000001,11.095139831379807,-12.02266008636644,-1.010543286037425
8.656000000000002,11.1009839605182,-12.021130166563848,-1.005190623072177
8.676000000000002,11.106828089656592,-12.019600246761257,-0.9998379601069294
8.696000000000002,11.112672218794984,-12.018070326958668,-0.9944852971416817
8.716000000000001,11.118516347933374,-12.016540407156077,-0.989132634176434
8.736000000000002,11.124360477071766,-12.015010487353486,-0.9837799712111859
8.756000000000002,11.130204606210159,-12.013480567550895,-0.9784273082459382
8.776000000000002,11.13604873534855,-12.011950647748304,-0.9730746452806905
8.796000000000001,11.141892864486943,-12.010420727945712,-0.9677219823154428
8.816000000000003,11.147736993625335,-12.008890808143121,-0.9623693193501947
8.836000000000002,11.153581122763727,-12.00736088834053,-0.957016656384947
8.856000000000002,11.159425251902118,-12.00583096853794,-0.9516639934196993
8.876000000000001,11.16526938104051,-12.004301048735348,-0.9463113304544516
8.896000000000003,11.171113510178902,-12.002771128932757,-0.9409586674892035
8.916000000000002,11.176957639317294,-12.001241209130166,-0.9356060045239558
8.936000000000002,11.182801768455686,-11.999711289327575,-0.9302533415587081
8.956000000000001,11.188645897594078,-11.998181369524984,-0.9249006785934605
8.976,11.19449002673247,-11.996651449722393,-0.9195480156282128
8.996000000000002,11.200334155870863,-11.995121529919802,-0.9141953526629646
9.016000000000002,11.206178285009255,-11.99359161011721,-0.908842689697717
9.036000000000001,11.212022414147645,-11.992061690314621,-0.9034900267324693
9.056000000000001,11.217866543286037,-11.99053177051203,-0.8981373637672216
9.076000000000002,11.22371067242443,-11.989001850709439,-0.8927847008019735
9.096000000000002,11.229554801562822,-11.987471930906848,-0.8874320378367258
9.116000000000001,11.235398930701214,-11.985942011104257,-0.8820793748714781
9.136000000000001,11.241243059839606,-11.984412091301666,-0.8767267119062304
9.156000000000002,11.247087188977998,-11.982882171499075,-0.8713740489409822
9.176000000000002,11.25293131811639,-11.981352251696483,-0.8660213859757346
9.196000000000002,11.25877544725478,-11.979822331893892,-0.8606687230104869
9.216000000000001,11.264619576393173,-11.978292412091301,-0.8553160600452393
9.236000000000002,11.270463705531565,-11.97676249228871,-0.8499633970799911
9.256000000000002,11.276307834669957,-11.975232572486119,-0.8446107341147434
9.276000000000002,11.28215196380835,-11.973702652683528,-0.8392580711494958
9.296000000000001,11.287996092946742,-11.972172732880937,-0.8339054081842481
9.316000000000003,11.293840222085134,-11.970642813078346,-0.8285527452189999
9.336000000000002,11.299684351223526,-11.969112893275755,-0.8232000822537523
9.356000000000002,11.305528480361916,-11.967582973473164,-0.8178474192885046
9.376000000000001,11.311372609500308,-11.966053053670574,-0.8124947563232569
9.396000000000003,11.3172167386387,-11.964523133867983,-0.8071420933580088
9.416000000000002,11.323060867777093,-11.962993214065392,-0.8017894303927611
9.436000000000002,11.328904996915485,-11.961463294262801,-0.7964367674275133
9.456000000000001,11.334749126053877,-11.95993337446021,-0.7910841044622657
9.476000000000003,11.34059325519227,-11.958403454657619,-0.7857314414970176
9.496000000000002,11.346437384330661,-11.956873534855028,-0.7803787785317698
9.516000000000002,11.352281513469052,-11.955343615052437,-0.7750261155665222
9.536000000000001,11.358125642607444,-11.953813695249845,-0.7696734526012745
9.556000000000003,11.363969771745836,-11.952283775447254,-0.7643207896360263
9.576000000000002,11.369813900884228,-11.950753855644663,-0.7589681266707787
9.596000000000002,11.37565803002262,-11.949223935842072,-0.753615463705531
9.616000000000001,11.381502159161013,-11.947694016039481,-0.7482628007402834
9.636000000000001,11.387346288299405,-11.94616409623689,-0.7429101377750357
9.656000000000002,11.393190417437797,-11.944634176434299,-0.7375574748097875
9.676000000000002,11.399034546576187,-11.943104256631708,-0.7322048118445399
9.696000000000002,11.40487867571458,-11.941574336829117,-0.7268521488792922
9.716000000000001,11.410722804852972,-11.940044417026527,-0.7214994859140446
9.736000000000002,11.416566933991364,-11.938514497223935,-0.7161468229487964
9.756000000000002,11.422411063129756,-11.936984577421345,-0.7107941599835487
9.776000000000002,11.428255192268148,-11.935454657618754,-0.7054414970183011
9.796000000000001,11.434099321406539,-11.933924737816163,-0.7000888340530533
9.816000000000003,11.439943450544932,-11.932394818013572,-0.6947361710878052
9.836000000000002,11.445787579683323,-11.93086489821098,-0.6893835081225576
9.856000000000002,11.451631708821715,-11.92933497840839,-0.6840308451573098
9.876000000000001,11.457475837960107,-11.927805058605799,-0.6786781821920621
9.896000000000003,11.4633199670985,-11.926275138803208,-0.673325519226814
9.916000000000002,11.469164096236891,-11.924745219000616,-0.6679728562615663
9.936000000000002,11.475008225375284,-11.923215299198025,-0.6626201932963186
9.956000000000001,11.480852354513676,-11.921685379395434,-0.657267530331071
9.976000000000003,11.486696483652068,-11.920155459592843,-0.6519148673658228
9.996000000000002,11.49254061279046,-11.918625539790252,-0.6465622044005751
10.016000000000002,11.49838474192885,-11.917095619987661,-0.6412095414353275
10.036000000000001,11.504228871067243,-11.91556570018507,-0.6358568784700798
10.056000000000003,11.510073000205635,-11.914035780382479,-0.6305042155048316
10.076000000000002,11.515917129344027,-11.912505860579888,-0.625151552539584
10.096000000000002,11.52176125848242,-11.910975940777298,-0.6197988895743363
10.116000000000001,11.527605387620811,-11.909446020974707,-0.6144462266090887
10.136000000000003,11.533449516759203,-11.907916101172116,-0.6090935636438404
10.156000000000002,11.539293645897594,-11.906386181369525,-0.6037409006785928
10.176000000000002,11.545137775035986,-11.904856261566934,-0.5983882377133452
10.196000000000002,11.550981904174378,-11.903326341764343,-0.5930355747480975
10.216000000000003,11.55682603331277,-11.901796421961752,-0.5876829117828493
10.236000000000002,11.562670162451163,-11.90026650215916,-0.5823302488176016
10.256000000000002,11.568514291589555,-11.89873658235657,-0.576977585852354
10.276000000000002,11.574358420727947,-11.897206662553979,-0.5716249228871062
10.296000000000001,11.580202549866337,-11.895676742751387,-0.5662722599218586
10.316000000000003,11.586046679004731,-11.894146822948796,-0.5609195969566105
10.336000000000002,11.591890808143122,-11.892616903146205,-0.5555669339913627
10.356000000000002,11.597734937281514,-11.891086983343614,-0.5502142710261151
10.376000000000001,11.603579066419906,-11.889557063541023,-0.5448616080608675
10.396000000000003,11.609423195558298,-11.888027143738432,-0.5395089450956192
10.416000000000002,11.61526732469669,-11.88649722393584,-0.5341562821303716
10.436000000000002,11.621111453835082,-11.884967304133252,-0.528803619165124
10.456000000000001,11.626955582973473,-11.88343738433066,-0.5234509561998761
10.476000000000003,11.632799712111865,-11.88190746452807,-0.5180982932346281
10.496000000000002,11.638643841250257,-11.880377544725478,-0.5127456302693805
10.516000000000002,11.64448797038865,-11.878847624922887,-0.5073929673041326
10.536000000000001,11.650332099527041,-11.877317705120296,-0.502040304338885
10.556000000000003,11.656176228665434,-11.875787785317705,-0.49668764137363697
10.576000000000002,11.662020357803826,-11.874257865515114,-0.49133497840838913
10.596000000000002,11.667864486942218,-11.872727945712523,-0.4859823154431415
10.616000000000001,11.67370861608061,-11.871198025909932,-0.4806296524778939
10.636000000000003,11.679552745219002,-11.86966810610734,-0.47527698951264563
10.656000000000002,11.685396874357393,-11.86813818630475,-0.469924326547398
10.676000000000002,11.691241003495785,-11.866608266502158,-0.4645716635821504
10.696000000000002,11.697085132634177,-11.865078346699567,-0.4592190006169028
10.716000000000003,11.702929261772569,-11.863548426896976,-0.4538663376516545
10.736000000000002,11.708773390910961,-11.862018507094385,-0.4485136746864069
10.756000000000002,11.714617520049353,-11.860488587291794,-0.4431610117211593
10.776000000000002,11.720461649187744,-11.858958667489205,-0.43780834875591146
10.796000000000003,11.726305778326138,-11.857428747686614,-0.4324556857906634
10.816000000000003,11.732149907464528,-11.855898827884022,-0.4271030228254158
10.836000000000002,11.73799403660292,-11.854368908081431,-0.42175035986016796
10.856000000000002,11.743838165741312,-11.85283898827884,-0.41639769689492034
10.876000000000003,11.749682294879705,-11.85130906847625,-0.4110450339296723
10.896000000000003,11.755526424018097,-11.849779148673658,-0.40569237096442445
10.916000000000002,11.761370553156489,-11.848249228871067,-0.40033970799917684
10.936000000000002,11.767214682294881,-11.846719309068476,-0.39498704503392923
10.956000000000001,11.773058811433271,-11.845189389265885,-0.3896343820686814
10.976000000000003,11.778902940571664,-11.843659469463294,-0.38428171910343334
10.996000000000002,11.784747069710056,-11.842129549660703,-0.3789290561381857
11.016000000000002,11.790591198848448,-11.840599629858112,-0.3735763931729379
11.036000000000001,11.79643532798684,-11.83906971005552,-0.3682237302076903
11.056000000000003,11.802279457125232,-11.83753979025293,-0.3628710672424422
11.076000000000002,11.808123586263624,-11.836009870450338,-0.3575184042771944
11.096000000000002,11.813967715402015,-11.834479950647747,-0.3521657413119468
11.116000000000001,11.819811844540407,-11.832950030845158,-0.34681307834669917
11.136000000000003,11.8256559736788,-11.831420111042567,-0.3414604153814509
11.156000000000002,11.831500102817191,-11.829890191239976,-0.3361077524162033
11.176000000000002,11.837344231955583,-11.828360271437385,-0.33075508945095566
11.196000000000002,11.843188361093976,-11.826830351634793,-0.32540242648570805
11.216000000000003,11.849032490232368,-11.825300431832202,-0.3200497635204598
11.236000000000002,11.85487661937076,-11.823770512029611,-0.31469710055521216
11.256000000000002,11.860720748509152,-11.82224059222702,-0.30934443758996455
11.276000000000002,11.866564877647543,-11.820710672424429,-0.3039917746247167
11.296000000000003,11.872409006785936,-11.819180752621838,-0.29863911165946866
11.316000000000003,11.878253135924327,-11.817650832819247,-0.29328644869422105
11.336000000000002,11.884097265062719,-11.816120913016656,-0.2879337857289732
11.356000000000002,11.889941394201111,-11.814590993214065,-0.2825811227637256
11.376000000000003,11.895785523339503,-11.813061073411474,-0.27722845979847754
11.396000000000003,11.901629652477896,-11.811531153608883,-0.2718757968332297
11.416000000000002,11.907473781616288,-11.810001233806291,-0.2665231338679821
11.436000000000002,11.913317910754678,-11.8084713140037,-0.2611704709027345
11.456000000000003,11.91916203989307,-11.80694139420111,-0.2558178079374862
11.476000000000003,11.925006169031462,-11.805411474398518,-0.2504651449722386
11.496000000000002,11.930850298169855,-11.803881554595929,-0.24511248200699098
11.516000000000002,11.936694427308247,-11.802351634793338,-0.23975981904174315
11.536000000000003,11.942538556446639,-11.800821714990747,-0.2344071560764951
11.556000000000003,11.948382685585031,-11.799291795188156,-0.22905449311124748
11.576000000000002,11.954226814723423,-11.797761875385564,-0.22370183014599965
11.596000000000002,11.960070943861814,-11.796231955582973,-0.21834916718075204
11.616000000000001,11.965915073000206,-11.794702035780382,-0.21299650421550442
11.636000000000003,11.971759202138598,-11.793172115977791,-0.20764384125025614
11.656000000000002,11.97760333127699,-11.7916421961752,-0.20229117828500853
11.676000000000002,11.983447460415382,-11.790112276372609,-0.19693851531976092
11.696000000000002,11.989291589553774,-11.788582356570018,-0.1915858523545133
11.716000000000003,11.995135718692167,-11.787052436767427,-0.18623318938926503
11.736000000000002,12.000979847830559,-11.785522516964836,-0.18088052642401742
11.756000000000002,12.006823976968949,-11.783992597162245,-0.1755278634587698
11.776000000000002,12.012668106107341,-11.782462677359653,-0.17017520049352197
11.796000000000003,12.018512235245733,-11.780932757557062,-0.16482253752827392
11.816000000000003,12.024356364384126,-11.779402837754471,-0.1594698745630263
11.836000000000002,12.030200493522518,-11.777872917951882,-0.15411721159777847
11.856000000000002,12.03604462266091,-11.77634299814929,-0.14876454863253086
11.876000000000003,12.041888751799302,-11.7748130783467,-0.1434118856672828
11.896000000000003,12.047732880937694,-11.773283158544109,-0.13805922270203497
11.916000000000002,12.053577010076086,-11.771753238741518,-0.13270655973678736
11.936000000000002,12.059421139214477,-11.770223318938926,-0.12735389677153974
11.956000000000003,12.065265268352869,-11.768693399136335,-0.12200123380629146
11.976000000000003,12.071109397491261,-11.767163479333744,-0.11664857084104385
11.996000000000002,12.076953526629653,-11.765633559531153,-0.11129590787579624
12.016000000000002,12.082797655768045,-11.764103639728562,-0.1059432449105484
12.036000000000003,12.088641784906438,-11.762573719925971,-0.10059058194530035
12.056000000000003,12.09448591404483,-11.76104380012338,-0.09523791898005274
12.076000000000002,12.10033004318322,-11.759513880320789,-0.0898852560148049
12.096000000000002,12.106174172321612,-11.757983960518198,-0.08453259304955729
12.116000000000003,12.112018301460004,-11.756454040715607,-0.07917993008430924
12.136000000000003,12.117862430598397,-11.754924120913016,-0.0738272671190614
12.156000000000002,12.123706559736789,-11.753394201110424,-0.06847460415381379
12.176000000000002,12.129550688875181,-11.751864281307835,-0.06312194118856618
12.196000000000002,12.135394818013573,-11.750334361505244,-0.057769278223318565
12.216000000000003,12.141238947151965,-11.748804441702653,-0.05241661525807029
12.236000000000002,12.147083076290357,-11.747274521900062,-0.047063952292822675
12.256000000000002,12.152927205428748,-11.74574460209747,-0.04171128932757506
12.276000000000002,12.15877133456714,-11.74421468229488,-0.03635862636232723
12.296000000000003,12.164615463705532,-11.742684762492289,-0.031005963397079173
12.316000000000003,12.170459592843924,-11.741154842689697,-0.02565330043183156
12.336000000000002,12.176303721982316,-11.739624922887106,-0.020300637466583726
12.356000000000002,12.182147851120709,-11.738095003084515,-0.014947974501336114
12.376000000000003,12.1879919802591,-11.736565083281924,-0.009595311536088058
12.396000000000003,12.193836109397491,-11.735035163479333,-0.004242648570840224
12.416000000000002,12.199680238535883,-11.733505243676742,0.0011100143944073881
12.436000000000002,12.205524367674276,-11.73197532387415,0.006462677359655
12.456000000000003,12.211368496812668,-11.73044540407156,0.011815340324903278
12.476000000000003,12.21721262595106,-11.728915484268969,0.01716800329015089
12.496000000000002,12.223056755089452,-11.727385564466378,0.022520666255398503
12.516000000000002,12.228900884227844,-11.725855644663788,0.027873329220646337
12.536000000000003,12.234745013366236,-11.724325724861197,0.03322599218589439
12.556000000000003,12.240589142504628,-11.722795805058606,0.038578655151142005
12.576000000000002,12.246433271643019,-11.721265885256015,0.04393131811638984
12.596000000000002,12.252277400781411,-11.719735965453424,0.04928398108163745
12.616000000000003,12.258121529919803,-11.718206045650833,0.05463664404688551
12.636000000000003,12.263965659058195,-11.716676125848242,0.05998930701213334
12.656000000000002,12.269809788196588,-11.71514620604565,0.06534196997738095
12.676000000000002,12.27565391733498,-11.71361628624306,0.07069463294262857
12.696000000000003,12.281498046473372,-11.712086366440468,0.07604729590787684
12.716000000000003,12.287342175611764,-11.710556446637877,0.08139995887312446
12.736000000000002,12.293186304750154,-11.709026526835286,0.08675262183837207
12.756000000000002,12.299030433888547,-11.707496607032695,0.09210528480361968
12.776000000000003,12.304874563026939,-11.705966687230104,0.09745794776886796
12.796000000000003,12.31071869216533,-11.704436767427513,0.10281061073411557
12.816000000000003,12.316562821303723,-11.702906847624922,0.10816327369936318
12.836000000000002,12.322406950442115,-11.70137692782233,0.11351593666461102
12.856000000000002,12.328251079580507,-11.699847008019741,0.11886859962985863
12.876000000000003,12.3340952087189,-11.69831708821715,0.12422126259510669
12.896000000000003,12.33993933785729,-11.69678716841456,0.12957392556035452
12.916000000000002,12.345783466995682,-11.695257248611968,0.13492658852560213
12.936000000000002,12.351627596134074,-11.693727328809377,0.14027925149084974
12.956000000000003,12.357471725272466,-11.692197409006786,0.14563191445609802
12.976000000000003,12.363315854410859,-11.690667489204195,0.15098457742134563
12.996000000000002,12.36915998354925,-11.689137569401604,0.15633724038659325
13.016000000000002,12.375004112687641,-11.687607649599013,0.16168990335184108
13.036000000000003,12.380848241826035,-11.686077729796422,0.16704256631708914
13.056000000000003,12.386692370964425,-11.68454780999383,0.17239522928233675
13.076000000000002,12.392536500102818,-11.68301789019124,0.17774789224758458
13.096000000000002,12.39838062924121,-11.681487970388648,0.1831005552128322
13.116000000000003,12.404224758379602,-11.679958050586057,0.18845321817808025
13.136000000000003,12.410068887517994,-11.678428130783466,0.19380588114332808
13.156000000000002,12.415913016656386,-11.676898210980875,0.1991585441085757
13.176000000000002,12.421757145794778,-11.675368291178284,0.2045112070738233
13.196000000000003,12.42760127493317,-11.673838371375693,0.2098638700390716
13.216000000000003,12.433445404071563,-11.672308451573102,0.2152165330043192
13.236000000000002,12.439289533209953,-11.670778531770512,0.2205691959695668
13.256000000000002,12.445133662348345,-11.669248611967921,0.22592185893481442
13.276000000000003,12.450977791486737,-11.66771869216533,0.2312745219000627
13.296000000000003,12.45682192062513,-11.666188772362739,0.2366271848653103
13.316000000000003,12.462666049763522,-11.664658852560148,0.24197984783055793
13.336000000000002,12.468510178901912,-11.663128932757557,0.24733251079580576
13.356000000000003,12.474354308040306,-11.661599012954966,0.2526851737610538
13.376000000000003,12.480198437178696,-11.660069093152375,0.25803783672630143
13.396000000000003,12.486042566317089,-11.658539173349784,0.26339049969154926
13.416000000000002,12.49188669545548,-11.657009253547193,0.2687431626567969
13.436000000000003,12.497730824593873,-11.655479333744601,0.27409582562204493
13.456000000000003,12.503574953732265,-11.65394941394201,0.27944848858729276
13.476000000000003,12.509419082870657,-11.65241949413942,0.2848011515525404
13.496000000000002,12.51526321200905,-11.650889574336828,0.290153814517788
13.516000000000002,12.521107341147442,-11.649359654534237,0.2955064774830358
13.536000000000003,12.526951470285834,-11.647829734731646,0.3008591404482839
13.556000000000003,12.532795599424224,-11.646299814929055,0.3062118034135315
13.576000000000002,12.538639728562616,-11.644769895126466,0.3115644663787793
13.596000000000002,12.544483857701008,-11.643239975323874,0.31691712934402694
13.616000000000003,12.5503279868394,-11.641710055521283,0.322269792309275
13.636000000000003,12.556172115977793,-11.640180135718692,0.32762245527452283
13.656000000000002,12.562016245116185,-11.638650215916101,0.33297511823977044
13.676000000000002,12.567860374254575,-11.63712029611351,0.33832778120501805
13.696000000000003,12.573704503392968,-11.635590376310919,0.34368044417026633
13.716000000000003,12.57954863253136,-11.634060456508328,0.34903310713551394
13.736000000000002,12.585392761669752,-11.632530536705737,0.35438577010076155
13.756000000000002,12.591236890808144,-11.631000616903146,0.35973843306600917
13.776000000000003,12.597081019946536,-11.629470697100555,0.36509109603125744
13.796000000000003,12.602925149084928,-11.627940777297963,0.37044375899650506
13.816000000000003,12.60876927822332,-11.626410857495372,0.37579642196175267
13.836000000000002,12.614613407361713,-11.624880937692781,0.3811490849270005
13.856000000000003,12.620457536500105,-11.62335101789019,0.38650174789224856
13.876000000000003,12.626301665638495,-11.621821098087599,0.3918544108574964
13.896000000000003,12.632145794776887,-11.620291178285008,0.3972070738227438
13.916000000000002,12.63798992391528,-11.618761258482419,0.4025597367879916
13.936000000000003,12.643834053053672,-11.617231338679828,0.4079123997532399
13.956000000000003,12.649678182192064,-11.615701418877237,0.4132650627184873
13.976000000000003,12.655522311330456,-11.614171499074645,0.4186177256837351
13.996000000000002,12.661366440468846,-11.612641579272054,0.42397038864898295
14.016000000000004,12.667210569607239,-11.611111659469463,0.4293230516142308
14.036000000000003,12.67305469874563,-11.609581739666872,0.4346757145794786
14.056000000000003,12.678898827884023,-11.608051819864281,0.44002837754472646
14.076000000000002,12.684742957022415,-11.60652190006169,0.44538104050997385
14.096000000000002,12.690587086160807,-11.604991980259099,0.4507337034752217
14.116000000000003,12.6964312152992,-11.603462060456508,0.45608636644046996
14.136000000000003,12.702275344437592,-11.601932140653917,0.46143902940571735
14.156000000000002,12.708119473575984,-11.600402220851326,0.4667916923709652
14.176000000000002,12.713963602714374,-11.598872301048734,0.472144355336213
14.196000000000003,12.719807731852768,-11.597342381246143,0.47749701830146085
14.216000000000003,12.725651860991158,-11.595812461443552,0.4828496812667087
14.236000000000002,12.73149599012955,-11.594282541640961,0.4882023442319565
14.256000000000002,12.737340119267943,-11.592752621838372,0.4935550071972039
14.276000000000003,12.743184248406335,-11.59122270203578,0.4989076701624522
14.296000000000003,12.749028377544727,-11.58969278223319,0.5042603331277
14.316000000000003,12.754872506683117,-11.588162862430599,0.5096129960929474
14.336000000000002,12.76071663582151,-11.586632942628007,0.5149656590581952
14.356000000000003,12.766560764959902,-11.585103022825416,0.5203183220234435
14.376000000000003,12.772404894098294,-11.583573103022825,0.5256709849886914
14.396000000000003,12.778249023236686,-11.582043183220234,0.5310236479539387
14.416000000000002,12.784093152375078,-11.580513263417643,0.5363763109191866
14.436000000000003,12.78993728151347,-11.578983343615052,0.5417289738844344
14.456000000000003,12.795781410651863,-11.577453423812461,0.5470816368496818
14.476000000000003,12.801625539790255,-11.57592350400987,0.5524342998149296
14.496000000000002,12.807469668928645,-11.574393584207279,0.5577869627801775
14.516000000000004,12.813313798067039,-11.572863664404688,0.5631396257454258
14.536000000000003,12.819157927205431,-11.571333744602097,0.5684922887106736
14.556000000000003,12.825002056343822,-11.569803824799505,0.5738449516759214
14.576000000000002,12.830846185482214,-11.568273904996914,0.5791976146411688
14.596000000000004,12.836690314620606,-11.566743985194325,0.5845502776064166
14.616000000000003,12.842534443758998,-11.565214065391734,0.5899029405716645
14.636000000000003,12.848378572897388,-11.563684145589143,0.5952556035369119
14.656000000000002,12.85422270203578,-11.562154225786552,0.6006082665021597
14.676000000000004,12.860066831174175,-11.56062430598396,0.6059609294674084
14.696000000000003,12.865910960312565,-11.55909438618137,0.6113135924326558
14.716000000000003,12.871755089450957,-11.557564466378778,0.6166662553979037
14.736000000000002,12.87759921858935,-11.556034546576187,0.6220189183631515
14.756000000000002,12.883443347727741,-11.554504626773596,0.6273715813283989
14.776000000000003,12.889287476866134,-11.552974706971005,0.6327242442936467
14.796000000000003,12.895131606004526,-11.551444787168414,0.6380769072588945
14.816000000000003,12.900975735142916,-11.549914867365823,0.6434295702241419
14.836000000000002,12.906819864281308,-11.548384947563232,0.6487822331893898
14.856000000000003,12.912663993419702,-11.54685502776064,0.6541348961546385
14.876000000000003,12.918508122558093,-11.54532510795805,0.6594875591198859
14.896000000000003,12.924352251696485,-11.543795188155459,0.6648402220851337
14.916000000000002,12.930196380834877,-11.542265268352867,0.6701928850503815
14.936000000000003,12.93604050997327,-11.540735348550278,0.6755455480156289
14.956000000000003,12.94188463911166,-11.539205428747687,0.6808982109808768
14.976000000000003,12.947728768250052,-11.537675508945096,0.6862508739461242
14.996000000000002,12.953572897388444,-11.536145589142505,0.691603536911372
15.016000000000004,12.959417026526836,-11.534615669339914,0.6969561998766207
15.036000000000003,12.965261155665228,-11.533085749537323,0.7023088628418686
15.056000000000003,12.97110528480362,-11.531555829734732,0.7076615258071159
15.076000000000002,12.976949413942013,-11.53002590993214,0.7130141887723638
15.096000000000004,12.982793543080405,-11.52849599012955,0.7183668517376112
15.116000000000003,12.988637672218797,-11.526966070326958,0.723719514702859
15.136000000000003,12.994481801357187,-11.525436150524367,0.7290721776681068
15.156000000000002,13.00032593049558,-11.523906230721776,0.7344248406333542
15.176000000000004,13.006170059633973,-11.522376310919185,0.739777503598603
15.196000000000003,13.012014188772364,-11.520846391116594,0.7451301665638508
15.216000000000003,13.017858317910756,-11.519316471314003,0.7504828295290982
15.236000000000002,13.023702447049148,-11.517786551511412,0.755835492494346
15.256000000000004,13.02954657618754,-11.51625663170882,0.7611881554595938
15.276000000000003,13.03539070532593,-11.514726711906231,0.7665408184248412
15.296000000000003,13.041234834464323,-11.51319679210364,0.7718934813900891
15.316000000000003,13.047078963602715,-11.51166687230105,0.7772461443553369
15.336000000000004,13.052923092741107,-11.510136952498458,0.7825988073205852
15.356000000000003,13.0587672218795,-11.508607032695867,0.787951470285833
15.376000000000003,13.064611351017891,-11.507077112893276,0.7933041332510808
15.396000000000003,13.070455480156284,-11.505547193090685,0.7986567962163282
15.416000000000002,13.076299609294676,-11.504017273288094,0.8040094591815761
15.436000000000003,13.082143738433068,-11.502487353485503,0.8093621221468239
15.456000000000003,13.087987867571458,-11.500957433682911,0.8147147851120713
15.476000000000003,13.09383199670985,-11.49942751388032,0.8200674480773191
15.496000000000002,13.099676125848243,-11.49789759407773,0.825420111042567
15.516000000000004,13.105520254986635,-11.496367674275138,0.8307727740078152
15.536000000000003,13.111364384125027,-11.494837754472547,0.8361254369730631
15.556000000000003,13.117208513263419,-11.493307834669956,0.8414780999383109
15.576000000000002,13.123052642401811,-11.491777914867365,0.8468307629035583
15.596000000000004,13.128896771540202,-11.490247995064774,0.8521834258688061
15.616000000000003,13.134740900678594,-11.488718075262183,0.857536088834054
15.636000000000003,13.140585029816986,-11.487188155459593,0.8628887517993014
15.656000000000002,13.146429158955378,-11.485658235657002,0.8682414147645492
15.676000000000004,13.15227328809377,-11.484128315854411,0.8735940777297979
15.696000000000003,13.158117417232162,-11.48259839605182,0.8789467406950453
15.716000000000003,13.163961546370555,-11.481068476249229,0.8842994036602931
15.736000000000002,13.169805675508947,-11.479538556446638,0.889652066625541
15.756000000000004,13.175649804647339,-11.478008636644047,0.8950047295907884
15.776000000000003,13.181493933785731,-11.476478716841456,0.9003573925560362
15.796000000000003,13.187338062924121,-11.474948797038865,0.905710055521284
15.816000000000003,13.193182192062514,-11.473418877236274,0.9110627184865314
15.836000000000004,13.199026321200908,-11.471888957433682,0.9164153814517801
15.856000000000003,13.204870450339298,-11.470359037631091,0.921768044417028
15.876000000000003,13.21071457947769,-11.4688291178285,0.9271207073822754
15.896000000000003,13.216558708616082,-11.46729919802591,0.9324733703475232
15.916000000000004,13.222402837754473,-11.465769278223318,0.937826033312771
15.936000000000003,13.228246966892865,-11.464239358420727,0.9431786962780184
15.956000000000003,13.234091096031257,-11.462709438618136,0.9485313592432663
15.976000000000003,13.23993522516965,-11.461179518815545,0.9538840222085136
15.996000000000004,13.245779354308041,-11.459649599012954,0.9592366851737624
16.016000000000002,13.251623483446433,-11.458119679210364,0.9645893481390093
16.036,13.257467612584826,-11.456589759407773,0.9699420111042567
16.056,13.263311741723216,-11.455059839605182,0.9752946740695045
16.076,13.269155870861608,-11.453529919802591,0.9806473370347524
16.096,13.275,-11.452,0.986
16.116,27.521,0.3115,5.603
16.136000000000003,-9.044789473684542,1.2163684210529608,-2.21789473684199
16.156000000000002,-13.363727272727727,4.483818181818518,-1.1437272727272607
16.176000000000002,-15.86116666666664,7.081666666666863,-1.1104999999999767
16.196,-14.751749999999715,8.32400000000004,0.192500000000371
16.216,-10.688799999999844,8.54099999999998,6.754300000000308
16.236,-6.028545454545383,7.633272727272711,16.206909090909242
16.256,-2.193500000000153,6.801000000000032,23.29299999999975
16.276,9.67,4.623,29.678
16.296000000000003,17.23530000000042,-1.1117000000006838,26.90749999999915
16.316000000000003,19.992090909091242,-3.8650000000001445,21.3786363636354
16.336000000000002,22.1295555555555,-6.173333333333923,12.992666666665821
16.356,21.74137500000023,-7.755874999999781,7.607624999999461
16.376,22.980683505154644,-6.615925773195878,4.7151628865979305
16.396,23.041735051546393,-6.629657731958764,4.620028865979376
16.416,23.102786597938145,-6.6433896907216505,4.524894845360821
16.436,23.163838144329898,-6.657121649484536,4.4297608247422655
16.456000000000003,23.22488969072166,-6.670853608247425,4.334626804123694
16.476000000000003,23.285941237113413,-6.684585567010312,4.239492783505139
16.496000000000002,23.34699278350516,-6.698317525773198,4.144358762886585
16.516000000000002,23.408044329896914,-6.7120494845360845,4.04922474226803
16.536,23.469095876288666,-6.72578144329897,3.954090721649475
16.556,23.530147422680418,-6.739513402061857,3.8589567010309205
16.576,23.591198969072167,-6.753245360824743,3.763822680412366
16.596,23.65225051546392,-6.76697731958763,3.668688659793811
16.616000000000003,23.713302061855682,-6.7807092783505185,3.573554639175239
16.636000000000003,23.774353608247434,-6.794441237113404,3.4784206185566844
16.656000000000002,23.835405154639183,-6.808173195876291,3.3832865979381292
16.676000000000002,23.896456701030935,-6.821905154639177,3.2881525773195746
16.696,23.957508247422687,-6.835637113402063,3.19301855670102
16.716,24.01855979381444,-6.84936907216495,3.097884536082465
16.736,24.07961134020619,-6.863101030927836,3.0027505154639105
16.756,24.14066288659794,-6.8768329896907225,2.907616494845356
16.776,24.201714432989693,-6.8905649484536085,2.812482474226801
16.796000000000003,24.262765979381456,-6.904296907216498,2.717348453608229
16.816000000000003,24.323817525773208,-6.918028865979384,2.6222144329896744
16.836000000000002,24.384869072164957,-6.93176082474227,2.5270804123711197
16.856,24.44592061855671,-6.9454927835051565,2.431946391752565
16.876,24.50697216494846,-6.959224742268042,2.33681237113401
16.896,24.568023711340214,-6.972956701030929,2.241678350515455
16.916,24.629075257731962,-6.986688659793815,2.1465443298969005
16.936,24.690126804123715,-7.000420618556702,2.051410309278346
16.956000000000003,24.751178350515477,-7.0141525773195905,1.9562762886597742
16.976000000000003,24.81222989690723,-7.027884536082476,1.861142268041219
16.996000000000002,24.87328144329898,-7.041616494845363,1.7660082474226644
17.016000000000002,24.93433298969073,-7.055348453608249,1.6708742268041097
17.036,24.995384536082483,-7.069080412371136,1.575740206185555
17.056,25.056436082474235,-7.082812371134022,1.4806061855670003
17.076,25.117487628865984,-7.096544329896909,1.3854721649484452
17.096,25.178539175257736,-7.1102762886597946,1.2903381443298905
17.116000000000003,25.2395907216495,-7.124008247422683,1.195204123711319
17.136000000000003,25.30064226804125,-7.13774020618557,1.1000701030927642
17.156000000000002,25.361693814433004,-7.151472164948456,1.0049360824742095
17.176000000000002,25.422745360824752,-7.165204123711343,0.9098020618556544
17.196,25.483796907216504,-7.1789360824742285,0.8146680412370997
17.216,25.544848453608257,-7.1926680412371145,0.7195340206185454
17.236,25.605900000000005,-7.206400000000001,0.6243999999999899
17.256,25.666951546391758,-7.220131958762887,0.5292659793814352
17.276000000000003,25.72800309278352,-7.233863917525776,0.4341319587628636
17.296000000000003,25.789054639175273,-7.2475958762886625,0.3389979381443089
17.316000000000003,25.850106185567025,-7.261327835051549,0.2438639175257542
17.336000000000002,27.21825000000117,-8.546500000001132,-3.1985000000029857
17.356,-8.38,-21.026,-9.189
17.376,13.144333333333853,-18.091333333333193,1.3300000000002314
17.396,26.593333333334066,-12.105999999999552,3.9376666666665954
17.416,36.57515007549423,-6.30799332841743,1.669904420801292
17.436,36.57665083043646,-6.307926612591734,1.668948628814214
17.456000000000003,36.578151585378706,-6.307859896766038,1.6679928368271357
17.476000000000003,36.57965234032094,-6.307793180940342,1.6670370448400575
17.496000000000002,36.58115309526318,-6.307726465114646,1.6660812528529794
17.516000000000002,36.58265385020542,-6.307659749288949,1.6651254608659012
17.536,36.58415460514765,-6.307593033463253,1.664169668878823
17.556,36.585655360089895,-6.307526317637557,1.6632138768917448
17.576,36.58715611503213,-6.307459601811861,1.6622580849046666
17.596,36.58865686997437,-6.307392885986165,1.6613022929175885
17.616000000000003,36.59015762491661,-6.307326170160469,1.66034650093051
17.636000000000003,36.59165837985885,-6.307259454334773,1.6593907089434319
17.656000000000002,36.593159134801084,-6.307192738509077,1.6584349169563537
17.676000000000002,36.59465988974332,-6.307126022683381,1.6574791249692755
17.696,36.59616064468556,-6.307059306857685,1.6565233329821973
17.716,36.597661399627796,-6.306992591031988,1.6555675409951192
17.736,36.59916215457004,-6.306925875206292,1.654611749008041
17.756,36.60066290951227,-6.306859159380596,1.6536559570209628
17.776000000000003,36.602163664454515,-6.3067924435549,1.6527001650338844
17.796000000000003,36.60366441939675,-6.306725727729204,1.6517443730468062
17.816000000000003,36.60516517433899,-6.306659011903507,1.650788581059728
17.836000000000002,36.60666592928123,-6.306592296077811,1.6498327890726499
17.856,36.60816668422346,-6.306525580252115,1.6488769970855717
17.876,36.609667439165705,-6.3064588644264195,1.6479212050984935
17.896,36.61116819410794,-6.3063921486007235,1.6469654131114153
17.916,36.61266894905018,-6.306325432775027,1.6460096211243371
17.936,36.61416970399242,-6.306258716949331,1.645053829137259
17.956000000000003,36.61567045893466,-6.306192001123635,1.6440980371501808
17.976000000000003,36.617171213876894,-6.306125285297939,1.6431422451631026
17.996000000000002,36.618671968819136,-6.306058569472243,1.6421864531760244
18.016000000000002,36.62017272376137,-6.305991853646546,1.6412306611889462
18.036,36.621673478703606,-6.30592513782085,1.640274869201868
18.056,36.62317423364585,-6.305858421995154,1.6393190772147899
18.076,36.62467498858808,-6.305791706169458,1.6383632852277117
18.096,36.626175743530325,-6.305724990343762,1.6374074932406335
18.116000000000003,36.62767649847256,-6.305658274518065,1.636451701253555
18.136000000000003,36.6291772534148,-6.305591558692369,1.635495909266477
18.156000000000002,36.63067800835704,-6.3055248428666735,1.6345401172793987
18.176000000000002,36.63217876329928,-6.3054581270409775,1.6335843252923206
18.196,36.633679518241514,-6.305391411215282,1.6326285333052424
18.216,36.63518027318375,-6.305324695389585,1.6316727413181642
18.236,36.63668102812599,-6.305257979563889,1.630716949331086
18.256,36.63818178306823,-6.305191263738193,1.6297611573440078
18.276000000000003,36.63968253801047,-6.305124547912497,1.6288053653569294
18.296000000000003,36.641183292952704,-6.305057832086801,1.6278495733698513
18.316000000000003,36.642684047894946,-6.304991116261104,1.626893781382773
18.336000000000002,36.64418480283718,-6.304924400435408,1.625937989395695
18.356,36.645685557779416,-6.304857684609712,1.6249821974086167
18.376,36.64718631272166,-6.304790968784016,1.6240264054215385
18.396,36.64868706766389,-6.30472425295832,1.6230706134344604
18.416,36.650187822606135,-6.3046575371326234,1.6221148214473822
18.436000000000003,36.65168857754837,-6.3045908213069275,1.621159029460304
18.456000000000003,36.65318933249061,-6.3045241054812315,1.6202032374732258
18.476000000000003,36.65469008743285,-6.304457389655536,1.6192474454861476
18.496000000000002,36.65619084237509,-6.30439067382984,1.6182916534990694
18.516000000000002,36.657691597317324,-6.304323958004143,1.6173358615119913
18.536,36.65919235225956,-6.304257242178447,1.616380069524913
18.556,36.6606931072018,-6.304190526352751,1.615424277537835
18.576,36.662193862144036,-6.304123810527055,1.6144684855507567
18.596,36.66369461708628,-6.304057094701359,1.6135126935636785
18.616000000000003,36.66519537202851,-6.303990378875662,1.6125569015766001
18.636000000000003,36.666696126970756,-6.303923663049966,1.611601109589522
18.656000000000002,36.66819688191299,-6.30385694722427,1.6106453176024438
18.676000000000002,36.66969763685523,-6.303790231398574,1.6096895256153656
18.696,36.67119839179747,-6.303723515572878,1.6087337336282874
18.716,36.6726991467397,-6.303656799747182,1.6077779416412092
18.736,36.674199901681945,-6.303590083921486,1.606822149654131
18.756,36.67570065662418,-6.30352336809579,1.6058663576670529
18.776000000000003,36.67720141156642,-6.303456652270094,1.6049105656799745
18.796000000000003,36.67870216650866,-6.303389936444398,1.6039547736928963
18.816000000000003,36.6802029214509,-6.303323220618702,1.6029989817058181
18.836000000000002,36.681703676393134,-6.303256504793005,1.60204318971874
18.856,36.683204431335376,-6.303189788967309,1.6010873977316618
18.876,36.68470518627761,-6.303123073141613,1.6001316057445836
18.896,36.686205941219846,-6.303056357315917,1.5991758137575054
18.916,36.68770669616209,-6.302989641490221,1.5982200217704272
18.936000000000003,36.68920745110432,-6.302922925664524,1.597264229783349
18.956000000000003,36.690708206046565,-6.302856209838828,1.5963084377962709
18.976000000000003,36.6922089609888,-6.302789494013132,1.5953526458091927
18.996000000000002,36.69370971593104,-6.302722778187436,1.5943968538221145
19.016000000000002,36.69521047087328,-6.3026560623617405,1.5934410618350363
19.036,36.69671122581551,-6.302589346536044,1.5924852698479581
19.056,36.698211980757755,-6.302522630710348,1.59152947786088
19.076,36.69971273569999,-6.302455914884652,1.5905736858738018
19.096000000000004,36.70121349064223,-6.302389199058956,1.5896178938867234
19.116000000000003,36.70271424558447,-6.30232248323326,1.5886621018996452
19.136000000000003,36.70421500052671,-6.302255767407563,1.587706309912567
19.156000000000002,36.705715755468944,-6.302189051581867,1.5867505179254888
19.176000000000002,36.707216510411186,-6.302122335756171,1.5857947259384106
19.196,36.70871726535342,-6.302055619930475,1.5848389339513325
19.216,36.710218020295656,-6.301988904104779,1.5838831419642543
19.236,36.7117187752379,-6.301922188279082,1.582927349977176
19.256,36.71321953018013,-6.301855472453386,1.581971557990098
19.276000000000003,36.714720285122375,-6.3017887566276904,1.5810157660030195
19.296000000000003,36.71622104006461,-6.3017220408019945,1.5800599740159413
19.316000000000003,36.71772179500685,-6.3016553249762985,1.5791041820288632
19.336000000000002,36.71922254994909,-6.301588609150602,1.578148390041785
19.356,36.72072330489133,-6.301521893324906,1.5771925980547068
19.376,36.722224059833565,-6.30145517749921,1.5762368060676288
19.396,36.7237248147758,-6.301388461673514,1.5752810140805504
19.416,36.72522556971804,-6.301321745847818,1.5743252220934725
19.436000000000003,36.72672632466028,-6.301255030022121,1.573369430106394
19.456000000000003,36.72822707960252,-6.301188314196425,1.572413638119316
19.476000000000003,36.729727834544754,-6.301121598370729,1.5714578461322377
19.496000000000002,36.731228589486996,-6.301054882545033,1.5705020541451595
19.516000000000002,36.73272934442923,-6.300988166719337,1.5695462621580814
19.536,36.73423009937147,-6.30092145089364,1.5685904701710032
19.556,36.73573085431371,-6.3008547350679445,1.567634678183925
19.576,36.73723160925594,-6.3007880192422485,1.5666788861968468
19.596000000000004,36.738732364198185,-6.300721303416553,1.5657230942097684
19.616000000000003,36.74023311914042,-6.300654587590857,1.5647673022226902
19.636000000000003,36.74173387408266,-6.30058787176516,1.563811510235612
19.656000000000002,36.7432346290249,-6.300521155939464,1.5628557182485339
19.676000000000002,36.74473538396714,-6.300454440113768,1.5618999262614557
19.696,36.746236138909374,-6.300387724288072,1.5609441342743775
19.716,36.74773689385161,-6.300321008462376,1.5599883422872993
19.736,36.74923764879385,-6.300254292636679,1.5590325503002211
19.756000000000004,36.75073840373609,-6.300187576810983,1.5580767583131427
19.776000000000003,36.75223915867833,-6.300120860985287,1.5571209663260648
19.796000000000003,36.753739913620564,-6.300054145159591,1.5561651743389864
19.816000000000003,36.755240668562806,-6.299987429333895,1.5552093823519084
19.836000000000002,36.75674142350504,-6.2999207135081985,1.55425359036483
19.856,36.75824217844728,-6.2998539976825025,1.553297798377752
19.876,36.75974293338952,-6.299787281856807,1.5523420063906739
19.896,36.76124368833175,-6.299720566031111,1.5513862144035957
19.916,36.762744443273995,-6.299653850205415,1.5504304224165175
19.936000000000003,36.76424519821623,-6.299587134379718,1.5494746304294391
19.956000000000003,36.76574595315847,-6.299520418554022,1.548518838442361
19.976000000000003,36.76724670810071,-6.299453702728326,1.5475630464552828
19.996000000000002,36.76874746304295,-6.29938698690263,1.5466072544682046
20.016000000000002,36.770248217985184,-6.299320271076934,1.5456514624811264
20.036,36.771748972927426,-6.299253555251237,1.5446956704940482
20.056,36.77324972786966,-6.299186839425541,1.54373987850697
20.076,36.774750482811896,-6.299120123599845,1.5427840865198919
20.096000000000004,36.77625123775414,-6.299053407774149,1.5418282945328134
20.116000000000003,36.77775199269637,-6.298986691948453,1.5408725025457353
20.136000000000003,36.779252747638616,-6.298919976122757,1.539916710558657
20.156000000000002,36.78075350258085,-6.298853260297061,1.538960918571579
20.176000000000002,36.78225425752309,-6.298786544471365,1.5380051265845007
20.196,36.78375501246533,-6.298719828645669,1.5370493345974225
20.216,36.78525576740757,-6.298653112819973,1.5360935426103444
20.236,36.786756522349805,-6.298586396994276,1.5351377506232662
20.256000000000004,36.78825727729204,-6.29851968116858,1.534181958636188
20.276000000000003,36.78975803223428,-6.298452965342884,1.5332261666491096
20.296000000000003,36.79125878717652,-6.298386249517188,1.5322703746620316
20.316000000000003,36.79275954211876,-6.298319533691492,1.5313145826749532
20.336000000000002,36.794260297060994,-6.298252817865795,1.5303587906878753
20.356,36.795761052003236,-6.298186102040099,1.529402998700797
20.376,36.79726180694547,-6.298119386214403,1.528447206713719
20.396,36.798762561887706,-6.298052670388707,1.5274914147266407
20.416000000000004,36.80026331682995,-6.2979859545630115,1.5265356227395623
20.436000000000003,36.80176407177218,-6.297919238737315,1.5255798307524842
20.456000000000003,36.803264826714425,-6.297852522911619,1.524624038765406
20.476000000000003,36.80476558165666,-6.297785807085923,1.5236682467783278
20.496000000000002,36.8062663365989,-6.297719091260227,1.5227124547912496
20.516000000000002,36.80776709154114,-6.297652375434531,1.5217566628041714
20.536,36.80926784648338,-6.297585659608835,1.5208008708170933
20.556,36.810768601425615,-6.297518943783138,1.519845078830015
20.576,36.81226935636785,-6.297452227957442,1.518889286842937
20.596000000000004,36.81377011131009,-6.297385512131746,1.5179334948558585
20.616000000000003,36.81527086625233,-6.29731879630605,1.5169777028687803
20.636000000000003,36.81677162119457,-6.297252080480354,1.5160219108817021
20.656000000000002,36.818272376136804,-6.297185364654657,1.515066118894624
20.676000000000002,36.819773131079046,-6.297118648828961,1.5141103269075458
20.696,36.82127388602128,-6.2970519330032655,1.5131545349204676
20.716,36.82277464096352,-6.2969852171775695,1.5121987429333894
20.736,36.82427539590576,-6.296918501351874,1.5112429509463112
20.756000000000004,36.82577615084799,-6.296851785526177,1.5102871589592328
20.776000000000003,36.827276905790235,-6.296785069700481,1.5093313669721549
20.796000000000003,36.82877766073247,-6.296718353874785,1.5083755749850767
20.816000000000003,36.83027841567471,-6.296651638049089,1.5074197829979985
20.836000000000002,36.83177917061695,-6.296584922223393,1.5064639910109203
20.856,36.83327992555919,-6.296518206397696,1.5055081990238421
20.876,36.834780680501424,-6.296451490572,1.504552407036764
20.896,36.83628143544367,-6.296384774746304,1.5035966150496858
20.916000000000004,36.8377821903859,-6.296318058920608,1.5026408230626074
20.936000000000003,36.83928294532814,-6.296251343094912,1.5016850310755292
20.956000000000003,36.84078370027038,-6.2961846272692155,1.500729239088451
20.976000000000003,36.842284455212614,-6.2961179114435195,1.4997734471013728
20.996000000000002,36.843785210154856,-6.296051195617824,1.4988176551142947
21.016000000000002,36.84528596509709,-6.295984479792128,1.4978618631272165
21.036,36.84678672003933,-6.295917763966432,1.4969060711401383
21.056,36.84828747498157,-6.295851048140735,1.4959502791530601
21.076000000000004,36.84978822992381,-6.295784332315039,1.4949944871659817
21.096000000000004,36.851288984866045,-6.295717616489343,1.4940386951789035
21.116000000000003,36.85278973980828,-6.295650900663647,1.4930829031918254
21.136000000000003,36.85429049475052,-6.295584184837951,1.4921271112047472
21.156000000000002,36.85579124969276,-6.295517469012254,1.491171319217669
21.176000000000002,36.857292004635,-6.295450753186558,1.4902155272305908
21.196,36.858792759577234,-6.295384037360862,1.4892597352435126
21.216,36.860293514519476,-6.295317321535166,1.4883039432564344
21.236,36.86179426946171,-6.29525060570947,1.4873481512693563
21.256000000000004,36.863295024403946,-6.2951838898837735,1.486392359282278
21.276000000000003,36.86479577934619,-6.295117174058078,1.4854365672952
21.296000000000003,36.86629653428842,-6.295050458232382,1.4844807753081217
21.316000000000003,36.867797289230666,-6.294983742406686,1.4835249833210435
21.336000000000002,36.8692980441729,-6.29491702658099,1.4825691913339654
21.356,36.87079879911514,-6.294850310755293,1.4816133993468872
21.376,36.87229955405738,-6.294783594929597,1.480657607359809
21.396,36.87380030899962,-6.294716879103901,1.4797018153727308
21.416000000000004,36.875301063941855,-6.294650163278205,1.4787460233856524
21.436000000000003,36.87680181888409,-6.294583447452509,1.4777902313985742
21.456000000000003,36.87830257382633,-6.294516731626812,1.476834439411496
21.476000000000003,36.87980332876857,-6.294450015801116,1.4758786474244179
21.496000000000002,36.88130408371081,-6.29438329997542,1.4749228554373397
21.516000000000002,36.882804838653044,-6.294316584149724,1.4739670634502615
21.536,36.884305593595286,-6.294249868324028,1.4730112714631833
21.556,36.88580634853752,-6.294183152498332,1.4720554794761052
21.576000000000004,36.88730710347976,-6.294116436672636,1.4710996874890268
21.596000000000004,36.888807858422,-6.29404972084694,1.4701438955019486
21.616000000000003,36.89030861336423,-6.293983005021244,1.4691881035148704
21.636000000000003,36.891809368306475,-6.293916289195548,1.4682323115277922
21.656000000000002,36.89331012324871,-6.293849573369851,1.467276519540714
21.676000000000002,36.89481087819095,-6.293782857544155,1.4663207275536358
21.696,36.89631163313319,-6.293716141718459,1.4653649355665577
21.716,36.89781238807543,-6.293649425892763,1.4644091435794795
21.736000000000004,36.899313143017665,-6.293582710067067,1.4634533515924013
21.756000000000004,36.90081389795991,-6.29351599424137,1.4624975596053231
21.776000000000003,36.90231465290214,-6.293449278415674,1.461541767618245
21.796000000000003,36.90381540784438,-6.293382562589978,1.4605859756311668
21.816000000000003,36.90531616278662,-6.2933158467642825,1.4596301836440886
21.836000000000002,36.906816917728854,-6.2932491309385865,1.4586743916570104
21.856,36.908317672671096,-6.29318241511289,1.4577185996699322
21.876,36.90981842761333,-6.293115699287194,1.456762807682854
21.896,36.91131918255557,-6.293048983461498,1.4558070156957759
21.916000000000004,36.91281993749781,-6.292982267635802,1.4548512237086975
21.936000000000003,36.91432069244004,-6.292915551810106,1.4538954317216193
21.956000000000003,36.915821447382285,-6.292848835984409,1.452939639734541
21.976000000000003,36.91732220232452,-6.292782120158713,1.451983847747463
21.996000000000002,36.91882295726676,-6.292715404333017,1.4510280557603847
22.016000000000002,36.920323712209,-6.292648688507321,1.4500722637733066
22.036,36.92182446715124,-6.292581972681625,1.4491164717862284
22.056,36.923325222093474,-6.292515256855928,1.4481606797991502
22.076000000000004,36.92482597703572,-6.292448541030232,1.4472048878120718
22.096000000000004,36.92632673197795,-6.2923818252045365,1.4462490958249936
22.116000000000003,36.92782748692019,-6.2923151093788405,1.4452933038379154
22.136000000000003,36.92932824186243,-6.292248393553145,1.4443375118508373
22.156000000000002,36.930828996804664,-6.292181677727448,1.443381719863759
22.176000000000002,36.932329751746906,-6.292114961901752,1.442425927876681
22.196,36.93383050668914,-6.292048246076056,1.4414701358896027
22.216,36.93533126163138,-6.29198153025036,1.4405143439025245
22.236000000000004,36.93683201657362,-6.291914814424664,1.4395585519154463
22.256000000000004,36.93833277151586,-6.291848098598967,1.4386027599283682
22.276000000000003,36.939833526458095,-6.291781382773271,1.43764696794129
22.296000000000003,36.94133428140033,-6.291714666947575,1.4366911759542118
22.316000000000003,36.94283503634257,-6.291647951121879,1.4357353839671336
22.336000000000002,36.94433579128481,-6.291581235296183,1.4347795919800554
22.356,36.94583654622705,-6.291514519470487,1.4338237999929773
22.376,36.947337301169284,-6.2914478036447905,1.432868008005899
22.396000000000004,36.948838056111526,-6.2913810878190946,1.4319122160188207
22.416000000000004,36.95033881105376,-6.291314371993399,1.4309564240317425
22.436000000000003,36.951839565996,-6.291247656167703,1.4300006320446643
22.456000000000003,36.95334032093824,-6.291180940342007,1.4290448400575861
22.476000000000003,36.95484107588047,-6.29111422451631,1.428089048070508
22.496000000000002,36.956341830822716,-6.291047508690614,1.4271332560834298
22.516000000000002,36.95784258576495,-6.290980792864918,1.4261774640963516
22.536,36.95934334070719,-6.290914077039222,1.4252216721092734
22.556,36.96084409564943,-6.290847361213526,1.4242658801221952
22.576000000000004,36.96234485059167,-6.290780645387829,1.4233100881351168
22.596000000000004,36.963845605533905,-6.290713929562133,1.4223542961480387
22.616000000000003,36.96534636047615,-6.290647213736437,1.4213985041609605
22.636000000000003,36.96684711541838,-6.290580497910741,1.4204427121738823
22.656000000000002,36.96834787036062,-6.290513782085045,1.4194869201868041
22.676000000000002,36.96984862530286,-6.290447066259349,1.4185311281997262
22.696,36.971349380245094,-6.290380350433653,1.4175753362126478
22.716,36.972850135187336,-6.290313634607957,1.4166195442255698
22.736000000000004,36.97435089012957,-6.290246918782261,1.4156637522384914
22.756000000000004,36.97585164507181,-6.290180202956565,1.4147079602514132
22.776000000000003,36.97735240001405,-6.290113487130868,1.413752168264335
22.796000000000003,36.97885315495628,-6.290046771305172,1.4127963762772568
22.816000000000003,36.980353909898525,-6.289980055479476,1.4118405842901787
22.836000000000002,36.98185466484076,-6.28991333965378,1.4108847923031005
22.856,36.983355419783,-6.289846623828084,1.4099290003160223
22.876,36.98485617472524,-6.289779908002387,1.4089732083289441
22.896000000000004,36.98635692966748,-6.289713192176691,1.4080174163418657
22.916000000000004,36.987857684609715,-6.289646476350995,1.4070616243547875
22.936000000000003,36.98935843955196,-6.289579760525299,1.4061058323677094
22.956000000000003,36.99085919449419,-6.2895130446996035,1.4051500403806312
22.976000000000003,36.99235994943643,-6.289446328873907,1.404194248393553
22.996000000000002,36.99386070437867,-6.289379613048211,1.4032384564064748
23.016000000000002,36.995361459320904,-6.289312897222515,1.4022826644193966
23.036,36.996862214263146,-6.289246181396819,1.4013268724323185
23.056000000000004,36.99836296920538,-6.289179465571123,1.40037108044524
23.076000000000004,36.99986372414762,-6.289112749745426,1.399415288458162
23.096000000000004,37.00136447908986,-6.28904603391973,1.3984594964710837
23.116000000000003,37.0028652340321,-6.288979318094034,1.3975037044840057
23.136000000000003,37.004365988974335,-6.288912602268338,1.3965479124969273
23.156000000000002,37.00586674391657,-6.288845886442642,1.3955921205098494
23.176000000000002,37.00736749885881,-6.288779170616945,1.394636328522771
23.196,37.00886825380105,-6.288712454791249,1.393680536535693
23.216,37.01036900874329,-6.2886457389655535,1.3927247445486146
23.236000000000004,37.011869763685525,-6.2885790231398575,1.3917689525615364
23.256000000000004,37.01337051862777,-6.2885123073141616,1.3908131605744583
23.276000000000003,37.01487127357,-6.288445591488465,1.38985736858738
23.296000000000003,37.01637202851224,-6.288378875662769,1.388901576600302
23.316000000000003,37.01787278345448,-6.288312159837073,1.3879457846132237
23.336000000000002,37.019373538396714,-6.288245444011377,1.3869899926261455
23.356,37.020874293338956,-6.288178728185681,1.3860342006390673
23.376,37.02237504828119,-6.288112012359984,1.3850784086519892
23.396000000000004,37.02387580322343,-6.288045296534288,1.3841226166649108
23.416000000000004,37.02537655816567,-6.287978580708592,1.3831668246778326
23.436000000000003,37.02687731310791,-6.287911864882896,1.3822110326907544
23.456000000000003,37.028378068050145,-6.2878451490572,1.3812552407036762
23.476000000000003,37.02987882299238,-6.287778433231503,1.380299448716598
23.496000000000002,37.03137957793462,-6.2877117174058075,1.3793436567295199
23.516000000000002,37.03288033287686,-6.2876450015801115,1.3783878647424417
23.536,37.0343810878191,-6.287578285754416,1.3774320727553635
23.556000000000004,37.035881842761334,-6.28751156992872,1.3764762807682853
23.576000000000004,37.037382597703576,-6.287444854103023,1.375520488781207
23.596000000000004,37.03888335264581,-6.287378138277327,1.374564696794129
23.616000000000003,37.040384107588054,-6.287311422451631,1.3736089048070506
23.636000000000003,37.04188486253029,-6.287244706625935,1.3726531128199726
23.656000000000002,37.043385617472524,-6.287177990800239,1.3716973208328942
23.676000000000002,37.044886372414766,-6.287111274974542,1.3707415288458162
23.696,37.046387127357,-6.287044559148846,1.3697857368587378
23.716,37.04788788229924,-6.28697784332315,1.3688299448716599
23.736000000000004,37.04938863724148,-6.286911127497454,1.3678741528845815
23.756000000000004,37.05088939218372,-6.286844411671758,1.3669183608975033
23.776000000000003,37.052390147125955,-6.2867776958460615,1.3659625689104251
23.796000000000003,37.0538909020682,-6.2867109800203655,1.365006776923347
23.816000000000003,37.05539165701043,-6.28664426419467,1.3640509849362688
23.836000000000002,37.05689241195267,-6.286577548368974,1.3630951929491906
23.856,37.05839316689491,-6.286510832543278,1.3621394009621124
23.876,37.059893921837144,-6.286444116717581,1.3611836089750342
23.896000000000004,37.061394676779386,-6.286377400891885,1.3602278169879558
23.916000000000004,37.06289543172162,-6.286310685066189,1.3592720250008776
23.936000000000003,37.06439618666386,-6.286243969240493,1.3583162330137994
23.956000000000003,37.0658969416061,-6.286177253414797,1.3573604410267213
23.976000000000003,37.06739769654834,-6.2861105375891,1.356404649039643
23.996000000000002,37.068898451490575,-6.286043821763404,1.355448857052565
24.016000000000002,37.07039920643281,-6.285977105937708,1.3544930650654867
24.036,37.07189996137505,-6.285910390112012,1.3535372730784085
24.056000000000004,37.07340071631729,-6.285843674286316,1.3525814810913301
24.076000000000004,37.07490147125953,-6.28577695846062,1.3516256891042522
24.096000000000004,37.076402226201765,-6.285710242634924,1.3506698971171738
24.116000000000003,37.07790298114401,-6.285643526809228,1.3497141051300958
24.136000000000003,37.07940373608624,-6.285576810983532,1.3487583131430174
24.156000000000002,37.08090449102848,-6.285510095157836,1.3478025211559395
24.176000000000002,37.08240524597072,-6.285443379332139,1.346846729168861
24.196,37.083906000912954,-6.285376663506443,1.345890937181783
24.216000000000005,37.085406755855196,-6.285309947680747,1.3449351451947047
24.236000000000004,37.08690751079743,-6.285243231855051,1.3439793532076265
24.256000000000004,37.08840826573967,-6.285176516029355,1.3430235612205483
24.276000000000003,37.08990902068191,-6.285109800203658,1.3420677692334702
24.296000000000003,37.09140977562415,-6.285043084377962,1.341111977246392
24.316000000000003,37.092910530566385,-6.284976368552266,1.3401561852593138
24.336000000000002,37.09441128550862,-6.28490965272657,1.3392003932722356
24.356,37.09591204045086,-6.2848429369008745,1.3382446012851574
24.376,37.0974127953931,-6.2847762210751785,1.3372888092980793
24.396000000000004,37.09891355033534,-6.284709505249482,1.3363330173110008
24.416000000000004,37.100414305277575,-6.284642789423786,1.3353772253239227
24.436000000000003,37.10191506021982,-6.28457607359809,1.3344214333368445
24.456000000000003,37.10341581516205,-6.284509357772394,1.3334656413497663
24.476000000000003,37.104916570104294,-6.284442641946698,1.3325098493626881
24.496000000000002,37.10641732504653,-6.284375926121001,1.33155405737561
24.516000000000002,37.107918079988764,-6.284309210295305,1.3305982653885318
24.536,37.109418834931006,-6.284242494469609,1.3296424734014536
24.556000000000004,37.11091958987324,-6.284175778643913,1.3286866814143754
24.576000000000004,37.11242034481548,-6.284109062818217,1.327730889427297
24.596000000000004,37.11392109975772,-6.28404234699252,1.326775097440219
24.616000000000003,37.11542185469996,-6.2839756311668244,1.3258193054531406
24.636000000000003,37.116922609642195,-6.2839089153411285,1.3248635134660627
24.656000000000002,37.11842336458443,-6.2838421995154325,1.3239077214789843
24.676000000000002,37.11992411952667,-6.283775483689737,1.3229519294919063
24.696,37.12142487446891,-6.28370876786404,1.3219961375048281
24.716000000000005,37.12292562941115,-6.283642052038344,1.3210403455177497
24.736000000000004,37.124426384353384,-6.283575336212648,1.3200845535306716
24.756000000000004,37.12592713929563,-6.283508620386952,1.3191287615435934
24.776000000000003,37.12742789423786,-6.283441904561256,1.3181729695565152
24.796000000000003,37.128928649180104,-6.283375188735559,1.317217177569437
24.816000000000003,37.13042940412234,-6.283308472909863,1.3162613855823588
24.836000000000002,37.131930159064574,-6.283241757084167,1.3153055935952807
24.856,37.133430914006816,-6.283175041258471,1.3143498016082025
24.876000000000005,37.13493166894905,-6.283108325432775,1.313394009621124
24.896000000000004,37.13643242389129,-6.2830416096070785,1.312438217634046
24.916000000000004,37.13793317883353,-6.2829748937813825,1.3114824256469677
24.936000000000003,37.13943393377577,-6.282908177955687,1.3105266336598895
24.956000000000003,37.140934688718005,-6.282841462129991,1.3095708416728113
24.976000000000003,37.14243544366025,-6.282774746304295,1.3086150496857332
24.996000000000002,37.14393619860248,-6.282708030478598,1.307659257698655
25.016000000000002,37.14543695354472,-6.282641314652902,1.3067034657115768
25.036,37.14693770848696,-6.282574598827206,1.3057476737244986
25.056000000000004,37.148438463429194,-6.28250788300151,1.3047918817374202
25.076000000000004,37.149939218371436,-6.282441167175814,1.3038360897503423
25.096000000000004,37.15143997331367,-6.282374451350117,1.302880297763264
25.116000000000003,37.15294072825591,-6.282307735524421,1.301924505776186
25.136000000000003,37.15444148319815,-6.282241019698725,1.3009687137891077
25.156000000000002,37.15594223814039,-6.282174303873029,1.3000129218020295
25.176000000000002,37.157442993082626,-6.282107588047333,1.2990571298149514
25.196,37.15894374802486,-6.2820408722216365,1.2981013378278732
25.216000000000005,37.1604445029671,-6.281974156395941,1.2971455458407948
25.236000000000004,37.16194525790934,-6.281907440570245,1.2961897538537166
25.256000000000004,37.16344601285158,-6.281840724744549,1.2952339618666384
25.276000000000003,37.164946767793815,-6.281774008918853,1.2942781698795602
25.296000000000003,37.16644752273606,-6.281707293093156,1.293322377892482
25.316000000000003,37.16794827767829,-6.28164057726746,1.2923665859054039
25.336000000000002,37.169449032620534,-6.281573861441764,1.2914107939183257
25.356,37.17094978756277,-6.281507145616068,1.2904550019312475
25.376000000000005,37.172450542505004,-6.281440429790372,1.2894992099441691
25.396000000000004,37.173951297447246,-6.281373713964675,1.288543417957091
25.416000000000004,37.17545205238948,-6.281306998138979,1.2875876259700128
25.436000000000003,37.17695280733172,-6.281240282313283,1.2866318339829346
25.456000000000003,37.17845356227396,-6.281173566487587,1.2856760419958564
25.476000000000003,37.1799543172162,-6.2811068506618914,1.2847202500087782
25.496000000000002,37.181455072158435,-6.281040134836195,1.2837644580217
25.516000000000002,37.18295582710067,-6.280973419010499,1.2828086660346218
25.536000000000005,37.18445658204291,-6.280906703184803,1.2818528740475437
25.556000000000004,37.18595733698515,-6.280839987359107,1.2808970820604655
25.576000000000004,37.18745809192739,-6.280773271533411,1.2799412900733873
25.596000000000004,37.188958846869625,-6.280706555707714,1.2789854980863091
25.616000000000003,37.19045960181187,-6.280639839882018,1.278029706099231
25.636000000000003,37.1919603567541,-6.280573124056322,1.2770739141121528
25.656000000000002,37.193461111696344,-6.280506408230626,1.2761181221250746
25.676000000000002,37.19496186663858,-6.28043969240493,1.2751623301379964
25.696,37.196462621580814,-6.280372976579233,1.2742065381509182
25.716000000000005,37.197963376523056,-6.280306260753537,1.2732507461638398
25.736000000000004,37.19946413146529,-6.280239544927841,1.2722949541767616
25.756000000000004,37.20096488640753,-6.2801728291021455,1.2713391621896835
25.776000000000003,37.20246564134977,-6.2801061132764495,1.2703833702026053
25.796000000000003,37.20396639629201,-6.280039397450753,1.269427578215527
25.816000000000003,37.205467151234245,-6.279972681625057,1.268471786228449
25.836000000000002,37.20696790617649,-6.279905965799361,1.2675159942413707
25.856,37.20846866111872,-6.279839249973665,1.2665602022542926
25.876000000000005,37.20996941606096,-6.279772534147969,1.2656044102672142
25.896000000000004,37.2114701710032,-6.279705818322272,1.264648618280136
25.916000000000004,37.212970925945434,-6.279639102496576,1.2636928262930578
25.936000000000003,37.21447168088768,-6.27957238667088,1.2627370343059798
25.956000000000003,37.21597243582991,-6.279505670845184,1.2617812423189014
25.976000000000003,37.217473190772154,-6.279438955019488,1.2608254503318235
25.996000000000002,37.21897394571439,-6.279372239193791,1.259869658344745
26.016000000000002,37.220474700656624,-6.279305523368095,1.258913866357667
26.036000000000005,37.221975455598866,-6.2792388075423995,1.2579580743705887
26.056000000000004,37.2234762105411,-6.2791720917167035,1.2570022823835105
26.076000000000004,37.22497696548334,-6.279105375891008,1.2560464903964323
26.096000000000004,37.22647772042558,-6.279038660065311,1.2550906984093542
26.116000000000003,37.22797847536782,-6.278971944239615,1.254134906422276
26.136000000000003,37.229479230310055,-6.278905228413919,1.2531791144351978
26.156000000000002,37.2309799852523,-6.278838512588223,1.2522233224481196
26.176000000000002,37.23248074019453,-6.278771796762527,1.2512675304610414
26.196000000000005,37.233981495136774,-6.27870508093683,1.250311738473963
26.216000000000005,37.23548225007901,-6.278638365111134,1.2493559464868849
26.236000000000004,37.236983005021244,-6.278571649285438,1.2484001544998067
26.256000000000004,37.238483759963486,-6.278504933459742,1.2474443625127285
26.276000000000003,37.23998451490572,-6.278438217634046,1.2464885705256503
26.296000000000003,37.24148526984796,-6.27837150180835,1.2455327785385721
26.316000000000003,37.2429860247902,-6.2783047859826535,1.244576986551494
26.336000000000002,37.24448677973244,-6.278238070156958,1.2436211945644158
26.356,37.245987534674676,-6.278171354331262,1.2426654025773376
26.376000000000005,37.24748828961691,-6.278104638505566,1.2417096105902594
26.396000000000004,37.24898904455915,-6.27803792267987,1.240753818603181
26.416000000000004,37.25048979950139,-6.277971206854173,1.239798026616103
26.436000000000003,37.25199055444363,-6.277904491028477,1.2388422346290247
26.456000000000003,37.253491309385865,-6.277837775202781,1.2378864426419467
26.476000000000003,37.25499206432811,-6.277771059377085,1.2369306506548683
26.496000000000002,37.25649281927034,-6.277704343551389,1.2359748586677903
26.516000000000002,37.257993574212584,-6.277637627725692,1.235019066680712
26.536000000000005,37.25949432915482,-6.277570911899996,1.2340632746936337
26.556000000000004,37.260995084097054,-6.2775041960743,1.2331074827065556
26.576000000000004,37.262495839039296,-6.277437480248604,1.2321516907194774
26.596000000000004,37.26399659398153,-6.277370764422908,1.2311958987323992
26.616000000000003,37.26549734892377,-6.277304048597212,1.230240106745321
26.636000000000003,37.26699810386601,-6.277237332771516,1.2292843147582428
26.656000000000002,37.26849885880825,-6.27717061694582,1.2283285227711647
26.676000000000002,37.269999613750485,-6.277103901120124,1.2273727307840865
26.696000000000005,37.27150036869273,-6.277037185294428,1.226416938797008
26.716000000000005,37.27300112363496,-6.276970469468731,1.22546114680993
26.736000000000004,37.2745018785772,-6.276903753643035,1.2245053548228517
26.756000000000004,37.27600263351944,-6.276837037817339,1.2235495628357735
26.776000000000003,37.277503388461675,-6.276770321991643,1.2225937708486954
26.796000000000003,37.27900414340392,-6.276703606165947,1.2216379788616172
26.816000000000003,37.28050489834615,-6.27663689034025,1.220682186874539
26.836000000000002,37.282005653288394,-6.276570174514554,1.2197263948874608
26.856000000000005,37.28350640823063,-6.276503458688858,1.2187706029003826
26.876000000000005,37.28500716317287,-6.276436742863162,1.2178148109133042
26.896000000000004,37.286507918115106,-6.2763700270374665,1.2168590189262263
26.916000000000004,37.28800867305734,-6.27630331121177,1.2159032269391479
26.936000000000003,37.28950942799958,-6.276236595386074,1.21494743495207
26.956000000000003,37.29101018294182,-6.276169879560378,1.2139916429649915
26.976000000000003,37.29251093788406,-6.276103163734682,1.2130358509779136
26.996000000000002,37.294011692826295,-6.276036447908986,1.2120800589908352
27.016000000000002,37.29551244776854,-6.275969732083289,1.2111242670037572
27.036000000000005,37.29701320271077,-6.275903016257593,1.2101684750166788
27.056000000000004,37.29851395765301,-6.275836300431897,1.2092126830296006
27.076000000000004,37.30001471259525,-6.275769584606201,1.2082568910425224
27.096000000000004,37.301515467537484,-6.275702868780505,1.2073010990554442
27.116000000000003,37.30301622247973,-6.275636152954808,1.206345307068366
27.136000000000003,37.30451697742196,-6.275569437129112,1.2053895150812879
27.156000000000002,37.306017732364204,-6.2755027213034165,1.2044337230942097
27.176000000000002,37.30751848730644,-6.2754360054777205,1.2034779311071315
27.196000000000005,37.30901924224868,-6.275369289652025,1.2025221391200531
27.216000000000005,37.310519997190916,-6.275302573826328,1.201566347132975
27.236000000000004,37.31202075213315,-6.275235858000632,1.2006105551458968
27.256000000000004,37.31352150707539,-6.275169142174936,1.1996547631588186
27.276000000000003,37.31502226201763,-6.27510242634924,1.1986989711717404
27.296000000000003,37.31652301695987,-6.275035710523544,1.1977431791846622
27.316000000000003,37.318023771902105,-6.274968994697847,1.196787387197584
27.336000000000002,37.31952452684435,-6.274902278872151,1.1958315952105059
27.356000000000005,37.32102528178658,-6.274835563046455,1.1948758032234275
27.376000000000005,37.322526036728824,-6.274768847220759,1.1939200112363495
27.396000000000004,37.32402679167106,-6.274702131395063,1.192964219249271
27.416000000000004,37.325527546613294,-6.274635415569366,1.1920084272621931
27.436000000000003,37.327028301555536,-6.2745686997436705,1.1910526352751147
27.456000000000003,37.32852905649777,-6.2745019839179745,1.1900968432880368
27.476000000000003,37.33002981144001,-6.274435268092279,1.1891410513009584
27.496000000000002,37.33153056638225,-6.274368552266583,1.1881852593138804
27.516000000000005,37.33303132132449,-6.274301836440886,1.187229467326802
27.536000000000005,37.334532076266726,-6.27423512061519,1.1862736753397238
27.556000000000004,37.33603283120897,-6.274168404789494,1.1853178833526457
27.576000000000004,37.3375335861512,-6.274101688963798,1.1843620913655675
27.596000000000004,37.33903434109344,-6.274034973138102,1.1834062993784893
27.616000000000003,37.34053509603568,-6.273968257312405,1.182450507391411
27.636000000000003,37.342035850977915,-6.273901541486709,1.181494715404333
27.656000000000002,37.34353660592016,-6.273834825661013,1.1805389234172547
27.676000000000002,37.34503736086239,-6.273768109835317,1.1795831314301766
27.696000000000005,37.346538115804634,-6.273701394009621,1.1786273394430982
27.716000000000005,37.34803887074687,-6.2736346781839245,1.17767154745602
27.736000000000004,37.349539625689104,-6.2735679623582286,1.1767157554689418
27.756000000000004,37.351040380631346,-6.273501246532533,1.1757599634818636
27.776000000000003,37.35254113557358,-6.273434530706837,1.1748041714947854
27.796000000000003,37.35404189051582,-6.273367814881141,1.1738483795077073
27.816000000000003,37.35554264545806,-6.273301099055444,1.172892587520629
27.836000000000002,37.3570434004003,-6.273234383229748,1.171936795533551
27.856000000000005,37.358544155342535,-6.273167667404052,1.1709810035464727
27.876000000000005,37.36004491028478,-6.273100951578356,1.1700252115593943
27.896000000000004,37.36154566522701,-6.27303423575266,1.1690694195723164
27.916000000000004,37.36304642016925,-6.272967519926963,1.168113627585238
27.936000000000003,37.36454717511149,-6.272900804101267,1.16715783559816
27.956000000000003,37.366047930053725,-6.272834088275571,1.1662020436110816
27.976000000000003,37.36754868499597,-6.272767372449875,1.1652462516240036
27.996000000000002,37.3690494399382,-6.272700656624179,1.1642904596369252
28.016000000000005,37.370550194880444,-6.272633940798483,1.163334667649847
28.036000000000005,37.37205094982268,-6.272567224972787,1.1623788756627689
28.056000000000004,37.37355170476492,-6.272500509147091,1.1614230836756907
28.076000000000004,37.375052459707156,-6.272433793321395,1.1604672916886125
28.096000000000004,37.37655321464939,-6.272367077495699,1.1595114997015343
28.116000000000003,37.37805396959163,-6.272300361670002,1.1585557077144562
28.136000000000003,37.37955472453387,-6.272233645844306,1.157599915727378
28.156000000000002,37.38105547947611,-6.27216693001861,1.1566441237402998
28.176000000000002,37.382556234418345,-6.272100214192914,1.1556883317532216
28.196000000000005,37.38405698936059,-6.272033498367218,1.1547325397661432
28.216000000000005,37.38555774430282,-6.271966782541522,1.153776747779065
28.236000000000004,37.387058499245065,-6.271900066715825,1.1528209557919868
28.256000000000004,37.3885592541873,-6.271833350890129,1.1518651638049087
28.276000000000003,37.390060009129535,-6.271766635064433,1.1509093718178307
28.296000000000003,37.39156076407178,-6.2716999192387375,1.1499535798307523
28.316000000000003,37.39306151901401,-6.2716332034130415,1.1489977878436743
28.336000000000002,37.394562273956254,-6.271566487587345,1.148041995856596
28.356000000000005,37.39606302889849,-6.271499771761649,1.1470862038695175
28.376000000000005,37.39756378384073,-6.271433055935953,1.1461304118824396
28.396000000000004,37.399064538782966,-6.271366340110257,1.1451746198953612
28.416000000000004,37.4005652937252,-6.271299624284561,1.1442188279082832
28.436000000000003,37.40206604866744,-6.271232908458864,1.1432630359212048
28.456000000000003,37.40356680360968,-6.271166192633168,1.1423072439341269
28.476000000000003,37.40506755855192,-6.271099476807472,1.1413514519470485
28.496000000000002,37.406568313494155,-6.271032760981776,1.1403956599599705
28.516000000000005,37.4080690684364,-6.27096604515608,1.139439867972892
28.536000000000005,37.40956982337863,-6.270899329330383,1.138484075985814
28.556000000000004,37.411070578320874,-6.2708326135046875,1.1375282839987357
28.576000000000004,37.41257133326311,-6.2707658976789915,1.1365724920116576
28.596000000000004,37.414072088205344,-6.270699181853296,1.1356167000245794
28.616000000000003,37.41557284314759,-6.2706324660276,1.1346609080375012
28.636000000000003,37.41707359808982,-6.270565750201903,1.133705116050423
28.656000000000002,37.418574353032064,-6.270499034376207,1.1327493240633448
28.676000000000005,37.4200751079743,-6.270432318550511,1.1317935320762664
28.696000000000005,37.42157586291654,-6.270365602724815,1.1308377400891882
28.716000000000005,37.423076617858776,-6.270298886899119,1.1298819481021103
28.736000000000004,37.42457737280102,-6.270232171073422,1.1289261561150319
28.756000000000004,37.42607812774325,-6.270165455247726,1.127970364127954
28.776000000000003,37.42757888268549,-6.27009873942203,1.1270145721408755
28.796000000000003,37.42907963762773,-6.270032023596334,1.1260587801537976
28.816000000000003,37.430580392569965,-6.269965307770638,1.1251029881667192
28.836000000000002,37.43208114751221,-6.2698985919449415,1.1241471961796412
28.856000000000005,37.43358190245444,-6.2698318761192455,1.1231914041925628
28.876000000000005,37.435082657396684,-6.26976516029355,1.1222356122054844
28.896000000000004,37.43658341233892,-6.269698444467854,1.1212798202184064
28.916000000000004,37.43808416728116,-6.269631728642158,1.120324028231328
28.936000000000003,37.439584922223396,-6.269565012816461,1.11936823624425
28.956000000000003,37.44108567716563,-6.269498296990765,1.1184124442571717
28.976000000000003,37.44258643210787,-6.269431581165069,1.1174566522700937
28.996000000000002,37.44408718705011,-6.269364865339373,1.1165008602830153
29.016000000000005,37.44558794199235,-6.269298149513677,1.1155450682959371
29.036000000000005,37.447088696934586,-6.26923143368798,1.114589276308859
29.056000000000004,37.44858945187683,-6.269164717862284,1.1136334843217808
29.076000000000004,37.45009020681906,-6.269098002036588,1.1126776923347026
29.096000000000004,37.4515909617613,-6.269031286210892,1.1117219003476244
29.116000000000003,37.45309171670354,-6.268964570385196,1.1107661083605462
29.136000000000003,37.454592471645775,-6.2688978545594995,1.109810316373468
29.156000000000002,37.45609322658802,-6.268831138733804,1.1088545243863899
29.176000000000005,37.45759398153025,-6.268764422908108,1.1078987323993115
29.196000000000005,37.459094736472494,-6.268697707082412,1.1069429404122335
29.216000000000005,37.46059549141473,-6.268630991256716,1.105987148425155
29.236000000000004,37.46209624635697,-6.268564275431019,1.1050313564380772
29.256000000000004,37.463597001299206,-6.268497559605323,1.1040755644509987
29.276000000000003,37.46509775624144,-6.268430843779627,1.1031197724639208
29.296000000000003,37.46659851118368,-6.268364127953931,1.1021639804768424
29.316000000000003,37.46809926612592,-6.268297412128235,1.1012081884897644
29.336000000000006,37.46960002106816,-6.268230696302538,1.100252396502686
29.356000000000005,37.471100776010395,-6.268163980476842,1.0992966045156076
29.376000000000005,37.47260153095264,-6.268097264651146,1.0983408125285297
29.396000000000004,37.47410228589487,-6.26803054882545,1.0973850205414513
29.416000000000004,37.475603040837115,-6.2679638329997545,1.0964292285543733
29.436000000000003,37.47710379577935,-6.267897117174058,1.095473436567295
29.456000000000003,37.478604550721585,-6.267830401348362,1.094517644580217
29.476000000000003,37.48010530566383,-6.267763685522666,1.0935618525931385
29.496000000000002,37.48160606060606,-6.26769696969697,1.0926060606060606
29.516000000000005,37.483106815548304,-6.267630253871274,1.0916502686189822
29.536000000000005,37.48460757049054,-6.267563538045577,1.090694476631904
29.556000000000004,37.48610832543278,-6.267496822219881,1.0897386846448258
29.576000000000004,37.487609080375016,-6.267430106394185,1.0887828926577476
29.596000000000004,37.48910983531726,-6.267363390568489,1.0878271006706695
29.616000000000003,37.49061059025949,-6.267296674742793,1.0868713086835913
29.636000000000003,37.49211134520173,-6.267229958917096,1.085915516696513
29.656000000000002,37.49361210014397,-6.2671632430914,1.084959724709435
29.676000000000005,37.495112855086205,-6.267096527265704,1.0840039327223567
29.696000000000005,37.49661361002845,-6.2670298114400085,1.0830481407352783
29.716000000000005,37.49811436497068,-6.2669630956143125,1.0820923487482004
29.736000000000004,37.499615119912924,-6.266896379788616,1.081136556761122
29.756000000000004,37.50111587485516,-6.26682966396292,1.080180764774044
29.776000000000003,37.502616629797394,-6.266762948137224,1.0792249727869656
29.796000000000003,37.50411738473964,-6.266696232311528,1.0782691807998876
29.816000000000003,37.50561813968187,-6.266629516485832,1.0773133888128092
29.836000000000006,37.507118894624114,-6.266562800660135,1.0763575968257308
29.856000000000005,37.50861964956635,-6.266496084834439,1.0754018048386529
29.876000000000005,37.51012040450859,-6.266429369008743,1.0744460128515745
29.896000000000004,37.511621159450826,-6.266362653183047,1.0734902208644965
29.916000000000004,37.51312191439307,-6.266295937357351,1.0725344288774181
29.936000000000003,37.5146226693353,-6.266229221531654,1.0715786368903402
29.956000000000003,37.51612342427754,-6.2661625057059585,1.070622844903262
29.976000000000003,37.51762417921978,-6.2660957898802625,1.0696670529161838
29.996000000000006,37.519124934162015,-6.2660290740545665,1.0687112609291054
30.016000000000005,37.52062568910426,-6.265962358228871,1.0677554689420272
30.036000000000005,37.52212644404649,-6.265895642403174,1.066799676954949
30.056000000000004,37.523627198988734,-6.265828926577478,1.0658438849678709
30.076000000000004,37.52512795393097,-6.265762210751782,1.0648880929807927
30.096000000000004,37.52662870887321,-6.265695494926086,1.0639323009937145
30.116000000000003,37.528129463815446,-6.26562877910039,1.0629765090066363
30.136000000000003,37.52963021875768,-6.265562063274694,1.0620207170195581
30.156000000000002,37.53113097369992,-6.265495347448997,1.06106492503248
30.176000000000005,37.53263172864216,-6.265428631623301,1.0601091330454016
30.196000000000005,37.5341324835844,-6.265361915797605,1.0591533410583236
30.216000000000005,37.535633238526636,-6.265295199971909,1.0581975490712452
30.236000000000004,37.53713399346888,-6.265228484146213,1.0572417570841672
30.256000000000004,37.53863474841111,-6.2651617683205165,1.0562859650970888
30.276000000000003,37.540135503353355,-6.265095052494821,1.0553301731100109
30.296000000000003,37.54163625829559,-6.265028336669125,1.0543743811229325
30.316000000000003,37.543137013237825,-6.264961620843429,1.0534185891358545
30.336000000000006,37.54463776818007,-6.264894905017733,1.052462797148776
30.356000000000005,37.5461385231223,-6.264828189192036,1.0515070051616977
30.376000000000005,37.547639278064544,-6.26476147336634,1.0505512131746197
30.396000000000004,37.54914003300678,-6.264694757540644,1.0495954211875416
30.416000000000004,37.55064078794902,-6.264628041714948,1.0486396292004634
30.436000000000003,37.552141542891256,-6.264561325889252,1.0476838372133852
30.456000000000003,37.55364229783349,-6.264494610063555,1.046728045226307
30.476000000000003,37.55514305277573,-6.264427894237859,1.0457722532392288
30.496000000000006,37.55664380771797,-6.264361178412163,1.0448164612521504
30.516000000000005,37.55814456266021,-6.264294462586467,1.0438606692650723
30.536000000000005,37.559645317602445,-6.264227746760771,1.042904877277994
30.556000000000004,37.56114607254469,-6.264161030935075,1.041949085290916
30.576000000000004,37.56264682748692,-6.264094315109379,1.0409932933038377
30.596000000000004,37.564147582429165,-6.264027599283683,1.0400375013167595
30.616000000000003,37.5656483373714,-6.263960883457987,1.0390817093296814
30.636000000000003,37.567149092313635,-6.263894167632291,1.0381259173426032
30.656000000000006,37.56864984725588,-6.263827451806594,1.0371701253555248
30.676000000000005,37.57015060219811,-6.263760735980898,1.0362143333684468
30.696000000000005,37.571651357140354,-6.263694020155202,1.0352585413813684
30.716000000000005,37.57315211208259,-6.263627304329506,1.0343027493942905
30.736000000000004,37.57465286702483,-6.26356058850381,1.033346957407212
30.756000000000004,37.576153621967066,-6.263493872678113,1.032391165420134
30.776000000000003,37.57765437690931,-6.263427156852417,1.0314353734330557
30.796000000000003,37.57915513185154,-6.263360441026721,1.0304795814459777
30.816000000000003,37.58065588679378,-6.2632937252010255,1.0295237894588993
30.836000000000006,37.58215664173602,-6.2632270093753295,1.0285679974718211
30.856000000000005,37.583657396678255,-6.263160293549633,1.027612205484743
30.876000000000005,37.5851581516205,-6.263093577723937,1.0266564134976648
30.896000000000004,37.58665890656273,-6.263026861898241,1.0257006215105866
30.916000000000004,37.588159661504974,-6.262960146072545,1.0247448295235084
30.936000000000003,37.58966041644721,-6.262893430246849,1.0237890375364302
30.956000000000003,37.591161171389444,-6.262826714421152,1.022833245549352
30.976000000000003,37.59266192633169,-6.262759998595456,1.0218774535622739
30.996000000000006,37.59416268127392,-6.26269328276976,1.0209216615751955
31.016000000000005,37.595663436216164,-6.262626566944064,1.0199658695881173
31.036000000000005,37.5971641911584,-6.262559851118368,1.0190100776010391
31.056000000000004,37.59866494610064,-6.262493135292671,1.018054285613961
31.076000000000004,37.600165701042876,-6.262426419466975,1.0170984936268828
31.096000000000004,37.60166645598512,-6.2623597036412795,1.0161427016398046
31.116000000000003,37.60316721092735,-6.2622929878155835,1.0151869096527264
31.136000000000003,37.60466796586959,-6.262226271989888,1.0142311176656482
31.156000000000006,37.60616872081183,-6.262159556164191,1.01327532567857
31.176000000000005,37.607669475754065,-6.262092840338495,1.0123195336914916
31.196000000000005,37.60917023069631,-6.262026124512799,1.0113637417044137
31.216000000000005,37.61067098563854,-6.261959408687103,1.0104079497173353
31.236000000000004,37.612171740580784,-6.261892692861407,1.0094521577302573
31.256000000000004,37.61367249552302,-6.26182597703571,1.008496365743179
31.276000000000003,37.61517325046526,-6.261759261210014,1.007540573756101
31.296000000000003,37.616674005407496,-6.261692545384318,1.0065847817690226
31.316000000000006,37.61817476034973,-6.261625829558622,1.0056289897819444
31.336000000000006,37.61967551529197,-6.261559113732926,1.0046731977948662
31.356000000000005,37.62117627023421,-6.2614923979072294,1.003717405807788
31.376000000000005,37.62267702517645,-6.2614256820815335,1.0027616138207098
31.396000000000004,37.624177780118686,-6.2613589662558375,1.0018058218336316
31.416000000000004,37.62567853506093,-6.261292250430142,1.0008500298465535
31.436000000000003,37.62717929000316,-6.261225534604446,0.9998942378594753
31.456000000000003,37.628680044945405,-6.261158818778749,0.9989384458723971
31.476000000000003,37.63018079988764,-6.261092102953053,0.9979826538853189
31.496000000000006,37.631681554829875,-6.261025387127357,0.9970268618982405
31.516000000000005,37.63318230977212,-6.260958671301661,0.9960710699111623
31.536000000000005,37.63468306471435,-6.260891955475965,0.9951152779240842
31.556000000000004,37.636183819656594,-6.260825239650268,0.994159485937006
31.576000000000004,37.63768457459883,-6.260758523824572,0.9932036939499278
31.596000000000004,37.63918532954107,-6.260691807998876,0.9922479019628496
31.616000000000003,37.640686084483306,-6.26062509217318,0.9912921099757716
31.636000000000003,37.64218683942555,-6.260558376347484,0.9903363179886934
31.656000000000006,37.64368759436778,-6.2604916605217875,0.989380526001615
31.676000000000005,37.64518834931002,-6.260424944696092,0.9884247340145368
31.696000000000005,37.64668910425226,-6.260358228870396,0.9874689420274586
31.716000000000005,37.648189859194495,-6.2602915130447,0.9865131500403804
31.736000000000004,37.64969061413674,-6.260224797219004,0.9855573580533022
31.756000000000004,37.65119136907897,-6.260158081393307,0.9846015660662241
31.776000000000003,37.652692124021215,-6.260091365567611,0.9836457740791459
31.796000000000003,37.65419287896345,-6.260024649741915,0.9826899820920677
31.816000000000006,37.65569363390569,-6.259957933916219,0.9817341901049894
31.836000000000006,37.65719438884793,-6.259891218090523,0.9807783981179112
31.856000000000005,37.65869514379016,-6.259824502264826,0.979822606130833
31.876000000000005,37.660195898732404,-6.25975778643913,0.9788668141437549
31.896000000000004,37.66169665367464,-6.259691070613434,0.9779110221566767
31.916000000000004,37.66319740861688,-6.259624354787738,0.9769552301695985
31.936000000000003,37.664698163559116,-6.259557638962042,0.9759994381825203
31.956000000000003,37.66619891850136,-6.259490923136346,0.9750436461954421
31.976000000000006,37.66769967344359,-6.25942420731065,0.9740878542083637
31.996000000000006,37.669200428385835,-6.259357491484954,0.9731320622212856
32.016000000000005,37.67070118332807,-6.259290775659258,0.9721762702342074
32.036,37.672201938270305,-6.259224059833562,0.9712204782471294
32.056000000000004,37.67370269321255,-6.259157344007866,0.9702646862600511
32.07600000000001,37.67520344815478,-6.259090628182169,0.9693088942729727
32.096000000000004,37.676704203097025,-6.259023912356473,0.9683531022858948
32.11600000000001,37.67820495803926,-6.258957196530777,0.9673973102988164
32.136,37.6797057129815,-6.258890480705081,0.9664415183117384
32.156000000000006,37.68120646792374,-6.258823764879385,0.96548572632466
32.176,37.68270722286597,-6.258757049053688,0.964529934337582
32.196000000000005,37.684207977808214,-6.258690333227992,0.9635741423505036
32.216,37.68570873275045,-6.2586236174022964,0.9626183503634257
32.236000000000004,37.68720948769269,-6.2585569015766005,0.9616625583763473
32.25600000000001,37.688710242634926,-6.2584901857509045,0.960706766389269
32.276,37.69021099757717,-6.258423469925208,0.9597509744021909
32.29600000000001,37.6917117525194,-6.258356754099512,0.9587951824151126
32.316,37.69321250746164,-6.258290038273816,0.9578393904280346
32.336000000000006,37.69471326240388,-6.25822332244812,0.9568835984409563
