timestamp,gyro_x,gyro_y,gyro_z
0.024,0.28,0.31,-0.35
0.044,0.35,0.33333333333333337,-0.44333333333333336
0.064,0.5700000000000001,0.385,-0.39
0.08399999999999999,0.9307142857142857,0.37642857142857145,-0.43357142857142855
0.10399999999999998,0.9966666666666668,0.18000000000000016,-0.43
0.12399999999999997,0.7000000000000005,0.14999999999999972,-0.5099999999999998
0.144,0.5660000000000001,0.21,-0.578
0.16399999999999998,0.3900000000000001,0.20999999999999971,-0.3300000000000003
0.18399999999999997,0.31000000000000005,0.23000000000000007,-0.2100000000000001
0.20399999999999996,0.16000000000000056,0.05000000000000056,-0.010000000000000557
0.22399999999999995,0.07000000000000028,2.7755575615628914e-16,0.09
0.24399999999999997,0.031250000000000035,-0.05812499999999994,0.09
0.26399999999999996,-0.4999999999999989,-0.7000000000000002,0.05999999999999972
0.284,-0.59,-0.61,0.17
0.304,-0.422,-0.156,0.19266666666666668
0.32399999999999995,0.01333333333333241,0.7133333333333318,0.16333333333333352
0.344,0.45,0.82,0.21
0.364,0.7,0.265,0.37
0.38399999999999995,0.8299999999999998,-0.11999999999999966,0.40000000000000013
0.40399999999999997,0.9466666666666664,-0.17666666666666705,0.21666666666666703
0.42399999999999993,1.0349999999999997,-0.09500000000000028,0.045000000000000276
0.44399999999999995,1.179999999999999,0.1399999999999989,-0.05999999999999972
0.46399999999999997,1.2799999999999985,0.419999999999995,-0.10999999999999889
0.48399999999999993,1.4878260869565216,0.7039130434782608,-0.1869565217391304
0.5039999999999999,1.9633333333333336,0.9500000000000034,-0.2999999999999989
0.5239999999999999,1.1400000000000057,0.06333333333333592,-0.2000000000000022
0.5439999999999999,0.6676470588235304,0.025294117647058557,0.01176470588235249
0.564,-0.19117647058823517,0.31117647058823517,0.12941176470588242
0.584,-0.6433333333333333,0.3833333333333333,-0.1
0.604,-1.0,0.16,-0.24
0.6239999999999999,-1.0300000000000007,0.030000000000000554,-0.25
0.6439999999999999,-0.9600000000000001,-0.01,-0.26
0.6639999999999999,-0.7832000000000001,0.16119999999999993,-0.3
0.6839999999999999,-0.2500000000000022,0.3799999999999989,-0.25999999999999945
0.704,-0.1,0.47,-0.35
0.7239999999999999,-0.05,0.47,-0.5299999999999978
0.7439999999999999,-0.09,0.4499999999999989,-1.2033333333333291
0.7639999999999999,-0.10117647058823523,0.5052941176470591,-1.9394117647058817
0.7839999999999999,-0.15,0.22000000000000666,-2.3299999999999934
0.8039999999999999,-0.04600000000000022,-0.11649999999999949,-2.6394999999999995
0.8239999999999998,0.6299999999999983,-2.449999999999974,-3.170000000000002
0.8439999999999999,0.81,-2.8199999999999985,-3.0199999999999996
0.8639999999999999,0.5400000000000019,-2.3500000000000036,-3.02
0.8839999999999999,0.087000000000001,-2.077,-3.0839999999999996
0.9039999999999999,-1.0399999999999938,-0.7600000000000044,-3.539999999999998
0.9239999999999999,-1.689999999999997,-0.64,-3.6000000000000005
0.9439999999999998,-2.0299999999999994,-0.19000000000000222,-3.3200000000000016
0.9639999999999999,-1.9725000000000004,0.08249999999999987,-2.9225000000000008
0.9839999999999999,-1.6487500000000006,-0.2887499999999985,-2.5612500000000002
1.0039999999999998,-1.42,-1.3099999999999912,-2.44
1.0239999999999998,-1.6799999999999933,-1.2800000000000056,-2.3400000000000034
1.0439999999999998,-2.019999999999998,-0.7500000000000052,-1.8400000000000067
1.0639999999999998,-2.010000000000002,-0.5499999999999956,-1.1500000000000177
1.0839999999999999,-1.9350000000000005,-0.8474999999999986,-0.9674999999999997
1.1039999999999999,-1.87,-1.1399999999999992,-1.3199999999999956
1.1239999999999999,-1.8100000000000007,-0.9500000000000036,-1.6599999999999984
1.144,-1.77,-0.38,-1.72
1.164,-1.81,0.16,-1.66
1.184,-1.9449999999999994,0.32,-1.61
1.2039999999999997,-2.2339999999999978,0.04000000000000267,-1.6459999999999995
1.2239999999999998,-2.469999999999999,-0.40999999999999553,-1.7
1.2439999999999998,-2.6299999999999986,-0.7899999999999978,-1.6799999999999993
1.2639999999999998,-2.7619999999999996,-0.9719999999999998,-1.7
1.2839999999999998,-2.730000000000003,-1.1399999999999966,-1.5700000000000045
1.3039999999999998,-2.1900000000000057,-1.419999999999997,-1.1900000000000037
1.3239999999999998,-1.6433333333333358,-2.109999999999994,-0.8500000000000014
1.3439999999999999,-1.320000000000003,-2.8899999999999957,-0.6200000000000022
1.3639999999999999,-1.135714285714286,-3.0,-0.2642857142857156
1.384,-1.0200000000000011,-2.3800000000000088,0.21499999999999722
1.404,-0.94,-1.132857142857144,0.6999999999999994
1.4239999999999997,-0.8300000000000036,-0.8300000000000007,1.0499999999999994
1.4439999999999997,-0.04666666666667949,-0.8566666666666617,1.0566666666666678
1.4639999999999997,0.7959999999999968,-0.5680000000000224,0.5920000000000123
1.4839999999999998,0.5900000000000044,0.5700000000000044,-0.2900000000000022
1.5039999999999998,0.7733333333333269,1.5566666666666582,1.1599999999999926
1.5239999999999998,1.3699999999999972,1.3600000000000096,2.069999999999993
1.5439999999999998,2.2399999999999833,1.2499999999999944,1.9600000000000088
1.5639999999999998,3.95999999999998,-0.06999999999998296,1.2600000000000044
1.5839999999999999,5.919999999999988,-1.489999999999991,1.0300000000000014
1.6039999999999999,7.287999999999998,-3.3359999999999923,0.82
1.6239999999999997,7.394285714285716,-4.707142857142849,0.8871428571428561
1.6439999999999997,6.660000000000009,-5.260000000000004,1.359999999999995
1.6639999999999997,5.7250000000000085,-4.23750000000001,1.7049999999999983
1.6839999999999997,3.7585000000000037,-2.0770000000000035,1.5595000000000012
1.7039999999999997,2.460000000000009,-0.4966666666666765,1.5433333333333235
1.7239999999999998,1.6666666666666765,-0.4233333333333294,2.8333333333333144
1.7439999999999998,0.9340000000000075,-0.6559999999999988,3.991999999999991
1.7639999999999998,0.10744680851063858,-0.77,4.681276595744681
1.7839999999999998,0.08191489361702149,-0.77,4.694042553191489
1.8039999999999998,0.05638297872340441,-0.77,4.7068085106382975
1.8239999999999998,-0.10999999999999555,0.22999999999999926,3.910000000000006
1.8439999999999996,-0.9207142857142822,0.6642857142857129,3.4535714285714305
1.8639999999999997,-2.509999999999978,1.2766666666666568,2.480000000000011
1.8839999999999997,-3.5266666666666477,1.7333333333333254,2.02333333333334
1.9039999999999997,-5.839999999999968,2.3000000000000056,1.6933333333333371
1.9239999999999997,-8.706666666666633,0.9166666666666834,1.4999999999999971
1.9439999999999997,-10.57333333333332,0.7966666666666588,2.4533333333333207
1.9639999999999997,-10.83666666666668,1.4099999999999882,2.570000000000015
1.9839999999999998,-8.59000000000006,2.524999999999975,0.61000000000004
2.0039999999999996,-5.5700000000000625,2.7633333333333407,-0.613333333333323
2.0239999999999996,-2.3700000000000534,2.0400000000000267,-0.9933333333333185
2.0439999999999996,0.02499999999995338,0.3150000000000511,-2.0349999999999664
2.0639999999999996,0.9349999999999934,-1.3349999999999667,-2.969999999999987
2.0839999999999996,0.8025000000000097,-2.1524999999999874,-3.0875000000000012
2.1039999999999996,0.474285714285715,-2.231428571428574,-3.1442857142857137
2.1239999999999997,0.018000000000006393,-1.1160000000000074,-3.1320000000000046
2.1439999999999997,-0.3799999999999911,-0.4700000000000163,-2.900000000000003
2.1639999999999997,-0.7299999999999955,0.44999999999998447,-2.8000000000000007
2.1839999999999997,-0.9225000000000009,1.334999999999995,-2.82
2.2039999999999997,-0.7100000000000044,1.664999999999996,-2.6700000000000013
2.2239999999999998,0.9599999999999733,3.27999999999998,-2.540000000000003
2.2439999999999998,2.829999999999972,4.109999999999992,-2.45
2.264,7.09058823529411,2.6752941176470646,-3.325294117647055
2.284,8.18,1.74,-3.92
2.304,10.657499999999995,-1.264999999999995,-5.5799999999999965
2.324,10.668333333333342,-1.4183333333333357,-6.215000000000004
2.344,8.447500000000025,-0.3600000000000133,-4.227500000000016
2.364,5.316666666666687,1.9566666666666495,-3.8599999999999985
2.3839999999999995,3.5033333333333614,3.5499999999999745,-3.8966666666666683
2.4039999999999995,0.3580000000000277,6.593999999999971,-2.994000000000019
2.4239999999999995,-0.76,7.040000000000036,-0.9200000000000622
2.4439999999999995,1.0399999999999467,2.860000000000102,1.70999999999996
2.4639999999999995,2.969999999999967,0.44500000000001944,2.849999999999989
2.4839999999999995,4.173333333333326,0.1433333333333215,3.2199999999999913
2.5039999999999996,3.0560000000000223,0.20400000000000285,3.701999999999994
2.5239999999999996,0.1100000000000888,0.3899999999999689,4.3399999999999865
2.5439999999999996,-2.9399999999999245,2.049999999999951,4.440000000000005
2.5639999999999996,-5.243333333333311,3.2933333333333343,4.296666666666669
2.5839999999999996,-6.2649999999999935,1.7750000000000732,4.045000000000002
2.6039999999999996,-5.480000000000054,-1.089999999999951,3.8300000000000223
2.6239999999999997,-3.7100000000000266,-1.7400000000000133,2.4800000000000444
2.6439999999999997,-4.169999999999898,-0.9200000000000489,1.6400000000000265
2.6639999999999997,-6.739999999999968,0.3650000000000033,1.6900000000000022
2.6839999999999997,-7.939999999999993,0.5049999999999989,0.6300000000000222
2.7039999999999997,-8.339999999999993,0.11500000000001222,-0.58499999999999
2.7239999999999998,-8.673333333333332,-0.2833333333333343,-1.209999999999994
2.7439999999999998,-8.570000000000006,-0.27666666666666573,-1.6433333333333284
2.764,-7.67666666666668,-0.5766666666666657,-2.2466666666666626
2.784,-6.940000000000012,0.7499999999999792,-3.2599999999999763
2.8039999999999994,-4.8700000000001,0.1850000000000766,-4.020000000000014
2.8239999999999994,-2.7200000000000735,-1.4499999999999402,-3.67500000000001
2.8439999999999994,-1.2750000000000568,-2.5249999999999835,-3.2500000000000266
2.8639999999999994,-2.6645352591003757e-14,-2.190000000000021,-2.360000000000022
2.8839999999999995,1.3049999999999802,-0.7500000000000488,-0.6850000000000467
2.9039999999999995,1.6224999999999932,1.2049999999999583,0.4624999999999931
2.9239999999999995,2.899999999999942,3.2749999999999577,0.20500000000002
2.9439999999999995,5.514999999999922,4.389999999999974,-0.549999999999969
2.9639999999999995,7.864999999999949,4.695000000000011,-2.539999999999929
2.9839999999999995,9.279999999999928,3.960000000000062,-4.629999999999907
3.0039999999999996,10.169999999999991,2.6950000000000287,-5.045000000000007
3.0239999999999996,10.369999999999996,2.4699999999999913,-5.169999999999987
3.0439999999999996,10.35000000000002,2.395000000000011,-4.8500000000000405
3.0639999999999996,9.020000000000044,2.270000000000004,-2.730000000000062
3.0839999999999996,7.950000000000018,2.0733333333333497,-1.2733333333333496
3.1039999999999996,6.575000000000051,1.2650000000000023,-0.6050000000000111
3.1239999999999997,4.600000000000064,1.8999999999999666,-0.10000000000001555
3.1439999999999997,2.02500000000003,3.4099999999999797,0.6249999999999878
3.1639999999999997,0.2600000000000178,4.539999999999991,1.564999999999988
3.1839999999999997,-0.47499999999999887,4.5150000000000095,2.3349999999999875
3.2039999999999997,-0.31500000000000333,3.5500000000000176,2.9949999999999903
3.2239999999999993,-0.1100000000000222,2.2200000000000446,3.759999999999942
3.2439999999999993,-0.38499999999996337,1.3650000000000433,4.259999999999993
3.2639999999999993,-1.5299999999999556,1.1299999999999926,3.9566666666666865
3.2839999999999994,-3.29999999999996,1.8049999999999717,3.29000000000001
3.3039999999999994,-4.78499999999995,2.5849999999999835,3.029999999999993
3.3239999999999994,-5.2466666666666715,2.58000000000003,3.11
3.3439999999999994,-5.06,0.9650000000000434,2.7850000000000232
3.3639999999999994,-5.563333333333299,-0.1933333333332766,2.3899999999999926
3.3839999999999995,-7.059999999999956,-2.659999999999929,2.72
3.4039999999999995,-8.129999999999994,-4.504999999999981,2.859999999999993
3.4239999999999995,-7.963333333333344,-3.88666666666671,2.9133333333333393
3.4439999999999995,-6.950000000000045,-0.6700000000001088,2.02000000000004
3.4639999999999995,-4.980000000000026,1.2766666666666653,0.3566666666666962
3.4839999999999995,-4.343333333333317,-0.543333333333326,-1.2333333333333083
3.5039999999999996,-4.2200000000000095,-0.9066666666666686,-1.7533333333333343
3.5239999999999996,-3.0833333333333464,-1.359999999999991,-1.3366666666666747
3.5439999999999996,-2.2966666666666744,-1.9566666666666628,-0.8866666666666686
3.5639999999999996,-1.9000000000000037,-1.7900000000000051,-0.8200000000000006
3.5839999999999996,-1.3950000000000111,-0.27000000000004887,-0.3300000000000177
3.6039999999999996,-0.7333333333333432,1.5199999999999794,0.4699999999999911
3.6239999999999997,0.08499999999997114,2.514999999999989,0.7450000000000022
3.6439999999999997,1.5699999999999512,2.4200000000000133,0.31000000000001776
3.6639999999999993,3.433333333333269,1.5233333333333727,-0.5566666666666272
3.6839999999999993,5.473333333333277,-0.016666666666619798,-2.7466666666665756
3.7039999999999993,6.959999999999953,-1.3499999999999535,-5.8199999999999
3.7239999999999993,7.266666666666687,-2.7366666666666197,-6.979999999999992
3.7439999999999993,6.440000000000049,-2.6300000000000487,-6.50000000000004
3.7639999999999993,5.716666666666686,-1.81333333333338,-5.383333333333387
3.7839999999999994,5.016000000000013,0.0319999999999714,-4.020000000000007
3.8039999999999994,4.146666666666687,1.3066666666666347,-4.553333333333306
3.8239999999999994,3.6066666666666864,2.5499999999999705,-5.179999999999993
3.8439999999999994,2.580000000000029,2.9999999999999933,-4.950000000000018
3.8639999999999994,1.6300000000000243,2.860000000000013,-3.830000000000038
3.8839999999999995,1.0300000000000111,2.090000000000022,-2.42000000000004
3.9039999999999995,1.079999999999994,1.7799999999999985,-1.3200000000000178
3.9239999999999995,1.5499999999999845,1.96,-0.3100000000000333
3.9439999999999995,1.8799999999999932,1.44000000000002,1.4099999999999377
3.9639999999999995,1.8400000000000067,1.029999999999989,3.6199999999999446
3.9839999999999995,0.9200000000000266,1.5099999999999834,5.064999999999975
4.004,-0.5666666666666449,2.949999999999976,5.79
4.023999999999999,-2.689999999999882,4.7533333333332655,5.256666666666722
4.044,-4.706666666666645,4.653333333333355,3.770000000000021
4.063999999999999,-5.510000000000009,3.635000000000011,2.155000000000033
4.084,-5.493333333333325,2.9133333333333464,1.6366666666666656
4.103999999999999,-6.40999999999996,1.5300000000001066,1.8499999999999779
4.124,-7.07,0.71,1.65
4.143999999999999,-7.300000000000018,1.1499999999999733,-0.009999999999795728
4.164,-6.85,1.23,-1.77
4.183999999999999,-6.180000000000044,-0.01999999999990673,-2.2800000000000042
4.204,-5.09,-1.44,-1.81
4.223999999999999,-3.64000000000016,-2.339999999999871,-1.3799999999999866
4.244,-3.28,-1.89,-2.42
4.263999999999999,-3.0350000000000064,-1.9099999999999946,-2.4849999999999954
4.284,-2.03,-2.08,-1.81
4.303999999999999,-1.636000000000001,-2.5219999999999914,-1.0260000000000065
4.323999999999999,-1.8299999999999883,-2.8200000000000056,-0.6000000000000207
4.343999999999999,-2.199999999999978,-1.8200000000000711,0.3299999999999467
4.363999999999999,-2.3700000000000045,-0.15000000000011104,1.0399999999999734
4.3839999999999995,-1.9000000000000326,2.4399999999999054,0.9400000000000236
4.403999999999999,-0.21000000000008884,3.9274999999999753,0.12500000000003886
4.4239999999999995,2.949999999999818,3.030000000000093,-0.9699999999999422
4.443999999999999,5.919999999999911,0.7900000000000917,-2.20999999999995
4.4639999999999995,7.429999999999951,-1.2599999999999334,-3.219999999999978
4.483999999999999,7.859999999999995,-1.200000000000023,-3.4099999999999877
4.504,7.696666666666669,-0.3183333333333358,-4.0
4.523999999999999,7.2500000000000355,0.08999999999996447,-3.7149999999999954
4.544,6.16,1.36,-4.31
4.563999999999999,4.810000000000038,3.0099999999999465,-4.729999999999998
4.584,4.08,3.37,-3.93
4.603999999999999,3.560000000000021,2.7100000000000177,-2.650000000000041
4.624,2.938333333333339,2.5833333333333313,-1.95166666666667
4.643999999999999,2.2500000000000178,3.319999999999979,-1.4000000000000117
4.664,2.11,3.71,-1.05
4.683999999999999,2.759999999999961,3.420000000000009,-0.3300000000000385
4.704,3.67,2.58,0.91
4.723999999999999,3.9540000000000015,1.670000000000007,2.2879999999999745
4.743999999999999,3.2500000000000444,2.3599999999999524,3.5899999999999586
4.763999999999999,1.3000000000000949,4.089999999999953,3.8400000000000296
4.783999999999999,-1.2799999999999083,4.0600000000000325,1.8400000000000918
4.803999999999999,-3.369999999999932,3.450000000000006,0.3800000000000148
4.823999999999999,-5.0699999999999354,2.880000000000074,1.0399999999999645
4.843999999999999,-6.499999999999967,0.6000000000000563,2.1099999999999732
4.863999999999999,-6.82,-0.48199999999998294,2.445999999999999
4.8839999999999995,-6.460000000000024,-0.7999999999999882,2.1000000000000267
4.903999999999999,-5.0900000000000665,-1.5174999999999528,1.2900000000000333
4.9239999999999995,-2.990000000000068,-3.2799999999999434,0.37000000000002664
4.943999999999999,-1.5900000000000385,-4.269999999999973,0.01
4.9639999999999995,-1.0200000000000118,-4.779999999999974,0.27999999999998226
4.983999999999999,-1.0399999999999794,-4.770000000000026,0.41999999999999704
5.004,-1.99,-3.21,0.54
5.023999999999999,-3.483333333333302,-1.1300000000000474,0.8533333333333195
5.044,-4.626666666666645,0.29666666666665087,1.3999999999999881
5.063999999999999,-5.219999999999988,0.8099999999999853,1.6099999999999972
5.084,-5.13,0.97,1.21
5.103999999999999,-4.230000000000039,1.080000000000003,0.4000000000000296
5.124,-3.31,0.69,-0.5
5.143999999999999,-2.490000000000039,0.11000000000001184,-1.6699999999999673
5.163999999999999,-1.1100000000000623,1.039999999999926,-2.189999999999982
5.183999999999999,0.44999999999998225,2.87499999999998,-2.9616666666666545
5.203999999999999,2.7999999999999288,4.170000000000009,-4.289999999999958
5.223999999999999,4.543999999999982,2.562000000000031,-4.414000000000014
5.243999999999999,5.709999999999958,1.320000000000006,-3.0400000000000444
5.263999999999999,6.609999999999976,1.0700000000000267,-1.920000000000056
5.283999999999999,6.730000000000018,0.77,-0.5800000000001065
5.303999999999999,6.243333333333349,1.1499999999999824,-0.7699999999999763
5.323999999999999,5.660000000000021,1.8599999999999706,-1.4899999999999822
5.343999999999999,5.0500000000000265,2.349999999999997,-1.3100000000000207
5.363999999999999,4.0433333333333765,2.2266666666666706,-0.6033333333333768
5.3839999999999995,3.528333333333336,2.258333333333333,-0.001666666666670119
5.403999999999999,3.1150000000000135,1.9750000000000223,-0.04999999999997336
5.4239999999999995,2.7666666666666804,1.5766666666666806,-0.6433333333333195
5.443999999999999,2.2950000000000133,1.0549999999999957,-0.7400000000000266
5.4639999999999995,1.5500000000000311,1.1749999999999934,0.24499999999996225
5.483999999999999,0.3100000000000355,1.606666666666657,1.516666666666639
5.504,-1.1749999999999623,2.319999999999973,2.2049999999999934
5.523999999999999,-2.337999999999985,3.091999999999994,2.1680000000000064
5.544,-3.3359999999999808,3.2320000000000095,1.3700000000000105
5.563999999999999,-4.753333333333296,2.2233333333333785,0.9999999999999941
5.583999999999999,-5.943333333333284,0.2633333333334024,1.879999999999926
5.603999999999999,-6.143333333333349,0.7833333333333077,2.659999999999988
5.623999999999999,-5.330000000000036,0.6500000000000267,2.8000000000000145
5.643999999999999,-3.853333333333373,-0.09666666666663903,1.6700000000000237
5.663999999999999,-2.270000000000089,-1.4433333333332543,1.0366666666667013
5.683999999999999,-1.1266666666666982,-2.7966666666666096,0.23666666666669822
5.703999999999999,-0.24000000000005922,-5.0299999999998075,-1.1299999999998669
5.723999999999999,-0.5499999999999526,-5.8033333333333905,-3.1233333333333255
5.743999999999999,-2.169999999999941,-3.6233333333334765,-1.8866666666667604
5.763999999999999,-2.8166666666666567,-2.023333333333349,-0.433333333333361
5.783999999999999,-3.1366666666666587,-1.7000000000000117,0.14
5.803999999999999,-3.1666666666666687,-1.390000000000012,-0.1566666666666568
5.823999999999999,-2.970000000000013,-0.74500000000006,-0.4499999999999867
5.843999999999999,-2.91,-0.1433333333333432,-0.6399999999999941
5.863999999999999,-2.9350000000000067,0.09499999999998002,-0.9349999999999667
5.8839999999999995,-2.56500000000002,0.38499999999998447,-1.324999999999989
5.903999999999999,-1.400000000000062,1.3199999999999497,-1.5499999999999972
5.9239999999999995,1.0699999999999246,2.7649999999999846,-2.0049999999999755
5.943999999999999,3.1249999999999707,2.4300000000000157,-2.819999999999988
5.9639999999999995,5.216666666666651,-0.759999999999929,-3.6333333333333315
5.983999999999999,5.5449999999999955,-2.15,-4.004999999999969
6.003999999999999,5.410000000000022,-1.540000000000071,-3.8400000000000487
6.023999999999999,4.980000000000018,0.15999999999990677,-2.680000000000058
6.043999999999999,4.760000000000013,1.2999999999999468,-2.51999999999996
6.063999999999999,4.540000000000017,1.699999999999991,-3.21499999999996
6.083999999999999,4.145000000000047,1.66,-3.5650000000000066
6.103999999999999,3.64000000000002,1.6899999999999977,-3.2500000000000178
6.123999999999999,2.57000000000004,1.8224999999999834,-2.15250000000005
6.143999999999999,1.7500000000000089,2.339999999999982,-1.0450000000000244
6.163999999999999,1.5900000000000134,2.25500000000006,-0.4600000000000266
6.183999999999999,1.350000000000009,1.2450000000000334,-0.17000000000001333
6.203999999999999,1.22,0.2949999999999933,0.23499999999995339
6.223999999999999,0.6900000000000266,0.07500000000000666,1.0399999999999734
6.243999999999999,-0.3499999999999067,0.24499999999999333,2.204999999999873
6.263999999999999,-1.5199999999999645,0.15999999999998668,3.509999999999982
6.283999999999999,-3.2249999999998336,1.60999999999984,3.070000000000107
6.303999999999999,-4.729999999999969,3.2799999999999576,1.68000000000004
6.323999999999999,-5.354999999999993,2.9050000000001663,1.7149999999999
6.343999999999999,-5.0450000000000195,0.7100000000000533,2.8349999999999755
6.363999999999999,-4.47500000000002,-1.2624999999999433,3.4324999999999966
6.3839999999999995,-3.9450000000000154,-1.735000000000002,3.135000000000011
6.403999999999999,-3.4400000000000155,-1.5000000000000089,2.5800000000000223
6.423999999999999,-2.94000000000004,-1.4599999999999733,1.4550000000000867
6.443999999999999,-2.560000000000018,-2.104999999999951,0.7250000000000222
6.463999999999999,-2.3200000000000136,-2.8599999999999604,0.6149999999999933
6.483999999999999,-2.1866666666666688,-3.06,0.7599999999999941
6.503999999999999,-2.2749999999999932,-2.877500000000017,0.9424999999999966
6.523999999999999,-2.579999999999978,-2.3600000000000354,1.0199999999999911
6.543999999999999,-3.0699999999999603,-1.4850000000000865,1.09
6.563999999999999,-3.4679999999999955,-0.3480000000000171,1.0160000000000022
6.583999999999999,-3.726666666666651,0.8999999999999526,0.8166666666666745
6.603999999999999,-4.009999999999988,1.35,0.5500000000000237
6.623999999999999,-3.913333333333361,1.3533333333333255,-0.37333333333326624
6.643999999999999,-2.6700000000000474,2.4666666666666233,-1.9899999999999587
6.663999999999999,-0.44000000000014655,4.309999999999902,-3.09999999999996
6.683999999999999,2.399999999999947,4.863333333333359,-3.8099999999999765
6.703999999999999,3.745555555555535,3.166666666666703,-4.325555555555557
6.723999999999999,5.4399999999999515,2.1349999999999847,-3.6750000000000025
6.743999999999999,6.909999999999965,1.960000000000031,-3.430000000000018
6.763999999999999,7.7199999999999775,0.5400000000000755,-2.4000000000000488
6.783999999999999,7.433333333333361,0.23666666666662722,-2.5799999999999526
6.803999999999999,6.710000000000049,1.329999999999929,-3.3199999999999643
6.823999999999999,5.420000000000071,2.3899999999999646,-3.3366666666666864
6.843999999999999,4.100000000000032,3.109999999999982,-2.585000000000029
6.863999999999999,3.350000000000009,3.4266666666666654,-1.4966666666666875
6.883999999999999,3.249999999999991,3.360000000000003,-0.5900000000000296
6.903999999999999,3.6199999999999823,3.140000000000018,0.15999999999996892
6.923999999999999,3.6400000000000268,2.880000000000053,0.9799999999998845
6.943999999999999,3.1500000000000488,2.450000000000018,2.1399999999999335
6.963999999999999,1.7666666666667574,1.8666666666667102,2.956666666666639
6.983999999999999,-0.33999999999988895,0.6600000000000622,3.3499999999999956
7.003999999999999,-2.259999999999932,-0.11999999999998814,3.1300000000000208
7.023999999999999,-3.8149999999999578,0.5199999999999556,2.2300000000000266
7.043999999999999,-5.30999999999994,2.2299999999999534,1.6899999999999933
7.063999999999999,-6.579999999999973,2.2300000000000266,2.7949999999999493
7.083999999999999,-6.820000000000027,0.3800000000001199,4.449999999999934
7.103999999999999,-5.580000000000071,-1.199999999999941,4.790000000000036
7.123999999999999,-4.0700000000001335,-1.22500000000006,3.940000000000067
7.143999999999999,-2.6200000000000356,-0.7950000000000067,3.3550000000000155
7.163999999999999,-1.6266666666666982,-0.7366666666666627,2.410000000000059
7.183999999999999,-1.2950000000000021,-1.0399999999999867,1.245000000000029
7.203999999999999,-1.3833333333333253,-1.5999999999999763,0.5933333333333491
7.223999999999999,-1.3200000000000118,-2.4699999999999527,0.35666666666667657
7.243999999999999,-1.156666666666639,-3.309999999999988,-0.2899999999999645
7.263999999999999,-2.2566666666666477,-2.4233333333333436,-0.22000000000000594
7.283999999999999,-3.6799999999999202,-1.509903313490213e-13,0.7099999999999111
7.3039999999999985,-4.199999999999911,0.8199999999998934,1.1799999999999644
7.323999999999999,-4.39,0.8900000000000178,0.9100000000000711
7.3439999999999985,-4.39,0.8746153846153855,0.848461538461542
7.363999999999999,-4.11500000000006,0.5650000000000199,-0.0649999999999001
7.383999999999999,-0.820000000000293,1.8199999999998757,-2.8999999999998223
7.403999999999999,1.8399999999998624,2.539999999999991,-4.499999999999916
7.423999999999999,3.8399999999998222,1.5900000000001777,-5.749999999999902
7.443999999999999,5.0999999999999375,0.27000000000003554,-6.07
7.463999999999999,5.939999999999938,0.6199999999999289,-5.800000000000044
7.483999999999999,6.21,0.5466666666666983,-4.600000000000095
7.503999999999999,5.970000000000024,0.04666666666667456,-2.830000000000059
7.523999999999999,4.990000000000071,0.21999999999996447,-2.7299999999999645
7.543999999999999,3.5300000000000886,1.5099999999999068,-3.1799999999999957
7.563999999999999,1.9750000000000467,3.1599999999999513,-2.7800000000000225
7.583999999999999,0.680000000000037,4.249999999999978,-1.8133333333333728
7.603999999999999,-0.09999999999998668,4.270000000000013,-0.11000000000007548
7.623999999999999,0.08999999999997779,3.6800000000000446,0.7299999999999733
7.643999999999999,0.7379999999999745,2.8860000000000237,0.8120000000000043
7.663999999999999,1.6799999999999786,1.9400000000000248,0.8299999999999946
7.683999999999999,2.4659999999999918,1.162000000000015,1.437999999999985
7.703999999999999,2.16000000000003,0.5700000000000118,2.259999999999961
7.723999999999998,0.8600000000001776,0.5899999999999289,3.18999999999992
7.743999999999999,-1.606666666666494,1.0666666666666569,3.4533333333333434
7.7639999999999985,-4.019999999999751,1.2599999999999734,3.000000000000089
7.783999999999999,-5.719999999999915,1.4900000000000044,2.340000000000013
7.8039999999999985,-7.139999999999905,0.6500000000000947,3.1699999999998876
7.823999999999999,-7.360000000000018,-0.6599999999998934,4.949999999999894
7.8439999999999985,-6.430000000000077,-1.5199999999999882,5.620000000000029
7.863999999999999,-5.38000000000003,-0.890000000000032,4.660000000000036
7.883999999999999,-3.862000000000036,0.5039999999999766,2.320000000000064
7.903999999999999,-2.550000000000124,1.1,0.09000000000018651
7.923999999999999,-1.7300000000000355,0.48000000000006515,-1.189999999999929
7.943999999999999,-1.53,-0.5699999999999333,-1.7899999999999823
7.963999999999999,-1.6099999999999823,-1.7399999999998934,-2.0499999999999465
7.983999999999999,-2.2779999999999885,-1.7240000000000013,-1.7740000000000156
8.003999999999998,-2.709999999999982,-0.940000000000071,-0.8900000000000652
8.024,-2.88,-0.1,-0.09
8.043999999999999,-2.900000000000009,0.5999999999999289,0.5299999999999379
8.063999999999998,-2.870000000000009,0.9400000000000088,0.9099999999999734
8.083999999999998,-2.9000000000000057,0.41000000000004144,0.8000000000000356
8.103999999999997,-2.360000000000071,0.7649999999999245,-0.09999999999992895
8.123999999999999,-0.2000000000002013,2.5799999999998815,-1.4699999999999172
8.143999999999998,2.7949999999996358,3.594999999999956,-2.499999999999858
8.163999999999998,5.579999999999796,2.470000000000249,-3.7099999999998934
8.183999999999997,6.719999999999935,0.3600000000000947,-4.18
8.203999999999997,7.719999999999858,0.42999999999990524,-3.850000000000059
8.223999999999998,8.319999999999983,0.31000000000004735,-3.2200000000000712
8.243999999999998,8.005000000000056,-0.17,-2.335000000000011
8.263999999999998,6.813333333333491,0.25333333333327807,-2.7933333333332544
8.283999999999997,5.120000000000391,0.9399999999998223,-3.2999999999999643
8.303999999999998,3.5900000000001007,1.6399999999999584,-2.880000000000059
8.323999999999998,2.5520000000000556,1.9959999999999958,-1.988000000000051
8.343999999999998,1.500000000000065,1.6600000000000472,-1.2300000000000295
8.363999999999997,1.0445945945945965,1.241351351351354,-1.046756756756758
8.383999999999999,1.031081081081082,1.2197297297297311,-1.0386486486486493
8.403999999999998,1.0175675675675686,1.1981081081081097,-1.0305405405405412
8.423999999999998,1.0040540540540555,1.1764864864864886,-1.0224324324324332
8.443999999999997,1.8153846153845934,1.2584615384615407,-0.5692307692307846
8.463999999999999,2.5700000000001952,0.5499999999998757,3.109999999999556
8.483999999999998,-2.119999999999636,1.7999999999999468,3.7800000000001774
8.503999999999998,-5.069999999999601,2.6949999999999337,2.28500000000012
8.523999999999997,-7.079999999999822,2.4900000000000593,2.4199999999999466
8.543999999999999,-8.609999999999964,1.6500000000000472,2.8000000000000056
8.563999999999998,-7.933333333333444,0.9766666666666982,2.0466666666668165
8.583999999999998,-6.830000000000095,0.706666666666722,0.43333333333344387
8.603999999999997,-5.956666666666746,-0.2733333333332307,-0.14999999999995264
8.623999999999997,-4.9800000000001665,-1.1499999999998696,-0.8699999999998579
8.643999999999998,-4.260000000000177,-1.7599999999997868,-1.5399999999998224
8.663999999999998,-3.2300000000000946,-3.6999999999998283,-2.1899999999999644
8.683999999999997,-2.6674999999999836,-4.775000000000055,-1.8900000000000665
8.703999999999997,-2.7250000000000134,-3.4550000000002266,-0.7900000000001866
8.723999999999998,-2.6833333333333256,-2.4500000000000712,0.14333333333325438
8.743999999999998,-2.764999999999991,-1.8050000000000623,0.7649999999999556
8.763999999999998,-2.6866666666666985,-1.1466666666667455,1.0166666666666508
8.783999999999997,-2.2800000000000797,-0.08500000000019985,1.1150000000000135
8.803999999999998,-1.8300000000000296,0.8699999999999645,0.8900000000000297
8.823999999999998,-1.000000000000142,1.3399999999999288,0.07000000000010659
8.843999999999998,0.7099999999996536,1.85999999999992,-0.9949999999998534
8.863999999999997,2.859999999999654,2.42499999999996,-1.8099999999998668
8.883999999999999,4.57999999999992,1.9550000000000665,-2.7599999999999376
8.903999999999998,5.874999999999867,0.9250000000000977,-3.4949999999999557
8.923999999999998,6.809999999999893,0.63499999999996,-4.03499999999988
8.943999999999997,7.165000000000013,0.8500000000000533,-4.4900000000000535
8.963999999999999,6.910000000000036,0.33000000000004737,-3.6200000000001125
8.983999999999998,6.000000000000118,0.6833333333332308,-2.3666666666666747
9.003999999999998,4.663333333333467,1.873333333333207,-2.7099999999999524
9.023999999999997,3.396666666666793,2.863333333333278,-2.7900000000000476
9.043999999999997,2.39000000000016,3.3399999999999466,-2.0650000000002
9.063999999999998,1.5700000000001066,3.1500000000001243,-0.6500000000002842
9.083999999999998,1.4799999999999733,2.35500000000012,0.2899999999999201
9.103999999999997,1.7149999999999332,1.8800000000000532,0.48
9.123999999999997,2.244999999999907,1.83500000000004,0.6049999999999334
9.143999999999998,2.599999999999982,1.1600000000001245,1.23499999999992
9.163999999999998,2.550000000000053,-0.1549999999998668,1.8649999999999378
9.183999999999997,1.2550000000003063,-1.4499999999998134,2.2649999999999335
9.203999999999997,-0.8399999999996269,-1.4150000000001732,2.40500000000004
9.223999999999998,-2.954999999999778,-0.19000000000010658,2.1350000000000264
9.243999999999998,-4.76999999999984,-0.09999999999991119,1.9599999999999822
9.263999999999998,-5.954999999999826,-1.0099999999998934,2.864999999999747
9.283999999999997,-6.225000000000067,-1.33499999999988,4.0849999999998
9.303999999999998,-6.01,-1.6350000000000977,4.770000000000035
9.323999999999998,-6.040000000000018,-0.09500000000016876,3.435000000000204
9.343999999999998,-5.540000000000133,0.9999999999998934,1.5900000000003196
9.363999999999997,-4.5150000000001995,0.5750000000001998,-0.019999999999840125
9.383999999999999,-3.3100000000000622,-0.6899999999999289,-0.45
9.403999999999998,-2.42750000000005,-1.9674999999999168,-0.2800000000000222
9.423999999999998,-1.9550000000000398,-2.679999999999973,0.009999999999973355
9.443999999999997,-1.864999999999987,-2.61500000000004,0.16499999999998669
9.463999999999997,-1.9871428571428484,-2.3285714285714545,0.3442857142856969
9.483999999999998,-2.0933333333333373,-1.5566666666666984,0.6499999999999881
9.503999999999998,-2.06,-1.016666666666722,0.7666666666666746
9.523999999999997,-2.11,-0.49000000000012434,0.4800000000001243
9.543999999999997,-1.9450000000000665,-0.07500000000006662,-0.4199999999998401
9.563999999999998,-1.2100000000001243,0.7249999999998491,-1.3949999999999023
9.583999999999998,0.2219999999998636,2.1899999999998863,-2.0179999999999656
9.603999999999997,2.4699999999996534,3.110000000000027,-2.9649999999997734
9.623999999999997,4.26999999999976,2.1750000000002796,-4.5849999999997735
9.643999999999998,5.309999999999893,0.970000000000071,-5.080000000000009
9.663999999999998,5.956666666666643,1.4233333333332683,-4.763333333333357
9.683999999999997,6.279999999999973,1.5200000000000533,-3.6750000000002796
9.703999999999997,6.285000000000039,1.1400000000000534,-2.170000000000133
9.723999999999998,5.6750000000000975,1.249999999999929,-2.2749999999999027
9.743999999999998,4.555000000000151,2.2999999999998755,-3.0599999999999645
9.763999999999998,3.0900000000002397,3.0949999999999065,-2.6550000000001734
9.783999999999997,1.950000000000059,3.586666666666651,-1.5233333333333965
9.803999999999998,1.0350000000000446,3.650000000000018,-0.2600000000001066
9.823999999999998,0.9799999999999645,3.20500000000008,0.40999999999994674
9.843999999999998,1.4399999999999378,2.4000000000000976,0.8099999999999645
9.863999999999997,1.8949999999999867,0.9950000000002532,1.2399999999998934
9.883999999999997,1.7866666666667161,-0.276666666666568,2.236666666666538
9.903999999999998,0.6000000000001865,-0.77,3.169999999999911
9.923999999999998,-1.4199999999997424,0.5599999999997602,3.7299999999999733
9.943999999999997,-3.9699999999994673,2.649999999999627,3.37000000000016
9.963999999999997,-5.489999999999805,3.2200000000000535,2.6000000000001244
9.983999999999998,-5.490000000000045,1.9300000000002486,2.64999999999992
10.003999999999998,-4.9200000000001065,0.1600000000001421,3.5899999999998933
10.023999999999997,-3.7750000000002264,-1.3149999999997468,4.18
10.043999999999997,-2.6000000000001187,-1.8733333333334024,3.1733333333335505
10.063999999999998,-1.7400000000000355,-0.9033333333333728,1.560000000000071
10.083999999999998,-1.3550000000000133,-0.27500000000006664,0.22500000000019982
10.103999999999997,-1.429999999999991,-0.46999999999992004,-0.5299999999999645
10.123999999999997,-1.2766666666667161,-1.5033333333332248,-0.3633333333333728
10.143999999999998,-0.9533333333333491,-2.3233333333332897,-0.11000000000001185
10.163999999999998,-0.9399999999999866,-2.6200000000000045,-0.14999999999999555
10.183999999999997,-1.3099999999999645,-2.4100000000000237,-0.20000000000001183
10.203999999999997,-2.059999999999941,-1.4100000000001185,0.2266666666666272
10.223999999999998,-2.3474999999999833,-0.7050000000000555,0.39249999999999446
10.243999999999998,-2.496666666666661,0.12333333333328597,0.4066666666666785
10.263999999999998,-2.4466666666666863,0.633333333333284,0.006666666666745612
10.283999999999997,-2.130000000000059,0.8466666666666568,-0.8666666666665384
10.303999999999997,-1.2000000000002664,0.93,-1.8699999999998225
10.323999999999998,0.426666666666568,1.0066666666666628,-2.3499999999999766
10.343999999999998,2.429999999999876,1.026000000000005,-3.3299999999999006
10.363999999999997,4.059999999999852,0.6433333333334024,-5.003333333333195
10.383999999999997,4.953333333333255,-0.20999999999991117,-4.990000000000059
10.403999999999998,5.574999999999951,-0.21000000000001778,-4.715000000000031
10.423999999999998,6.219999999999974,0.3449999999999267,-3.720000000000093
10.443999999999997,6.2800000000000535,1.1799999999998578,-3.05
10.463999999999997,5.590000000000213,1.6299999999998933,-3.7299999999998046
10.483999999999998,4.360000000000057,2.1859999999999746,-4.102000000000006
10.503999999999998,3.0040000000000684,2.941999999999949,-3.568000000000051
10.523999999999997,1.7000000000001154,3.5200000000000267,-2.130000000000133
10.543999999999997,0.6633333333334617,3.0333333333334025,-1.2866666666667457
10.563999999999998,0.3229629629629713,2.843703703703709,-1.1088888888888935
10.583999999999998,-0.06999999999993486,2.6200000000000356,-1.010000000000006
10.603999999999997,-0.3200000000000415,2.1700000000000297,0.4999999999998934
10.623999999999997,0.2799999999999408,1.2900000000001777,2.1699999999997748
10.643999999999998,0.34000000000003555,-0.38999999999983126,3.449999999999876
10.663999999999998,-0.43999999999987566,-1.2500000000000178,3.910000000000027
10.683999999999997,-1.9099999999998045,-0.260000000000151,3.2600000000000797
10.703999999999997,-3.709999999999609,0.7399999999998756,3.3299999999998047
10.723999999999997,-4.989999999999823,0.4600000000001954,4.93999999999961
10.743999999999998,-5.300000000000044,-0.12,5.740000000000027
10.763999999999998,-4.530000000000142,-0.4999999999998579,4.660000000000373
10.783999999999997,-4.429999999999964,-0.5800000000000888,2.800000000000355
10.803999999999997,-4.5699999999999825,-0.2900000000000355,1.79000000000016
10.823999999999998,-4.590000000000009,-0.17,1.05000000000008
10.843999999999998,-4.450000000000018,-0.529999999999929,0.5500000000000267
10.863999999999997,-4.190000000000029,-1.169999999999936,0.4799999999999929
10.883999999999997,-3.9100000000000357,-1.5499999999999823,0.5299999999999823
10.903999999999998,-3.832500000000003,-1.5425000000000033,0.5874999999999966
10.923999999999998,-3.866666666666657,-1.3000000000000296,0.6466666666666568
10.943999999999997,-3.850000000000012,-0.7400000000001185,0.6200000000000236
10.963999999999997,-3.5700000000000887,0.03999999999984012,0.4800000000000355
10.983999999999998,-3.110000000000062,0.5299999999999645,0.25000000000002665
11.003999999999998,-2.6100000000000443,0.7699999999999734,-0.029999999999964472
11.023999999999997,-2.1800000000000357,0.9099999999999882,-0.7699999999999231
11.043999999999997,-1.2800000000002842,1.2499999999998757,-1.9699999999997335
11.063999999999998,0.20999999999990765,1.879999999999968,-3.06999999999995
11.083999999999998,2.999999999999716,2.1900000000000266,-3.909999999999938
11.103999999999997,5.239999999999805,1.0500000000001866,-4.659999999999911
11.123999999999997,6.471999999999917,-0.3779999999999233,-4.988000000000019
11.143999999999997,7.419999999999858,-0.7199999999999644,-4.340000000000231
11.163999999999998,7.390000000000062,-0.95,-3.030000000000124
11.183999999999997,6.435000000000226,-0.41000000000018655,-2.8199999999999203
11.203999999999997,4.890000000000113,0.8099999999998863,-3.4999999999999716
11.223999999999997,3.3200000000003196,2.6299999999996446,-3.530000000000071
11.243999999999998,2.1200000000000934,3.574999999999953,-2.95500000000006
11.263999999999998,1.2685714285714649,3.7285714285714397,-2.285714285714318
11.283999999999997,0.45000000000012436,3.3000000000000176,-1.5700000000001244
11.303999999999997,0.2799999999999763,3.110000000000012,-0.7300000000001421
11.323999999999998,0.7299999999999378,2.8100000000000978,0.26999999999989344
11.343999999999998,1.359999999999938,1.4500000000001954,1.1099999999999202
11.363999999999997,1.7199999999999929,0.21000000000012078,1.7299999999999431
11.383999999999997,1.020000000000154,-0.9099999999999764,2.319999999999917
11.403999999999998,-0.3599999999998815,-0.5400000000000414,2.8099999999999703
11.423999999999998,-1.8399999999999053,0.27999999999994674,2.7700000000000236
11.443999999999997,-2.7166666666665797,1.5766666666666036,2.5133333333333017
11.463999999999997,-3.4199999999999524,1.443333333333444,3.606666666666509
11.483999999999998,-3.5100000000000238,0.22333333333346755,4.703333333333302
11.503999999999998,-3.2100000000000177,-0.8199999999999763,4.810000000000024
11.523999999999997,-3.184000000000006,-0.32400000000006257,3.9240000000000905
11.543999999999997,-2.9100000000000312,0.42249999999997667,2.4850000000001398
11.563999999999997,-2.7600000000000233,0.12000000000007105,1.0900000000001895
11.583999999999998,-2.59,-0.5799999999998402,0.3150000000000666
11.603999999999997,-2.699999999999988,-1.799999999999923,0.14999999999999408
11.623999999999997,-2.8299999999999765,-2.4499999999999527,0.39999999999995267
11.643999999999997,-2.9099999999999646,-2.225000000000124,0.6049999999999822
11.663999999999998,-3.0699999999999954,-1.6600000000000141,0.5633333333333365
11.683999999999997,-3.2399999999999647,-0.9700000000001421,0.4100000000000355
11.703999999999997,-3.250000000000012,-0.17000000000007107,0.2000000000000237
11.723999999999997,-3.0500000000000353,0.3599999999999171,-0.03999999999995263
11.743999999999998,-2.822000000000013,0.6539999999999829,-0.5179999999999659
11.763999999999998,-2.320000000000053,1.249999999999929,-1.2999999999999408
11.783999999999997,-1.1633333333334912,2.33666666666658,-2.1633333333332545
11.803999999999997,0.7699999999996803,2.7766666666666784,-2.8933333333332505
11.823999999999998,2.9399999999998103,2.060000000000142,-3.3399999999999763
11.843999999999998,4.509999999999899,0.350000000000148,-3.0900000000000474
11.863999999999997,5.9333333333331835,-0.6566666666667219,-3.1999999999999287
11.883999999999997,7.459999999999905,-0.10000000000002368,-3.5133333333333727
11.903999999999998,7.417500000000036,-0.5399999999999734,-2.937500000000023
11.923999999999998,5.925000000000306,0.03999999999968025,-3.199999999999867
11.943999999999997,3.9775000000001786,2.664999999999736,-3.807499999999992
11.963999999999997,2.530000000000154,5.129999999999798,-3.1900000000001776
11.983999999999996,1.867142857142879,5.615714285714272,-1.7442857142858186
12.003999999999998,1.923333333333278,5.110000000000095,0.003333333333230701
12.023999999999997,2.7099999999999347,3.9700000000001068,0.5699999999999881
12.043999999999997,3.5374999999999535,2.4625000000001,0.4000000000000266
12.063999999999997,3.74,1.4166666666667218,-0.006666666666639035
12.083999999999998,3.426666666666722,1.4999999999999762,-0.08666666666667457
12.103999999999997,2.4700000000002396,1.9499999999999467,0.6449999999998268
12.123999999999997,0.5900000000001492,1.8660000000000347,1.6319999999999453
12.143999999999997,-1.879999999999627,0.7233333333335682,2.3266666666665974
12.163999999999998,-3.449999999999716,-0.1499999999998934,2.4200000000000355
12.183999999999997,-4.7633333333331835,-0.05333333333332544,2.13
12.203999999999997,-5.639999999999947,-0.6249999999998268,2.5599999999998935
12.223999999999997,-5.393333333333485,-1.2599999999999172,3.0300000000000415
12.243999999999998,-4.803333333333373,-1.8233333333333017,2.186666666666769
12.263999999999998,-4.303333333333397,-1.9833333333333254,1.71
12.283999999999997,-3.525000000000147,-1.8600000000000798,1.55000000000008
12.303999999999997,-2.8066666666667497,-1.706666666666643,0.980000000000071
12.323999999999998,-2.599999999999991,-2.0299999999999643,0.76
12.343999999999998,-2.846666666666627,-2.356666666666651,0.9633333333333017
12.363999999999997,-3.22499999999996,-2.2900000000000267,1.2999999999999468
12.383999999999997,-3.474285714285697,-2.005714285714303,1.4385714285714242
12.403999999999996,-3.8999999999999644,-1.30000000000008,1.360000000000009
12.423999999999998,-4.005000000000013,-0.7250000000000666,1.2600000000000267
12.443999999999997,-3.7200000000000797,-0.39500000000004,0.9750000000000666
12.463999999999997,-3.25000000000008,-0.1750000000000133,0.4000000000001066
12.483999999999996,-2.8850000000000886,-0.3449999999999467,-0.16999999999985788
12.503999999999998,-2.46000000000008,-0.04000000000015987,-1.1149999999997735
12.523999999999997,-1.7650000000001467,1.4249999999997203,-2.6399999999997337
12.543999999999997,-0.5966666666668167,2.56666666666658,-3.953333333333231
12.563999999999997,1.1799999999996094,3.244999999999947,-4.694999999999947
12.583999999999998,2.849999999999834,3.2000000000000237,-4.726666666666675
12.603999999999997,4.70499999999964,3.5999999999997336,-4.550000000000054
12.623999999999997,6.553333333333302,5.003333333333633,-3.7466666666668402
12.643999999999997,6.304999999999911,1.2100000000001776,-1.9800000000002487
12.663999999999998,6.3900000000000885,1.8449999999999023,-1.9499999999998756
12.683999999999997,5.035000000000227,2.8899999999997066,-3.3349999999998
12.703999999999997,3.8500000000002133,5.059999999999707,-3.78500000000004
12.723999999999997,2.7300000000000977,5.8699999999999735,-2.8400000000001864
12.743999999999998,2.20428571428572,5.370000000000025,-1.1442857142857579
12.763999999999998,2.4249999999999536,3.7800000000000935,0.3949999999999534
12.783999999999997,3.28999999999984,2.930000000000133,0.4950000000000133
12.803999999999997,4.126666666666568,2.2233333333333727,0.3566666666666568
12.823999999999996,4.233333333333403,1.610000000000148,0.4799999999999704
12.843999999999998,2.970000000000237,0.3633333333335208,1.3133333333331951
12.863999999999997,0.5933333333336689,-0.8733333333331952,2.506666666666538
12.883999999999997,-2.1133333333330175,-1.383333333333343,3.02
12.903999999999996,-4.433333333333076,-0.8466666666667753,2.5566666666667452
12.923999999999998,-6.0966666666665095,-0.1033333333333728,2.1999999999999704
12.943999999999997,-6.956666666666628,-0.5933333333332308,3.133333333333207
12.963999999999997,-6.70500000000012,-1.2649999999999335,4.09999999999992
12.983999999999996,-5.686666666666805,-1.4900000000000295,3.620000000000207
13.003999999999998,-4.720000000000187,-0.7850000000001465,1.9700000000001865
13.023999999999997,-3.62000000000016,-0.5799999999999201,1.1900000000001065
13.043999999999997,-2.6100000000000945,-0.999999999999929,0.7900000000000237
13.063999999999997,-1.8566666666667633,-1.8299999999998342,0.7333333333333195
13.083999999999998,-1.5100000000000267,-2.509999999999947,0.8699999999999734
13.103999999999997,-1.48,-2.604285714285717,1.0214285714285656
13.123999999999997,-1.5999999999999734,-2.4850000000000136,1.2049999999999867
13.143999999999997,-1.8249999999999469,-2.2550000000000887,1.1050000000000533
13.163999999999998,-2.1199999999999646,-1.60000000000008,0.8400000000000355
13.183999999999997,-2.496666666666627,-0.4500000000001184,0.5833333333333728
13.203999999999997,-2.6879999999999873,0.4699999999999361,0.11800000000005115
13.223999999999997,-2.7433333333333434,0.95,-0.5899999999999112
13.243999999999998,-2.4700000000000624,0.55000000000008,-1.28999999999992
13.263999999999998,-1.5200000000002132,0.04499999999996003,-1.7099999999999733
13.283999999999997,0.01999999999955593,1.4899999999994848,-2.0099999999998577
13.303999999999997,2.3399999999995025,3.389999999999822,-3.3649999999996627
13.323999999999996,4.099999999999627,2.620000000000462,-4.439999999999912
13.343999999999998,5.759999999999787,0.9950000000000666,-4.055000000000041
13.363999999999997,5.809999999999911,0.899999999999698,-3.600000000000071
13.383999999999997,4.68500000000004,-1.0974999999994737,-2.310000000000293
13.403999999999996,6.3049999999999224,0.18999999999978243,-1.0250000000000155
13.423999999999998,5.145000000000093,0.45499999999948043,-2.70999999999976
13.443999999999997,4.280000000000249,2.859999999999538,-3.5099999999999287
13.463999999999997,3.2314285714286366,4.349999999999924,-3.0085714285715155
13.483999999999996,2.2933333333334023,4.963333333333343,-1.1733333333335505
13.503999999999998,2.173333333333314,4.6466666666667455,0.2133333333332248
13.523999999999997,2.6833333333332248,3.9066666666667453,0.6199999999999704
13.543999999999997,3.566666666666568,3.1200000000001187,0.5766666666666863
13.563999999999997,4.024999999999983,2.36500000000016,0.4749999999999822
13.583999999999998,3.5900000000000976,1.59000000000008,0.7999999999999468
13.603999999999997,2.14333333333358,0.8433333333334321,1.3633333333332542
13.623999999999997,-0.14799999999979535,0.2940000000000256,1.9639999999999616
13.643999999999997,-2.7066666666663903,0.2966666666666568,2.1666666666666865
13.663999999999998,-4.504999999999831,0.5799999999999468,1.7600000000000355
13.683999999999997,-5.859999999999903,0.5000000000000355,2.47999999999984
13.703999999999997,-6.160000000000059,-0.3433333333332248,3.7999999999998817
13.723999999999997,-4.980000000000177,-1.5933333333331359,4.040000000000059
13.743999999999996,-3.9700000000001423,-2.2100000000000177,2.6900000000003375
13.763999999999998,-3.6566666666666863,-1.886666666666716,1.7500000000000888
13.783999999999997,-3.647407407407406,-1.7025925925925942,1.3940740740740802
13.803999999999997,-3.6799999999999766,-1.6800000000000117,1.2800000000000828
13.823999999999996,-4.6199999999998935,-1.9399999999999467,0.6900000000000355
13.843999999999998,-4.929999999999982,-1.7900000000000296,0.4700000000000237
13.863999999999997,-4.960000000000009,-1.3300000000000622,0.16000000000003553
13.883999999999997,-4.660000000000178,-0.97,-0.08999999999996447
13.903999999999996,-4.130000000000142,-1.1299999999999644,-0.030000000000035526
13.923999999999998,-3.4000000000000887,-1.0900000000000178,0.09999999999998224
13.943999999999997,-2.5400000000001186,-0.8966666666666864,0.23666666666665678
13.963999999999997,-1.8500000000000711,-1.1499999999998933,0.18000000000007105
13.983999999999996,-1.9099999999999466,-1.89999999999984,-0.3799999999998579
14.003999999999998,-2.0100000000000264,-1.3600000000002044,-1.1699999999999111
14.023999999999997,-1.2800000000001066,1.4299999999997335,-2.069999999999907
14.043999999999997,0.459999999999627,3.4099999999998403,-3.2299999999997513
14.063999999999997,2.0039999999998654,3.040000000000096,-3.77
14.083999999999998,3.8833333333331064,1.590000000000148,-3.370000000000059
14.103999999999997,5.66999999999984,1.2699999999999911,-3.3299999999999823
14.123999999999997,6.503999999999962,0.7400000000000959,-2.7400000000000957
14.143999999999997,6.690000000000054,-0.1799999999999467,-2.149999999999929
14.163999999999996,5.970000000000231,0.4299999999997158,-2.9299999999998225
14.183999999999997,4.6800000000001685,1.9499999999998312,-3.200000000000027
14.203999999999997,3.160000000000302,3.2699999999997513,-2.5300000000002307
14.223999999999997,2.1300000000001775,4.009999999999911,-1.5500000000001777
14.243999999999996,1.7800000000000118,4.020000000000047,-1.0100000000000593
14.263999999999998,2.0499999999999376,3.37000000000008,-0.5300000000000622
14.283999999999997,2.849999999999858,2.56000000000013,-5.921652057594429e-14
14.303999999999997,4.299999999999763,2.1500000000000474,-0.029999999999928938
14.323999999999996,5.6933333333332365,1.6600000000001658,-0.5899999999999586
14.343999999999998,5.570000000000159,0.5400000000001333,-0.43500000000009326
14.363999999999997,3.1300000000004617,-0.3599999999999171,0.7099999999997749
14.383999999999997,-0.2699999999992362,-0.18000000000010657,2.2499999999997335
14.403999999999996,-2.8799999999997725,0.6599999999998934,2.5500000000000282
14.423999999999998,-4.684444444444388,1.7166666666666273,1.7177777777778205
14.443999999999997,-6.239999999999811,1.2200000000002487,1.6499999999997985
14.463999999999997,-6.720000000000059,-0.6999999999997513,3.8399999999996566
14.483999999999996,-5.45000000000026,-1.51,5.05
14.503999999999998,-3.570000000000136,-1.3300000000000296,3.820000000000136
14.523999999999997,-2.110000000000124,-0.9700000000000089,2.070000000000151
14.543999999999997,-1.9499999999999882,-0.8700000000000829,1.2300000000000828
14.563999999999997,-2.3599999999999053,-0.3000000000000592,0.8500000000000355
14.583999999999996,-2.7499999999999556,-0.0549999999999889,0.7100000000000222
14.603999999999997,-2.959999999999988,-0.5299999999999467,0.4400000000000237
14.623999999999997,-3.2157142857142675,-1.2242857142856816,0.16857142857143945
14.643999999999997,-3.8899999999998403,-2.0499999999998755,-0.2299999999999112
14.663999999999996,-4.739999999999894,-1.4100000000000947,-0.35999999999994076
14.683999999999997,-5.189999999999983,-0.010000000000100678,-0.14
14.703999999999997,-5.290000000000018,0.6899999999999111,-0.45999999999989344
14.723999999999997,-5.110000000000036,0.8500000000000177,-1.0399999999998757
14.743999999999996,-4.606666666666847,0.44000000000004147,-1.5933333333332782
14.763999999999998,-2.8200000000001895,0.5899999999999586,-1.640000000000006
14.783999999999997,-0.1285714285715917,1.3085714285713888,-1.748571428571414
14.803999999999997,3.689999999999597,1.2400000000001539,-2.589999999999834
14.823999999999996,5.629999999999787,-0.08999999999984606,-3.2199999999999647
14.843999999999998,6.289999999999991,-0.5600000000000267,-3.4799999999999556
14.863999999999997,5.862000000000045,0.689999999999858,-3.7180000000000115
14.883999999999997,5.050000000000106,2.09999999999987,-2.4000000000003077
14.903999999999996,4.340000000000195,2.270000000000018,-0.9000000000001421
14.923999999999998,3.370000000000071,2.8699999999999055,-1.1899999999999584
14.943999999999997,2.360000000000154,4.459999999999787,-1.2700000000000473
14.963999999999997,1.7200000000000473,5.399999999999929,-0.6100000000001421
14.983999999999996,1.819999999999929,5.200000000000131,0.6199999999997987
15.003999999999996,2.5699999999998697,3.740000000000237,1.629999999999917
15.023999999999997,3.81999999999984,2.2600000000001508,1.6300000000000443
15.043999999999997,5.029999999999858,1.1000000000001422,0.9900000000000947
15.063999999999997,5.484000000000024,0.4660000000000547,0.5100000000000391
15.083999999999996,4.7466666666668464,-0.026666666666721933,0.3866666666665976
15.103999999999997,3.0133333333335623,0.5466666666666035,0.7699999999999526
15.123999999999997,0.7400000000003553,1.0799999999999528,1.2499999999999527
15.143999999999997,-1.789999999999627,0.9400000000000415,1.2600000000000415
15.163999999999996,-3.5866666666664315,0.8000000000000415,0.8133333333334438
15.183999999999997,-4.487999999999959,0.600000000000016,0.3560000000000128
15.203999999999997,-5.743333333333231,0.22666666666674562,0.8933333333332307
15.223999999999997,-6.113333333333361,-0.3399999999999171,2.1799999999997928
15.243999999999996,-5.736666666666763,-0.9299999999999171,2.92
15.263999999999998,-4.723333333333468,-1.0566666666666509,2.7766666666666744
15.283999999999997,-3.256666666666793,-1.16,2.4700000000000477
15.303999999999997,-2.3066666666667497,-1.13,2.030000000000071
15.323999999999996,-1.9066666666666805,-1.05,1.636666666666722
15.343999999999998,-1.9766666666666508,-1.2799999999999527,1.576666666666651
15.363999999999997,-1.9833333333333254,-2.58666666666658,1.5200000000000238
15.383999999999997,-2.36249999999994,-3.3249999999999864,0.8975000000000333
15.403999999999996,-3.349999999999796,-2.3000000000004173,0.4100000000000355
15.423999999999996,-4.7119999999999065,-0.372000000000162,0.4540000000000256
15.443999999999997,-5.257499999999983,1.0399999999999112,-0.17999999999993338
15.463999999999997,-5.156666666666722,1.8133333333333255,-1.2066666666665797
15.483999999999996,-4.2766666666668876,1.3166666666668463,-1.8866666666665977
15.503999999999996,-2.7200000000003315,0.13666666666684626,-1.9700000000000415
15.523999999999997,-0.5040000000001641,-0.31400000000001493,-1.8739999999999901
15.543999999999997,2.0479999999998557,0.10399999999996518,-2.6039999999999153
15.563999999999997,3.8599999999998342,0.5166666666666391,-3.8566666666665563
15.583999999999996,4.346666666666651,0.5933333333333491,-3.6383333333334202
15.603999999999997,4.295000000000013,0.8699999999999467,-2.4350000000001732
15.623999999999997,4.263333333333337,0.8400000000000118,-1.1433333333334201
15.643999999999997,3.9950000000000534,1.0349999999998758,0.4099999999998224
15.663999999999996,3.635000000000053,1.6749999999998046,0.720000000000071
15.683999999999997,3.465000000000013,2.684999999999827,0.030000000000133226
15.703999999999997,3.3766666666666865,3.4266666666666272,-0.35
15.723999999999997,3.1550000000000535,3.600000000000035,0.11999999999982237
15.743999999999996,3.0499999999999288,3.475000000000018,1.08499999999984
15.763999999999998,3.944999999999774,3.130000000000133,1.5649999999999602
15.783999999999997,5.369999999999834,1.6833333333334675,1.4433333333333727
15.803999999999997,6.76499999999984,0.3300000000002132,0.7900000000002132
15.823999999999996,6.79200000000007,-0.30799999999996874,-0.08599999999993747
15.843999999999996,5.100000000001172,-0.6899999999997868,-0.3300000000001066
15.863999999999997,1.6366666666670062,-0.8100000000000473,0.5499999999999052
15.883999999999997,-1.8299999999994938,-0.2450000000001199,1.0300000000000267
15.903999999999996,-4.14999999999971,0.37999999999995854,0.6833333333334024
15.923999999999996,-5.694999999999623,-0.1699999999996003,0.7049999999998002
15.943999999999997,-6.339999999999976,-0.9399999999999763,1.5499999999999172
15.963999999999997,-6.21000000000008,-0.7700000000000267,2.609999999999867
15.983999999999996,-5.430000000000266,-0.35000000000010656,3.139999999999947
16.003999999999998,-3.2950000000002753,-0.3549999999999023,3.21
16.023999999999997,-0.6550000000002931,-1.5099999999998757,3.2650000000000263
16.043999999999997,1.414999999999698,-2.5049999999998755,2.5950000000002307
16.064,1.8000000000000238,-2.769999999999988,1.7600000000000238
16.084,0.905,-4.0600000000000005,1.385
16.104,-1.45,-2.21,1.89
16.124,-3.9999999999998224,0.26499999999977797,2.08
16.144,-5.129999999999929,1.0149999999999735,1.3650000000001332
16.163999999999998,-5.589999999999911,1.12,0.1500000000002842
16.183999999999997,-5.959999999999929,1.4199999999999111,-0.9599999999997868
16.203999999999997,-6.254999999999973,1.8,-1.744999999999938
16.224,-6.25,1.0550000000000002,-1.955
16.244,-5.43,0.525,-1.725
16.264,-3.65500000000024,1.484999999999778,-1.9099999999999466
16.284,-1.3,3.35,-2.73
16.304,1.6214285714285424,3.861428571428578,-4.142857142857131
16.323999999999998,4.559999999999787,1.6650000000001866,-4.824999999999973
16.343999999999998,5.91499999999992,1.1899999999999644,-5.035000000000009
16.363999999999997,6.29,1.8999999999999466,-4.250000000000142
16.383999999999997,5.886666666666794,2.243333333333254,-2.87666666666684
16.404,5.21,2.46,-2.86
16.424,4.47,2.38,-3.12
16.444,3.7700000000000236,2.566666666666639,-2.7233333333333727
16.464,3.494000000000006,2.5780000000000114,-1.7200000000000426
16.483999999999998,3.42,2.160000000000071,-0.750000000000071
16.503999999999998,3.3100000000000174,1.350000000000089,-0.3300000000000178
16.523999999999997,2.9950000000000623,0.2850000000001332,-0.24500000000000888
16.543999999999997,2.506666666666746,-0.3733333333333491,0.019999999999905257
16.564,2.0400000000000356,-0.24333333333334914,0.7899999999999526
16.584,1.2200000000000473,-0.0699999999999763,1.8699999999999408
16.604,0.03666666666673378,-0.8333333333333254,2.8733333333333015
16.624,-1.329999999999858,0.07499999999977795,3.22
16.644,-2.276666666666639,1.9833333333332899,3.076666666666674
16.663999999999998,-2.5166666666666626,1.313333333333432,3.0333333333333137
16.683999999999997,-2.54,-0.30666666666662723,3.519999999999988
16.703999999999997,-2.33,-1.027999999999983,3.8339999999999064
16.723999999999997,-2.386666666666603,-1.14,4.423333333333302
16.744,-2.54,-0.83,3.8499999999999996
16.764,-2.150000000000012,-0.8866666666666627,2.2133333333334204
16.784,-2.31799999999999,-1.0439999999999987,1.05200000000001
16.804,-3.01,-0.99,0.92
16.823999999999998,-3.8099999999998757,-0.9300000000000178,1.1299999999999821
16.843999999999998,-4.169999999999929,-0.7900000000000533,1.0800000000000356
16.863999999999997,-4.194000000000017,-0.44400000000001705,0.8180000000000128
16.883999999999997,-3.6400000000001422,-0.35333333333330175,0.4433333333334438
16.904,-2.8060000000000156,-0.6499999999999929,-0.18199999999998864
16.924,-1.89,-1.39,-0.71
16.944,-1.3666666666666865,-2.3433333333332897,-0.7233333333333373
16.964,-1.3099999999999883,-2.8633333333333257,-0.6066666666666746
16.983999999999998,-1.7399999999998934,-2.350000000000231,-0.759999999999929
17.003999999999998,-2.169999999999929,-0.8400000000004085,-1.5299999999997513
17.023999999999997,-2.1514285714285832,1.2328571428570443,-2.8271428571427935
17.043999999999997,-1.1500000000002841,3.8499999999996626,-4.88999999999968
17.064,0.3966666666665798,3.9733333333333967,-5.073333333333385
17.084,2.21,1.85,-3.84
17.104,2.851232273838631,1.4497652811735942,-3.770293398533007
17.124,2.853286063569682,1.4493740831295843,-3.77078239608802
17.144,2.8553398533007335,1.4489828850855746,-3.771271393643032
17.163999999999998,2.857393643031785,1.4485916870415647,-3.771760391198044
17.183999999999997,2.859447432762836,1.448200488997555,-3.7722493887530564
17.203999999999997,2.8615012224938874,1.4478092909535452,-3.7727383863080686
17.223999999999997,2.8635550122249387,1.4474180929095355,-3.7732273838630808
17.244,2.8656088019559904,1.4470268948655256,-3.773716381418093
17.264,2.8676625916870417,1.446635696821516,-3.774205378973105
17.284,2.869716381418093,1.446244498777506,-3.7746943765281173
17.304,2.8717701711491443,1.4458533007334964,-3.7751833740831295
17.323999999999998,2.8738239608801956,1.4454621026894865,-3.7756723716381417
17.343999999999998,2.875877750611247,1.4450709046454768,-3.776161369193154
17.363999999999997,2.8779315403422983,1.444679706601467,-3.776650366748166
17.383999999999997,2.8799853300733496,1.4442885085574573,-3.7771393643031783
17.404,2.8820391198044013,1.4438973105134474,-3.7776283618581905
17.424,2.8840929095354526,1.4435061124694375,-3.778117359413203
17.444,2.886146699266504,1.4431149144254278,-3.7786063569682153
17.464,2.888200488997555,1.442723716381418,-3.7790953545232275
17.483999999999998,2.8902542787286065,1.4423325183374083,-3.7795843520782397
17.503999999999998,2.892308068459658,1.4419413202933986,-3.780073349633252
17.523999999999997,2.894361858190709,1.4415501222493887,-3.780562347188264
17.543999999999997,2.8964156479217604,1.441158924205379,-3.7810513447432763
17.563999999999997,2.8984694376528117,1.4407677261613692,-3.7815403422982885
17.584,2.900523227383863,1.4403765281173593,-3.7820293398533007
17.604,2.9025770171149143,1.4399853300733496,-3.782518337408313
17.624,2.9046308068459656,1.4395941320293397,-3.783007334963325
17.644,2.906684596577017,1.43920293398533,-3.7834963325183373
17.663999999999998,2.9087383863080682,1.4388117359413202,-3.7839853300733495
17.683999999999997,2.9107921760391195,1.4384205378973105,-3.7844743276283617
17.703999999999997,2.912845965770171,1.4380293398533006,-3.784963325183374
17.723999999999997,2.914899755501222,1.437638141809291,-3.785452322738386
17.744,2.916953545232274,1.437246943765281,-3.7859413202933987
17.764,2.919007334963325,1.4368557457212714,-3.786430317848411
17.784,2.9210611246943765,1.4364645476772615,-3.786919315403423
17.804,2.923114914425428,1.4360733496332518,-3.7874083129584353
17.823999999999998,2.925168704156479,1.435682151589242,-3.7878973105134475
17.843999999999998,2.9272224938875304,1.4352909535452323,-3.7883863080684597
17.863999999999997,2.9292762836185817,1.4348997555012224,-3.788875305623472
17.883999999999997,2.931330073349633,1.4345085574572127,-3.789364303178484
17.904,2.9333838630806848,1.4341173594132028,-3.7898533007334962
17.924,2.935437652811736,1.4337261613691932,-3.7903422982885084
17.944,2.9374914425427874,1.4333349633251833,-3.7908312958435206
17.964,2.9395452322738387,1.4329437652811736,-3.791320293398533
17.983999999999998,2.94159902200489,1.4325525672371637,-3.791809290953545
18.003999999999998,2.9436528117359413,1.432161369193154,-3.792298288508557
18.023999999999997,2.9457066014669926,1.4317701711491442,-3.7927872860635694
18.043999999999997,2.947760391198044,1.4313789731051345,-3.7932762836185816
18.063999999999997,2.949814180929095,1.4309877750611246,-3.793765281173594
18.084,2.951867970660147,1.430596577017115,-3.7942542787286064
18.104,2.9539217603911982,1.430205378973105,-3.7947432762836186
18.124,2.9559755501222496,1.4298141809290954,-3.795232273838631
18.144,2.958029339853301,1.4294229828850855,-3.795721271393643
18.163999999999998,2.960083129584352,1.4290317848410758,-3.796210268948655
18.183999999999997,2.9621369193154035,1.428640586797066,-3.7966992665036674
18.203999999999997,2.9641907090464548,1.4282493887530563,-3.7971882640586796
18.223999999999997,2.966244498777506,1.4278581907090464,-3.797677261613692
18.244,2.9682982885085574,1.4274669926650365,-3.798166259168704
18.264,2.9703520782396087,1.4270757946210268,-3.798655256723716
18.284,2.97240586797066,1.426684596577017,-3.7991442542787284
18.304,2.9744596577017113,1.4262933985330073,-3.7996332518337406
18.323999999999998,2.9765134474327626,1.4259022004889976,-3.8001222493887528
18.343999999999998,2.978567237163814,1.4255110024449877,-3.800611246943765
18.363999999999997,2.980621026894865,1.425119804400978,-3.801100244498777
18.383999999999997,2.9826748166259165,1.4247286063569682,-3.8015892420537893
18.403999999999996,2.984728606356968,1.4243374083129585,-3.802078239608802
18.424,2.9867823960880195,1.4239462102689486,-3.802567237163814
18.444,2.988836185819071,1.4235550122249387,-3.8030562347188264
18.464,2.990889975550122,1.423163814180929,-3.8035452322738386
18.483999999999998,2.9929437652811735,1.4227726161369192,-3.8040342298288508
18.503999999999998,2.9949975550122248,1.4223814180929095,-3.804523227383863
18.523999999999997,2.997051344743276,1.4219902200488996,-3.805012224938875
18.543999999999997,2.9991051344743274,1.42159902200489,-3.8055012224938873
18.563999999999997,3.0011589242053787,1.4212078239608803,-3.8059902200488995
18.584,3.0032127139364304,1.4208166259168704,-3.8064792176039117
18.604,3.0052665036674817,1.4204254278728605,-3.806968215158924
18.624,3.007320293398533,1.4200342298288509,-3.807457212713936
18.644,3.0093740831295843,1.419643031784841,-3.8079462102689483
18.663999999999998,3.0114278728606356,1.4192518337408313,-3.8084352078239605
18.683999999999997,3.013481662591687,1.4188606356968214,-3.808924205378973
18.703999999999997,3.0155354523227382,1.4184694376528117,-3.8094132029339853
18.723999999999997,3.0175892420537895,1.4180782396088019,-3.8099022004889975
18.744,3.0196430317848413,1.4176870415647922,-3.8103911980440097
18.764,3.0216968215158926,1.4172958435207823,-3.810880195599022
18.784,3.023750611246944,1.4169046454767726,-3.811369193154034
18.804,3.025804400977995,1.4165134474327628,-3.8118581907090463
18.823999999999998,3.027858190709046,1.416122249388753,-3.8123471882640585
18.843999999999998,3.0299119804400974,1.4157310513447432,-3.8128361858190707
18.863999999999997,3.0319657701711487,1.4153398533007335,-3.813325183374083
18.883999999999997,3.0340195599022,1.4149486552567236,-3.813814180929095
18.903999999999996,3.0360733496332513,1.414557457212714,-3.8143031784841073
18.924,3.038127139364303,1.414166259168704,-3.8147921760391195
18.944,3.0401809290953543,1.4137750611246944,-3.8152811735941317
18.964,3.0422347188264056,1.4133838630806845,-3.8157701711491443
18.983999999999998,3.044288508557457,1.4129926650366749,-3.8162591687041565
19.003999999999998,3.046342298288508,1.412601466992665,-3.8167481662591687
19.023999999999997,3.0483960880195595,1.4122102689486553,-3.817237163814181
19.043999999999997,3.050449877750611,1.4118190709046454,-3.817726161369193
19.063999999999997,3.052503667481662,1.4114278728606358,-3.8182151589242053
19.084,3.054557457212714,1.4110366748166259,-3.8187041564792175
19.104,3.056611246943765,1.410645476772616,-3.8191931540342297
19.124,3.0586650366748165,1.4102542787286063,-3.819682151589242
19.144,4.01,1.68,-4.3
19.163999999999998,-2.9000000000000234,0.3000000000000474,2.0466666666666864
19.183999999999997,-1.7300000000001066,-1.109999999999929,2.060000000000071
19.203999999999997,-1.6199824823535474,-1.1599912411767737,1.9199649647070947
19.223999999999997,-1.6199618733577208,-1.1599809366788603,1.9199237467154413
19.243999999999996,-1.619941264361894,-1.1599706321809469,1.919882528723788
19.264,-1.6199206553660674,-1.1599603276830335,1.9198413107321346
19.284,-1.6199000463702407,-1.1599500231851203,1.9198000927404812
19.304,-1.619879437374414,-1.159939718687207,1.919758874748828
19.323999999999998,-1.6198588283785873,-1.1599294141892935,1.9197176567571745
19.343999999999998,-1.6198382193827607,-1.1599191096913801,1.9196764387655212
19.363999999999997,-1.619817610386934,-1.159908805193467,1.9196352207738678
19.383999999999997,-1.6197970013911074,-1.1598985006955536,1.9195940027822145
19.403999999999996,-1.6197763923952806,-1.1598881961976402,1.9195527847905611
19.424,-1.619755783399454,-1.1598778916997268,1.9195115667989076
19.444,-1.6197351744036272,-1.1598675872018136,1.9194703488072542
19.464,-1.6197145654078007,-1.1598572827039002,1.9194291308156008
19.483999999999998,-1.619693956411974,-1.1598469782059868,1.9193879128239475
19.503999999999998,-1.6196733474161473,-1.1598366737080734,1.9193466948322941
19.523999999999997,-1.6196527384203205,-1.1598263692101602,1.9193054768406408
19.543999999999997,-1.619632129424494,-1.1598160647122469,1.9192642588489874
19.563999999999997,-1.6196115204286672,-1.1598057602143335,1.919223040857334
19.584,-1.6195909114328406,-1.15979545571642,1.9191818228656807
19.604,-1.6195703024370138,-1.159785151218507,1.9191406048740274
19.624,-1.6195496934411873,-1.1597748467205935,1.919099386882374
19.644,-1.6195290844453605,-1.15976454222268,1.9190581688907207
19.663999999999998,-1.619508475449534,-1.1597542377247667,1.9190169508990673
19.683999999999997,-1.6194878664537071,-1.1597439332268535,1.918975732907414
19.703999999999997,-1.6194672574578806,-1.1597336287289401,1.9189345149157606
19.723999999999997,-1.6194466484620538,-1.1597233242310268,1.9188932969241073
19.743999999999996,-1.6194260394662272,-1.1597130197331134,1.918852078932454
19.764,-1.6194054304704004,-1.1597027152352002,1.9188108609408006
19.784,-1.6193848214745739,-1.1596924107372868,1.9187696429491472
19.804,-1.619364212478747,-1.1596821062393734,1.9187284249574938
19.823999999999998,-1.6193436034829205,-1.15967180174146,1.9186872069658405
19.843999999999998,-1.6193229944870937,-1.1596614972435468,1.9186459889741871
19.863999999999997,-1.6193023854912671,-1.1596511927456334,1.9186047709825338
19.883999999999997,-1.6192817764954404,-1.15964088824772,1.9185635529908804
19.903999999999996,-1.6192611674996138,-1.1596305837498067,1.918522334999227
19.924,-1.619240558503787,-1.1596202792518935,1.9184811170075737
19.944,-1.6192199495079604,-1.15960997475398,1.9184398990159204
19.964,-1.6191993405121337,-1.1595996702560667,1.918398681024267
19.983999999999998,-1.6191787315163069,-1.1595893657581533,1.9183574630326137
20.003999999999998,-1.6191581225204803,-1.15957906126024,1.9183162450409603
20.023999999999997,-1.6191375135246535,-1.1595687567623267,1.918275027049307
20.043999999999997,-1.619116904528827,-1.1595584522644133,1.9182338090576536
20.063999999999997,-1.6190962955330002,-1.1595481477665,1.9181925910660003
20.083999999999996,-1.6190756865371736,-1.1595378432685866,1.918151373074347
20.104,-1.6190550775413468,-1.1595275387706734,1.9181101550826936
20.124,-1.6190344685455202,-1.15951723427276,1.9180689370910402
20.144,-1.6190138595496935,-1.1595069297748466,1.9180277190993869
20.163999999999998,-1.618993250553867,-1.1594966252769332,1.9179865011077335
20.183999999999997,-1.61897264155804,-1.15948632077902,1.9179452831160801
20.203999999999997,-1.6189520325622135,-1.1594760162811066,1.9179040651244268
20.223999999999997,-1.6189314235663868,-1.1594657117831932,1.9178628471327734
20.243999999999996,-1.6189108145705602,-1.1594554072852798,1.91782162914112
20.264,-1.6188902055747334,-1.1594451027873667,1.9177804111494667
20.284,-1.6188695965789068,-1.1594347982894533,1.9177391931578134
20.304,-1.61884898758308,-1.15942449379154,1.91769797516616
20.323999999999998,-1.6188283785872535,-1.1594141892936265,1.9176567571745067
20.343999999999998,-1.6188077695914267,-1.1594038847957133,1.9176155391828533
20.363999999999997,-1.6187871605956001,-1.1593935802978,1.9175743211912
20.383999999999997,-1.6187665515997733,-1.1593832757998865,1.9175331031995466
20.403999999999996,-1.6187459426039468,-1.1593729713019731,1.9174918852078933
20.424,-1.61872533360812,-1.15936266680406,1.91745066721624
20.444,-1.6187047246122934,-1.1593523623061466,1.9174094492245866
20.464,-1.6186841156164666,-1.1593420578082332,1.9173682312329332
20.483999999999998,-1.61866350662064,-1.1593317533103198,1.9173270132412799
20.503999999999998,-1.6186428976248133,-1.1593214488124066,1.9172857952496265
20.523999999999997,-1.6186222886289867,-1.1593111443144932,1.9172445772579731
20.543999999999997,-1.61860167963316,-1.1593008398165798,1.9172033592663196
20.563999999999997,-1.6185810706373334,-1.1592905353186664,1.9171621412746662
20.583999999999996,-1.6185604616415066,-1.1592802308207533,1.9171209232830129
20.604,-1.61853985264568,-1.1592699263228399,1.9170797052913595
20.624,-1.6185192436498532,-1.1592596218249265,1.9170384872997062
20.644,-1.6184986346540267,-1.159249317327013,1.9169972693080528
20.663999999999998,-1.6184780256581999,-1.1592390128291,1.9169560513163995
20.683999999999997,-1.6184574166623733,-1.1592287083311865,1.916914833324746
20.703999999999997,-1.6184368076665465,-1.1592184038332731,1.9168736153330928
20.723999999999997,-1.61841619867072,-1.1592080993353597,1.9168323973414394
20.743999999999996,-1.6183955896748932,-1.1591977948374466,1.916791179349786
20.764,-1.6183749806790666,-1.1591874903395332,1.9167499613581327
20.784,-1.6183543716832398,-1.1591771858416198,1.9167087433664793
20.804,-1.6183337626874132,-1.1591668813437064,1.916667525374826
20.823999999999998,-1.6183131536915865,-1.1591565768457932,1.9166263073831726
20.843999999999998,-1.61829254469576,-1.1591462723478798,1.9165850893915193
20.863999999999997,-1.618271935699933,-1.1591359678499664,1.916543871399866
20.883999999999997,-1.6182513267041065,-1.159125663352053,1.9165026534082126
20.903999999999996,-1.6182307177082798,-1.1591153588541399,1.9164614354165592
20.924,-1.6182101087124532,-1.1591050543562265,1.9164202174249059
20.944,-1.6181894997166264,-1.159094749858313,1.9163789994332525
20.964,-1.6181688907207998,-1.1590844453603997,1.9163377814415992
20.983999999999998,-1.618148281724973,-1.1590741408624865,1.9162965634499458
21.003999999999998,-1.6181276727291465,-1.159063836364573,1.9162553454582925
21.023999999999997,-1.6181070637333197,-1.1590535318666597,1.916214127466639
21.043999999999997,-1.6180864547374931,-1.1590432273687463,1.9161729094749858
21.063999999999997,-1.6180658457416663,-1.1590329228708331,1.9161316914833324
21.083999999999996,-1.6180452367458398,-1.1590226183729198,1.916090473491679
21.104,-1.618024627750013,-1.1590123138750064,1.9160492555000257
21.124,-1.6180040187541862,-1.159002009377093,1.9160080375083723
21.144,-1.6179834097583596,-1.1589917048791796,1.915966819516719
21.163999999999998,-1.6179628007625328,-1.1589814003812664,1.9159256015250656
21.183999999999997,-1.6179421917667063,-1.158971095883353,1.9158843835334123
21.203999999999997,-1.6179215827708795,-1.1589607913854396,1.915843165541759
21.223999999999997,-1.617900973775053,-1.1589504868875262,1.9158019475501056
21.243999999999996,-1.6178803647792261,-1.158940182389613,1.9157607295584522
21.264,-1.6178597557833996,-1.1589298778916997,1.9157195115667989
21.284,-1.6178391467875728,-1.1589195733937863,1.9156782935751455
21.304,-1.6178185377917462,-1.1589092688958729,1.9156370755834922
21.323999999999998,-1.6177979287959194,-1.1588989643979597,1.9155958575918388
21.343999999999998,-1.6177773198000929,-1.1588886599000463,1.9155546396001855
21.363999999999997,-1.617756710804266,-1.158878355402133,1.915513421608532
21.383999999999997,-1.6177361018084395,-1.1588680509042195,1.9154722036168788
21.403999999999996,-1.6177154928126127,-1.1588577464063063,1.9154309856252254
21.423999999999996,-1.6176948838167862,-1.158847441908393,1.915389767633572
21.444,-1.6176742748209594,-1.1588371374104796,1.9153485496419187
21.464,-1.6176536658251328,-1.1588268329125662,1.9153073316502653
21.483999999999998,-1.617633056829306,-1.158816528414653,1.915266113658612
21.503999999999998,-1.6176124478334795,-1.1588062239167396,1.9152248956669586
21.523999999999997,-1.6175918388376527,-1.1587959194188262,1.9151836776753053
21.543999999999997,-1.617571229841826,-1.1587856149209128,1.915142459683652
21.563999999999997,-1.6175506208459993,-1.1587753104229996,1.9151012416919986
21.583999999999996,-1.6175300118501728,-1.1587650059250862,1.9150600237003452
21.604,-1.617509402854346,-1.1587547014271729,1.9150188057086919
21.624,-1.6174887938585194,-1.1587443969292595,1.9149775877170385
21.644,-1.6174681848626926,-1.1587340924313463,1.9149363697253852
21.663999999999998,-1.617447575866866,-1.158723787933433,1.9148951517337318
21.683999999999997,-1.6174269668710393,-1.1587134834355195,1.9148539337420782
21.703999999999997,-1.6174063578752127,-1.158703178937606,1.9148127157504249
21.723999999999997,-1.617385748879386,-1.158692874439693,1.9147714977587715
21.743999999999996,-1.6173651398835593,-1.1586825699417795,1.9147302797671182
21.764,-1.6173445308877326,-1.1586722654438661,1.9146890617754648
21.784,-1.617323921891906,-1.1586619609459528,1.9146478437838115
21.804,-1.6173033128960792,-1.1586516564480396,1.9146066257921581
21.823999999999998,-1.6172827039002526,-1.1586413519501262,1.9145654078005048
21.843999999999998,-1.6172620949044259,-1.1586310474522128,1.9145241898088514
21.863999999999997,-1.6172414859085993,-1.1586207429542994,1.914482971817198
21.883999999999997,-1.6172208769127725,-1.1586104384563862,1.9144417538255447
21.903999999999996,-1.617200267916946,-1.1586001339584728,1.9144005358338914
21.923999999999996,-1.6171796589211191,-1.1585898294605594,1.914359317842238
21.944,-1.6171590499252926,-1.158579524962646,1.9143180998505847
21.964,-1.6171384409294658,-1.1585692204647329,1.9142768818589313
21.983999999999998,-1.6171178319336392,-1.1585589159668195,1.914235663867278
22.003999999999998,-1.6170972229378124,-1.158548611468906,1.9141944458756246
22.023999999999997,-1.6170766139419859,-1.1585383069709927,1.9141532278839712
22.043999999999997,-1.617056004946159,-1.1585280024730795,1.914112009892318
22.063999999999997,-1.6170353959503325,-1.1585176979751661,1.9140707919006645
22.083999999999996,-1.6170147869545057,-1.1585073934772527,1.9140295739090112
22.104,-1.6169941779586792,-1.1584970889793393,1.9139883559173578
22.124,-1.6169735689628524,-1.1584867844814262,1.9139471379257045
22.144,-1.6169529599670258,-1.1584764799835128,1.9139059199340511
22.163999999999998,-1.616932350971199,-1.1584661754855994,1.9138647019423978
22.183999999999997,-1.6169117419753725,-1.158455870987686,1.9138234839507444
22.203999999999997,-1.6168911329795457,-1.1584455664897728,1.913782265959091
22.223999999999997,-1.616870523983719,-1.1584352619918594,1.9137410479674377
22.243999999999996,-1.6168499149878923,-1.158424957493946,1.9136998299757844
22.263999999999996,-1.6168293059920655,-1.1584146529960326,1.913658611984131
22.284,-1.616808696996239,-1.1584043484981192,1.9136173939924777
22.304,-1.6167880880004122,-1.158394044000206,1.9135761760008243
22.323999999999998,-1.6167674790045856,-1.1583837395022927,1.913534958009171
22.343999999999998,-1.6167468700087588,-1.1583734350043793,1.9134937400175176
22.363999999999997,-1.6167262610129323,-1.1583631305064659,1.9134525220258642
22.383999999999997,-1.6167056520171055,-1.1583528260085527,1.913411304034211
22.403999999999996,-1.616685043021279,-1.1583425215106393,1.9133700860425575
22.423999999999996,-1.6166644340254521,-1.158332217012726,1.9133288680509042
22.444,-1.6166438250296256,-1.1583219125148125,1.9132876500592508
22.464,-1.6166232160337988,-1.1583116080168994,1.9132464320675975
22.483999999999998,-1.6166026070379722,-1.158301303518986,1.9132052140759441
22.503999999999998,-1.6165819980421454,-1.1582909990210726,1.9131639960842908
22.523999999999997,-1.6165613890463189,-1.1582806945231592,1.9131227780926374
22.543999999999997,-1.616540780050492,-1.158270390025246,1.913081560100984
22.563999999999997,-1.6165201710546655,-1.1582600855273326,1.9130403421093307
22.583999999999996,-1.6164995620588387,-1.1582497810294192,1.9129991241176774
22.604,-1.6164789530630121,-1.1582394765315058,1.912957906126024
22.624,-1.6164583440671854,-1.1582291720335927,1.9129166881343707
22.644,-1.6164377350713588,-1.1582188675356793,1.9128754701427173
22.663999999999998,-1.616417126075532,-1.1582085630377659,1.912834252151064
22.683999999999997,-1.6163965170797054,-1.1581982585398525,1.9127930341594106
22.703999999999997,-1.6163759080838787,-1.1581879540419393,1.9127518161677572
22.723999999999997,-1.616355299088052,-1.158177649544026,1.912710598176104
22.743999999999996,-1.6163346900922253,-1.1581673450461125,1.9126693801844505
22.763999999999996,-1.6163140810963987,-1.1581570405481991,1.9126281621927972
22.784,-1.616293472100572,-1.158146736050286,1.9125869442011438
22.804,-1.6162728631047454,-1.1581364315523726,1.9125457262094903
22.823999999999998,-1.6162522541089186,-1.1581261270544592,1.912504508217837
22.843999999999998,-1.616231645113092,-1.1581158225565458,1.9124632902261836
22.863999999999997,-1.6162110361172652,-1.1581055180586326,1.9124220722345302
22.883999999999997,-1.6161904271214387,-1.1580952135607192,1.9123808542428768
22.903999999999996,-1.616169818125612,-1.1580849090628058,1.9123396362512235
22.923999999999996,-1.6161492091297853,-1.1580746045648924,1.9122984182595701
22.944,-1.6161286001339585,-1.1580643000669792,1.9122572002679168
22.964,-1.616107991138132,-1.1580539955690659,1.9122159822762634
22.983999999999998,-1.6160873821423052,-1.1580436910711525,1.91217476428461
23.003999999999998,-1.6160667731464786,-1.158033386573239,1.9121335462929567
23.023999999999997,-1.6160461641506518,-1.158023082075326,1.9120923283013034
23.043999999999997,-1.6160255551548253,-1.1580127775774125,1.91205111030965
23.063999999999997,-1.6160049461589985,-1.158002473079499,1.9120098923179967
23.083999999999996,-1.615984337163172,-1.1579921685815857,1.9119686743263433
23.103999999999996,-1.6159637281673451,-1.1579818640836725,1.91192745633469
23.124,-1.6159431191715186,-1.1579715595857591,1.9118862383430366
23.144,-1.6159225101756918,-1.1579612550878458,1.9118450203513833
23.163999999999998,-1.6159019011798652,-1.1579509505899324,1.91180380235973
23.183999999999997,-1.6158812921840384,-1.1579406460920192,1.9117625843680766
23.203999999999997,-1.6158606831882119,-1.1579303415941058,1.9117213663764232
23.223999999999997,-1.615840074192385,-1.1579200370961924,1.9116801483847699
23.243999999999996,-1.6158194651965585,-1.157909732598279,1.9116389303931165
23.263999999999996,-1.6157988562007317,-1.1578994281003658,1.9115977124014631
23.284,-1.6157782472049051,-1.1578891236024524,1.9115564944098098
23.304,-1.6157576382090784,-1.157878819104539,1.9115152764181564
23.323999999999998,-1.6157370292132518,-1.1578685146066257,1.911474058426503
23.343999999999998,-1.615716420217425,-1.1578582101087125,1.9114328404348497
23.363999999999997,-1.6156958112215984,-1.157847905610799,1.9113916224431964
23.383999999999997,-1.6156752022257717,-1.1578376011128857,1.911350404451543
23.403999999999996,-1.6156545932299449,-1.1578272966149723,1.9113091864598897
23.423999999999996,-1.6156339842341183,-1.157816992117059,1.9112679684682363
23.444,-1.6156133752382915,-1.1578066876191457,1.911226750476583
23.464,-1.615592766242465,-1.1577963831212323,1.9111855324849296
23.483999999999998,-1.6155721572466382,-1.157786078623319,1.9111443144932763
23.503999999999998,-1.6155515482508116,-1.1577757741254056,1.911103096501623
23.523999999999997,-1.6155309392549848,-1.1577654696274924,1.9110618785099696
23.543999999999997,-1.6155103302591582,-1.157755165129579,1.9110206605183162
23.563999999999997,-1.6154897212633315,-1.1577448606316656,1.9109794425266629
23.583999999999996,-1.615469112267505,-1.1577345561337522,1.9109382245350095
23.603999999999996,-1.615448503271678,-1.157724251635839,1.9108970065433561
23.624,-1.6154278942758515,-1.1577139471379256,1.9108557885517028
23.644,-1.6154072852800248,-1.1577036426400122,1.9108145705600494
23.663999999999998,-1.6153866762841982,-1.1576933381420988,1.910773352568396
23.683999999999997,-1.6153660672883714,-1.1576830336441857,1.9107321345767427
23.703999999999997,-1.6153454582925448,-1.1576727291462723,1.9106909165850894
23.723999999999997,-1.615324849296718,-1.157662424648359,1.910649698593436
23.743999999999996,-1.6153042403008915,-1.1576521201504455,1.9106084806017827
23.763999999999996,-1.6152836313050647,-1.1576418156525323,1.9105672626101293
23.784,-1.6152630223092381,-1.157631511154619,1.910526044618476
23.804,-1.6152424133134113,-1.1576212066567055,1.9104848266268226
23.823999999999998,-1.6152218043175848,-1.1576109021587921,1.9104436086351693
23.843999999999998,-1.615201195321758,-1.157600597660879,1.910402390643516
23.863999999999997,-1.6151805863259314,-1.1575902931629656,1.9103611726518626
23.883999999999997,-1.6151599773301046,-1.1575799886650522,1.9103199546602092
23.903999999999996,-1.615139368334278,-1.1575696841671388,1.9102787366685559
23.923999999999996,-1.6151187593384513,-1.1575593796692256,1.9102375186769025
23.943999999999996,-1.6150981503426247,-1.1575490751713122,1.9101963006852491
23.964,-1.615077541346798,-1.1575387706733988,1.9101550826935956
23.983999999999998,-1.6150569323509714,-1.1575284661754854,1.9101138647019422
24.003999999999998,-1.6150363233551446,-1.1575181616775723,1.9100726467102889
24.023999999999997,-1.615015714359318,-1.1575078571796589,1.9100314287186355
24.043999999999997,-1.6149951053634912,-1.1574975526817455,1.9099902107269822
24.063999999999997,-1.6149744963676647,-1.157487248183832,1.9099489927353288
24.083999999999996,-1.6149538873718379,-1.157476943685919,1.9099077747436755
24.103999999999996,-1.6149332783760113,-1.1574666391880055,1.909866556752022
24.124,-1.6149126693801845,-1.1574563346900921,1.9098253387603688
24.144,-1.614892060384358,-1.1574460301921787,1.9097841207687154
24.163999999999998,-1.6148714513885312,-1.1574357256942656,1.909742902777062
24.183999999999997,-1.6148508423927046,-1.1574254211963522,1.9097016847854087
24.203999999999997,-1.6148302333968778,-1.1574151166984388,1.9096604667937553
24.223999999999997,-1.6148096244010512,-1.1574048122005254,1.909619248802102
24.243999999999996,-1.6147890154052245,-1.1573945077026122,1.9095780308104486
24.263999999999996,-1.614768406409398,-1.1573842032046988,1.9095368128187953
24.284,-1.614747797413571,-1.1573738987067854,1.909495594827142
24.304,-1.6147271884177445,-1.157363594208872,1.9094543768354886
24.323999999999998,-1.6147065794219178,-1.1573532897109589,1.9094131588438352
24.343999999999998,-1.6146859704260912,-1.1573429852130455,1.9093719408521819
24.363999999999997,-1.6146653614302644,-1.157332680715132,1.9093307228605285
24.383999999999997,-1.6146447524344378,-1.1573223762172187,1.9092895048688752
24.403999999999996,-1.614624143438611,-1.1573120717193055,1.9092482868772218
24.423999999999996,-1.6146035344427845,-1.157301767221392,1.9092070688855685
24.443999999999996,-1.6145829254469577,-1.1572914627234787,1.909165850893915
24.464,-1.6145623164511311,-1.1572811582255653,1.9091246329022618
24.483999999999998,-1.6145417074553043,-1.1572708537276521,1.9090834149106084
24.503999999999998,-1.6145210984594778,-1.1572605492297388,1.909042196918955
24.523999999999997,-1.614500489463651,-1.1572502447318254,1.9090009789273017
24.543999999999997,-1.6144798804678242,-1.157239940233912,1.9089597609356483
24.563999999999997,-1.6144592714719976,-1.1572296357359986,1.908918542943995
24.583999999999996,-1.6144386624761708,-1.1572193312380854,1.9088773249523416
24.603999999999996,-1.6144180534803443,-1.157209026740172,1.9088361069606883
24.624,-1.6143974444845175,-1.1571987222422586,1.908794888969035
24.644,-1.614376835488691,-1.1571884177443452,1.9087536709773816
24.663999999999998,-1.6143562264928641,-1.157178113246432,1.9087124529857282
24.683999999999997,-1.6143356174970376,-1.1571678087485187,1.9086712349940749
24.703999999999997,-1.6143150085012108,-1.1571575042506053,1.9086300170024215
24.723999999999997,-1.6142943995053842,-1.1571471997526919,1.9085887990107682
24.743999999999996,-1.6142737905095574,-1.1571368952547787,1.9085475810191148
24.763999999999996,-1.6142531815137309,-1.1571265907568653,1.9085063630274615
24.783999999999995,-1.614232572517904,-1.157116286258952,1.908465145035808
24.804,-1.6142119635220775,-1.1571059817610385,1.9084239270441548
24.823999999999998,-1.6141913545262507,-1.1570956772631253,1.9083827090525014
24.843999999999998,-1.6141707455304242,-1.157085372765212,1.908341491060848
24.863999999999997,-1.6141501365345974,-1.1570750682672986,1.9083002730691947
24.883999999999997,-1.6141295275387708,-1.1570647637693852,1.9082590550775413
24.903999999999996,-1.614108918542944,-1.157054459271472,1.908217837085888
24.923999999999996,-1.6140883095471175,-1.1570441547735586,1.9081766190942346
24.943999999999996,-1.6140677005512907,-1.1570338502756452,1.9081354011025813
24.964,-1.614047091555464,-1.1570235457777318,1.908094183110928
24.983999999999998,-1.6140264825596373,-1.1570132412798186,1.9080529651192746
25.003999999999998,-1.6140058735638108,-1.1570029367819052,1.9080117471276212
25.023999999999997,-1.613985264567984,-1.1569926322839919,1.9079705291359679
25.043999999999997,-1.6139646555721574,-1.1569823277860785,1.9079293111443145
25.063999999999997,-1.6139440465763306,-1.1569720232881653,1.9078880931526612
25.083999999999996,-1.613923437580504,-1.156961718790252,1.9078468751610078
25.103999999999996,-1.6139028285846773,-1.1569514142923385,1.9078056571693542
25.124,-1.6138822195888507,-1.156941109794425,1.9077644391777009
25.144,-1.613861610593024,-1.156930805296512,1.9077232211860475
25.163999999999998,-1.6138410015971973,-1.1569205007985985,1.9076820031943942
25.183999999999997,-1.6138203926013706,-1.1569101963006851,1.9076407852027408
25.203999999999997,-1.613799783605544,-1.1568998918027718,1.9075995672110875
25.223999999999997,-1.6137791746097172,-1.1568895873048586,1.9075583492194341
25.243999999999996,-1.6137585656138906,-1.1568792828069452,1.9075171312277808
25.263999999999996,-1.6137379566180639,-1.1568689783090318,1.9074759132361274
25.283999999999995,-1.6137173476222373,-1.1568586738111184,1.907434695244474
25.304,-1.6136967386264105,-1.1568483693132052,1.9073934772528207
25.323999999999998,-1.613676129630584,-1.1568380648152918,1.9073522592611674
25.343999999999998,-1.6136555206347571,-1.1568277603173784,1.907311041269514
25.363999999999997,-1.6136349116389306,-1.156817455819465,1.9072698232778607
25.383999999999997,-1.6136143026431038,-1.1568071513215519,1.9072286052862073
25.403999999999996,-1.6135936936472772,-1.1567968468236385,1.907187387294554
25.423999999999996,-1.6135730846514504,-1.156786542325725,1.9071461693029006
25.443999999999996,-1.6135524756556239,-1.1567762378278117,1.9071049513112472
25.464,-1.613531866659797,-1.1567659333298985,1.907063733319594
25.483999999999998,-1.6135112576639705,-1.1567556288319851,1.9070225153279405
25.503999999999998,-1.6134906486681437,-1.1567453243340717,1.9069812973362872
25.523999999999997,-1.6134700396723172,-1.1567350198361583,1.9069400793446338
25.543999999999997,-1.6134494306764904,-1.1567247153382452,1.9068988613529805
25.563999999999997,-1.6134288216806638,-1.1567144108403318,1.9068576433613271
25.583999999999996,-1.613408212684837,-1.1567041063424184,1.9068164253696738
25.603999999999996,-1.6133876036890105,-1.156693801844505,1.9067752073780204
25.623999999999995,-1.6133669946931837,-1.1566834973465918,1.906733989386367
25.644,-1.6133463856973569,-1.1566731928486784,1.9066927713947137
25.663999999999998,-1.6133257767015303,-1.156662888350765,1.9066515534030604
25.683999999999997,-1.6133051677057035,-1.1566525838528516,1.906610335411407
25.703999999999997,-1.613284558709877,-1.1566422793549382,1.9065691174197537
25.723999999999997,-1.6132639497140502,-1.156631974857025,1.9065278994281003
25.743999999999996,-1.6132433407182236,-1.1566216703591117,1.906486681436447
25.763999999999996,-1.6132227317223968,-1.1566113658611983,1.9064454634447936
25.783999999999995,-1.6132021227265703,-1.1566010613632849,1.9064042454531402
25.804,-1.6131815137307435,-1.1565907568653717,1.906363027461487
25.823999999999998,-1.613160904734917,-1.1565804523674583,1.9063218094698335
25.843999999999998,-1.6131402957390901,-1.156570147869545,1.9062805914781802
25.863999999999997,-1.6131196867432636,-1.1565598433716315,1.9062393734865268
25.883999999999997,-1.6130990777474368,-1.1565495388737184,1.9061981554948735
25.903999999999996,-1.6130784687516102,-1.156539234375805,1.9061569375032201
25.923999999999996,-1.6130578597557834,-1.1565289298778916,1.9061157195115668
25.943999999999996,-1.6130372507599569,-1.1565186253799782,1.9060745015199134
25.964,-1.61301664176413,-1.156508320882065,1.90603328352826
25.983999999999998,-1.6129960327683035,-1.1564980163841516,1.9059920655366067
26.003999999999998,-1.6129754237724767,-1.1564877118862382,1.9059508475449534
26.023999999999997,-1.6129548147766501,-1.1564774073883248,1.9059096295533
26.043999999999997,-1.6129342057808234,-1.1564671028904117,1.9058684115616467
26.063999999999997,-1.6129135967849968,-1.1564567983924983,1.9058271935699933
26.083999999999996,-1.61289298778917,-1.1564464938945849,1.90578597557834
26.103999999999996,-1.6128723787933434,-1.1564361893966715,1.9057447575866866
26.123999999999995,-1.6128517697975167,-1.1564258848987583,1.9057035395950332
26.144,-1.61283116080169,-1.156415580400845,1.90566232160338
26.163999999999998,-1.6128105518058633,-1.1564052759029315,1.9056211036117265
26.183999999999997,-1.6127899428100367,-1.1563949714050181,1.9055798856200732
26.203999999999997,-1.61276933381421,-1.156384666907105,1.9055386676284198
26.223999999999997,-1.6127487248183834,-1.1563743624091916,1.9054974496367663
26.243999999999996,-1.6127281158225566,-1.1563640579112782,1.905456231645113
26.263999999999996,-1.61270750682673,-1.1563537534133648,1.9054150136534596
26.283999999999995,-1.6126868978309032,-1.1563434489154516,1.9053737956618062
26.304,-1.6126662888350767,-1.1563331444175382,1.9053325776701528
26.323999999999998,-1.61264567983925,-1.1563228399196248,1.9052913596784995
26.343999999999998,-1.6126250708434233,-1.1563125354217114,1.9052501416868461
26.363999999999997,-1.6126044618475965,-1.1563022309237982,1.9052089236951928
26.383999999999997,-1.61258385285177,-1.1562919264258849,1.9051677057035394
26.403999999999996,-1.6125632438559432,-1.1562816219279715,1.905126487711886
26.423999999999996,-1.6125426348601166,-1.156271317430058,1.9050852697202327
26.443999999999996,-1.6125220258642898,-1.156261012932145,1.9050440517285794
26.464,-1.6125014168684633,-1.1562507084342315,1.905002833736926
26.483999999999998,-1.6124808078726365,-1.156240403936318,1.9049616157452727
26.503999999999998,-1.61246019887681,-1.1562300994384047,1.9049203977536193
26.523999999999997,-1.6124395898809831,-1.1562197949404915,1.904879179761966
26.543999999999997,-1.6124189808851566,-1.1562094904425781,1.9048379617703126
26.563999999999997,-1.6123983718893298,-1.1561991859446648,1.9047967437786593
26.583999999999996,-1.6123777628935032,-1.1561888814467514,1.904755525787006
26.603999999999996,-1.6123571538976764,-1.1561785769488382,1.9047143077953526
26.623999999999995,-1.6123365449018499,-1.1561682724509248,1.9046730898036992
26.644,-1.612315935906023,-1.1561579679530114,1.9046318718120459
26.663999999999998,-1.6122953269101965,-1.156147663455098,1.9045906538203925
26.683999999999997,-1.6122747179143697,-1.1561373589571848,1.9045494358287391
26.703999999999997,-1.6122541089185431,-1.1561270544592714,1.9045082178370858
26.723999999999997,-1.6122334999227164,-1.156116749961358,1.9044669998454324
26.743999999999996,-1.6122128909268898,-1.1561064454634447,1.904425781853779
26.763999999999996,-1.612192281931063,-1.1560961409655315,1.9043845638621257
26.783999999999995,-1.6121716729352364,-1.156085836467618,1.9043433458704724
26.804,-1.6121510639394097,-1.1560755319697047,1.904302127878819
26.823999999999998,-1.6121304549435829,-1.1560652274717913,1.9042609098871657
26.843999999999998,-1.6121098459477563,-1.156054922973878,1.9042196918955123
26.863999999999997,-1.6120892369519295,-1.1560446184759647,1.904178473903859
26.883999999999997,-1.612068627956103,-1.1560343139780513,1.9041372559122056
26.903999999999996,-1.6120480189602762,-1.156024009480138,1.9040960379205523
26.923999999999996,-1.6120274099644496,-1.1560137049822246,1.904054819928899
26.943999999999996,-1.6120068009686228,-1.1560034004843114,1.9040136019372456
26.963999999999995,-1.6119861919727962,-1.155993095986398,1.9039723839455922
26.983999999999998,-1.6119655829769695,-1.1559827914884846,1.9039311659539389
27.003999999999998,-1.611944973981143,-1.1559724869905712,1.9038899479622855
27.023999999999997,-1.611924364985316,-1.155962182492658,1.9038487299706321
27.043999999999997,-1.6119037559894895,-1.1559518779947446,1.9038075119789788
27.063999999999997,-1.6118831469936628,-1.1559415734968312,1.9037662939873254
27.083999999999996,-1.6118625379978362,-1.1559312689989178,1.903725075995672
27.103999999999996,-1.6118419290020094,-1.1559209645010047,1.9036838580040187
27.123999999999995,-1.6118213200061828,-1.1559106600030913,1.9036426400123654
27.144,-1.611800711010356,-1.155900355505178,1.903601422020712
27.163999999999998,-1.6117801020145295,-1.1558900510072645,1.9035602040290587
27.183999999999997,-1.6117594930187027,-1.1558797465093513,1.9035189860374053
27.203999999999997,-1.6117388840228761,-1.155869442011438,1.903477768045752
27.223999999999997,-1.6117182750270493,-1.1558591375135245,1.9034365500540986
27.243999999999996,-1.6116976660312228,-1.1558488330156111,1.9033953320624453
27.263999999999996,-1.611677057035396,-1.155838528517698,1.903354114070792
27.283999999999995,-1.6116564480395694,-1.1558282240197846,1.9033128960791386
27.304,-1.6116358390437426,-1.1558179195218712,1.9032716780874852
27.323999999999998,-1.611615230047916,-1.1558076150239578,1.9032304600958319
27.343999999999998,-1.6115946210520893,-1.1557973105260446,1.9031892421041783
27.363999999999997,-1.6115740120562627,-1.1557870060281312,1.903148024112525
27.383999999999997,-1.611553403060436,-1.1557767015302178,1.9031068061208716
27.403999999999996,-1.6115327940646094,-1.1557663970323044,1.9030655881292182
27.423999999999996,-1.6115121850687826,-1.1557560925343913,1.9030243701375649
27.443999999999996,-1.611491576072956,-1.1557457880364779,1.9029831521459115
27.463999999999995,-1.6114709670771292,-1.1557354835385645,1.9029419341542582
27.483999999999998,-1.6114503580813027,-1.155725179040651,1.9029007161626048
27.503999999999998,-1.6114297490854759,-1.155714874542738,1.9028594981709515
27.523999999999997,-1.6114091400896493,-1.1557045700448245,1.902818280179298
27.543999999999997,-1.6113885310938225,-1.1556942655469111,1.9027770621876448
27.563999999999997,-1.611367922097996,-1.1556839610489977,1.9027358441959914
27.583999999999996,-1.6113473131021692,-1.1556736565510846,1.902694626204338
27.603999999999996,-1.6113267041063426,-1.1556633520531712,1.9026534082126847
27.623999999999995,-1.6113060951105158,-1.1556530475552578,1.9026121902210313
27.644,-1.6112854861146892,-1.1556427430573444,1.902570972229378
27.663999999999998,-1.6112648771188625,-1.1556324385594312,1.9025297542377246
27.683999999999997,-1.611244268123036,-1.1556221340615178,1.9024885362460713
27.703999999999997,-1.611223659127209,-1.1556118295636044,1.902447318254418
27.723999999999997,-1.6112030501313825,-1.155601525065691,1.9024061002627646
27.743999999999996,-1.6111824411355558,-1.1555912205677779,1.9023648822711112
27.763999999999996,-1.6111618321397292,-1.1555809160698645,1.9023236642794579
27.783999999999995,-1.6111412231439024,-1.155570611571951,1.9022824462878045
27.803999999999995,-1.6111206141480758,-1.1555603070740377,1.9022412282961512
27.823999999999998,-1.611100005152249,-1.1555500025761245,1.9022000103044978
27.843999999999998,-1.6110793961564225,-1.155539698078211,1.9021587923128445
27.863999999999997,-1.6110587871605957,-1.1555293935802977,1.902117574321191
27.883999999999997,-1.6110381781647691,-1.1555190890823843,1.9020763563295378
27.903999999999996,-1.6110175691689423,-1.1555087845844711,1.9020351383378844
27.923999999999996,-1.6109969601731158,-1.1554984800865578,1.901993920346231
27.943999999999996,-1.610976351177289,-1.1554881755886444,1.9019527023545777
27.963999999999995,-1.6109557421814622,-1.155477871090731,1.9019114843629243
27.983999999999998,-1.6109351331856356,-1.1554675665928176,1.901870266371271
28.003999999999998,-1.6109145241898088,-1.1554572620949044,1.9018290483796176
28.023999999999997,-1.6108939151939823,-1.155446957596991,1.9017878303879643
28.043999999999997,-1.6108733061981555,-1.1554366530990776,1.901746612396311
28.063999999999997,-1.610852697202329,-1.1554263486011642,1.9017053944046576
28.083999999999996,-1.6108320882065021,-1.155416044103251,1.9016641764130042
28.103999999999996,-1.6108114792106756,-1.1554057396053377,1.9016229584213509
28.123999999999995,-1.6107908702148488,-1.1553954351074243,1.9015817404296975
28.144,-1.6107702612190222,-1.1553851306095109,1.9015405224380442
28.163999999999998,-1.6107496522231954,-1.1553748261115977,1.9014993044463908
28.183999999999997,-1.6107290432273689,-1.1553645216136843,1.9014580864547375
28.203999999999997,-1.610708434231542,-1.155354217115771,1.901416868463084
28.223999999999997,-1.6106878252357155,-1.1553439126178575,1.9013756504714308
28.243999999999996,-1.6106672162398887,-1.1553336081199443,1.9013344324797774
28.263999999999996,-1.6106466072440622,-1.155323303622031,1.901293214488124
28.283999999999995,-1.6106259982482354,-1.1553129991241176,1.9012519964964707
28.303999999999995,-1.6106053892524088,-1.1553026946262042,1.9012107785048173
28.323999999999998,-1.610584780256582,-1.155292390128291,1.901169560513164
28.343999999999998,-1.6105641712607555,-1.1552820856303776,1.9011283425215106
28.363999999999997,-1.6105435622649287,-1.1552717811324642,1.9010871245298573
28.383999999999997,-1.610522953269102,-1.1552614766345508,1.901045906538204
28.403999999999996,-1.6105023442732753,-1.1552511721366376,1.9010046885465506
28.423999999999996,-1.6104817352774488,-1.1552408676387242,1.9009634705548972
28.443999999999996,-1.610461126281622,-1.1552305631408109,1.9009222525632439
28.463999999999995,-1.6104405172857954,-1.1552202586428975,1.9008810345715905
28.483999999999998,-1.6104199082899686,-1.1552099541449843,1.900839816579937
28.503999999999998,-1.610399299294142,-1.155199649647071,1.9007985985882836
28.523999999999997,-1.6103786902983153,-1.1551893451491575,1.9007573805966302
28.543999999999997,-1.6103580813024887,-1.155179040651244,1.9007161626049769
28.563999999999997,-1.610337472306662,-1.155168736153331,1.9006749446133235
28.583999999999996,-1.6103168633108353,-1.1551584316554175,1.9006337266216702
28.603999999999996,-1.6102962543150086,-1.1551481271575041,1.9005925086300168
28.623999999999995,-1.610275645319182,-1.1551378226595908,1.9005512906383635
28.643999999999995,-1.6102550363233552,-1.1551275181616776,1.9005100726467101
28.663999999999998,-1.6102344273275286,-1.1551172136637642,1.9004688546550568
28.683999999999997,-1.6102138183317019,-1.1551069091658508,1.9004276366634034
28.703999999999997,-1.6101932093358753,-1.1550966046679374,1.90038641867175
28.723999999999997,-1.6101726003400485,-1.1550863001700242,1.9003452006800967
28.743999999999996,-1.610151991344222,-1.1550759956721108,1.9003039826884434
28.763999999999996,-1.6101313823483951,-1.1550656911741974,1.90026276469679
28.783999999999995,-1.6101107733525686,-1.155055386676284,1.9002215467051367
28.803999999999995,-1.6100901643567418,-1.1550450821783709,1.9001803287134833
28.823999999999998,-1.6100695553609152,-1.1550347776804575,1.90013911072183
28.843999999999998,-1.6100489463650884,-1.155024473182544,1.9000978927301766
28.863999999999997,-1.6100283373692619,-1.1550141686846307,1.9000566747385232
28.883999999999997,-1.610007728373435,-1.1550038641867175,1.90001545674687
28.903999999999996,-1.6099871193776085,-1.1549935596888041,1.8999742387552165
28.923999999999996,-1.6099665103817817,-1.1549832551908907,1.8999330207635632
28.943999999999996,-1.6099459013859552,-1.1549729506929773,1.8998918027719098
28.963999999999995,-1.6099252923901284,-1.1549626461950642,1.8998505847802565
28.983999999999998,-1.6099046833943018,-1.1549523416971508,1.8998093667886031
29.003999999999998,-1.609884074398475,-1.1549420371992374,1.8997681487969498
29.023999999999997,-1.6098634654026485,-1.154931732701324,1.8997269308052964
29.043999999999997,-1.6098428564068217,-1.1549214282034108,1.899685712813643
29.063999999999997,-1.609822247410995,-1.1549111237054974,1.8996444948219897
29.083999999999996,-1.6098016384151683,-1.154900819207584,1.8996032768303364
29.103999999999996,-1.6097810294193415,-1.1548905147096706,1.899562058838683
29.123999999999995,-1.609760420423515,-1.1548802102117572,1.8995208408470297
29.143999999999995,-1.6097398114276882,-1.154869905713844,1.8994796228553763
29.163999999999998,-1.6097192024318616,-1.1548596012159307,1.899438404863723
29.183999999999997,-1.6096985934360348,-1.1548492967180173,1.8993971868720696
29.203999999999997,-1.6096779844402083,-1.1548389922201039,1.8993559688804162
29.223999999999997,-1.6096573754443815,-1.1548286877221907,1.899314750888763
29.243999999999996,-1.609636766448555,-1.1548183832242773,1.8992735328971095
29.263999999999996,-1.6096161574527281,-1.154808078726364,1.8992323149054562
29.283999999999995,-1.6095955484569016,-1.1547977742284505,1.8991910969138028
29.303999999999995,-1.6095749394610748,-1.1547874697305374,1.8991498789221495
29.323999999999998,-1.6095543304652482,-1.154777165232624,1.8991086609304961
29.343999999999998,-1.6095337214694214,-1.1547668607347106,1.8990674429388428
29.363999999999997,-1.6095131124735949,-1.1547565562367972,1.8990262249471894
29.383999999999997,-1.609492503477768,-1.154746251738884,1.898985006955536
29.403999999999996,-1.6094718944819415,-1.1547359472409706,1.8989437889638827
29.423999999999996,-1.6094512854861147,-1.1547256427430572,1.8989025709722294
29.443999999999996,-1.6094306764902881,-1.1547153382451438,1.898861352980576
29.463999999999995,-1.6094100674944614,-1.1547050337472307,1.8988201349889227
29.483999999999995,-1.6093894584986348,-1.1546947292493173,1.8987789169972693
29.503999999999998,-1.609368849502808,-1.1546844247514039,1.898737699005616
29.523999999999997,-1.6093482405069814,-1.1546741202534905,1.8986964810139626
29.543999999999997,-1.6093276315111547,-1.1546638157555773,1.8986552630223092
29.563999999999997,-1.609307022515328,-1.154653511257664,1.898614045030656
29.583999999999996,-1.6092864135195013,-1.1546432067597505,1.8985728270390025
29.603999999999996,-1.6092658045236747,-1.1546329022618371,1.8985316090473492
29.623999999999995,-1.609245195527848,-1.154622597763924,1.8984903910556958
29.643999999999995,-1.6092245865320214,-1.1546122932660106,1.8984491730640425
29.663999999999998,-1.6092039775361946,-1.1546019887680972,1.898407955072389
29.683999999999997,-1.609183368540368,-1.1545916842701838,1.8983667370807356
29.703999999999997,-1.6091627595445412,-1.1545813797722706,1.8983255190890822
29.723999999999997,-1.6091421505487147,-1.1545710752743572,1.8982843010974289
29.743999999999996,-1.609121541552888,-1.1545607707764438,1.8982430831057755
29.763999999999996,-1.6091009325570613,-1.1545504662785304,1.8982018651141221
29.783999999999995,-1.6090803235612345,-1.1545401617806172,1.8981606471224688
29.803999999999995,-1.609059714565408,-1.1545298572827039,1.8981194291308154
29.823999999999998,-1.6090391055695812,-1.1545195527847905,1.898078211139162
29.843999999999998,-1.6090184965737546,-1.154509248286877,1.8980369931475087
29.863999999999997,-1.6089978875779278,-1.154498943788964,1.8979957751558554
29.883999999999997,-1.6089772785821013,-1.1544886392910505,1.897954557164202
29.903999999999996,-1.6089566695862745,-1.154478334793137,1.8979133391725487
29.923999999999996,-1.608936060590448,-1.1544680302952237,1.8978721211808953
29.943999999999996,-1.6089154515946211,-1.1544577257973105,1.897830903189242
29.963999999999995,-1.6088948425987946,-1.1544474212993971,1.8977896851975886
29.983999999999995,-1.6088742336029678,-1.1544371168014838,1.8977484672059353
30.003999999999998,-1.6088536246071412,-1.1544268123035704,1.897707249214282
30.023999999999997,-1.6088330156113144,-1.1544165078056572,1.8976660312226286
30.043999999999997,-1.6088124066154879,-1.1544062033077438,1.8976248132309752
30.063999999999997,-1.608791797619661,-1.1543958988098304,1.8975835952393219
30.083999999999996,-1.6087711886238345,-1.154385594311917,1.8975423772476685
30.103999999999996,-1.6087505796280077,-1.1543752898140038,1.8975011592560151
30.123999999999995,-1.6087299706321811,-1.1543649853160904,1.8974599412643618
30.143999999999995,-1.6087093616363544,-1.154354680818177,1.8974187232727084
30.163999999999998,-1.6086887526405278,-1.1543443763202637,1.897377505281055
30.183999999999997,-1.608668143644701,-1.1543340718223503,1.8973362872894017
30.203999999999997,-1.6086475346488742,-1.154323767324437,1.8972950692977484
30.223999999999997,-1.6086269256530477,-1.1543134628265237,1.897253851306095
30.243999999999996,-1.6086063166572209,-1.1543031583286103,1.8972126333144417
30.263999999999996,-1.6085857076613943,-1.154292853830697,1.8971714153227883
30.283999999999995,-1.6085650986655675,-1.1542825493327837,1.897130197331135
30.303999999999995,-1.608544489669741,-1.1542722448348703,1.8970889793394816
30.323999999999995,-1.6085238806739142,-1.154261940336957,1.8970477613478283
30.343999999999998,-1.6085032716780876,-1.1542516358390436,1.897006543356175
30.363999999999997,-1.6084826626822608,-1.1542413313411304,1.8969653253645216
30.383999999999997,-1.6084620536864342,-1.154231026843217,1.8969241073728682
30.403999999999996,-1.6084414446906075,-1.1542207223453036,1.8968828893812149
30.423999999999996,-1.608420835694781,-1.1542104178473902,1.8968416713895615
30.443999999999996,-1.608400226698954,-1.154200113349477,1.8968004533979081
30.463999999999995,-1.6083796177031275,-1.1541898088515636,1.8967592354062548
30.483999999999995,-1.6083590087073008,-1.1541795043536502,1.8967180174146014
30.503999999999998,-1.6083383997114742,-1.1541691998557368,1.896676799422948
30.523999999999997,-1.6083177907156474,-1.1541588953578237,1.8966355814312947
30.543999999999997,-1.6082971817198208,-1.1541485908599103,1.8965943634396414
30.563999999999997,-1.608276572723994,-1.154138286361997,1.896553145447988
30.583999999999996,-1.6082559637281675,-1.1541279818640835,1.8965119274563347
30.603999999999996,-1.6082353547323407,-1.1541176773661703,1.8964707094646813
30.623999999999995,-1.6082147457365141,-1.154107372868257,1.896429491473028
30.643999999999995,-1.6081941367406873,-1.1540970683703435,1.8963882734813746
30.663999999999998,-1.6081735277448608,-1.1540867638724301,1.8963470554897213
30.683999999999997,-1.608152918749034,-1.154076459374517,1.896305837498068
30.703999999999997,-1.6081323097532074,-1.1540661548766036,1.8962646195064146
30.723999999999997,-1.6081117007573806,-1.1540558503786902,1.8962234015147612
30.743999999999996,-1.608091091761554,-1.1540455458807768,1.8961821835231079
30.763999999999996,-1.6080704827657273,-1.1540352413828636,1.8961409655314543
30.783999999999995,-1.6080498737699007,-1.1540249368849502,1.896099747539801
30.803999999999995,-1.608029264774074,-1.1540146323870368,1.8960585295481476
30.823999999999995,-1.6080086557782474,-1.1540043278891234,1.8960173115564942
30.843999999999998,-1.6079880467824206,-1.1539940233912103,1.8959760935648409
30.863999999999997,-1.607967437786594,-1.1539837188932969,1.8959348755731875
30.883999999999997,-1.6079468287907672,-1.1539734143953835,1.8958936575815342
30.903999999999996,-1.6079262197949407,-1.15396310989747,1.8958524395898808
30.923999999999996,-1.6079056107991139,-1.153952805399557,1.8958112215982275
30.943999999999996,-1.6078850018032873,-1.1539425009016435,1.895770003606574
30.963999999999995,-1.6078643928074605,-1.1539321964037301,1.8957287856149208
30.983999999999995,-1.607843783811634,-1.1539218919058167,1.8956875676232674
31.003999999999998,-1.6078231748158072,-1.1539115874079036,1.895646349631614
31.023999999999997,-1.6078025658199806,-1.1539012829099902,1.8956051316399607
31.043999999999997,-1.6077819568241538,-1.1538909784120768,1.8955639136483073
31.063999999999997,-1.6077613478283272,-1.1538806739141634,1.895522695656654
31.083999999999996,-1.6077407388325005,-1.1538703694162502,1.8954814776650006
31.103999999999996,-1.607720129836674,-1.1538600649183368,1.8954402596733473
31.123999999999995,-1.607699520840847,-1.1538497604204234,1.895399041681694
31.143999999999995,-1.6076789118450205,-1.15383945592251,1.8953578236900406
31.163999999999998,-1.6076583028491938,-1.1538291514245969,1.8953166056983872
31.183999999999997,-1.6076376938533672,-1.1538188469266835,1.8952753877067339
31.203999999999997,-1.6076170848575404,-1.15380854242877,1.8952341697150805
31.223999999999997,-1.6075964758617138,-1.1537982379308567,1.8951929517234272
31.243999999999996,-1.607575866865887,-1.1537879334329435,1.8951517337317738
31.263999999999996,-1.6075552578700605,-1.15377762893503,1.8951105157401205
31.283999999999995,-1.6075346488742337,-1.1537673244371167,1.895069297748467
31.303999999999995,-1.6075140398784071,-1.1537570199392033,1.8950280797568138
31.323999999999995,-1.6074934308825803,-1.1537467154412901,1.8949868617651604
31.343999999999998,-1.6074728218867536,-1.1537364109433768,1.894945643773507
31.363999999999997,-1.607452212890927,-1.1537261064454634,1.8949044257818537
31.383999999999997,-1.6074316038951002,-1.15371580194755,1.8948632077902003
31.403999999999996,-1.6074109948992736,-1.1537054974496366,1.894821989798547
31.423999999999996,-1.6073903859034468,-1.1536951929517234,1.8947807718068936
31.443999999999996,-1.6073697769076203,-1.15368488845381,1.8947395538152403
31.463999999999995,-1.6073491679117935,-1.1536745839558966,1.894698335823587
31.483999999999995,-1.607328558915967,-1.1536642794579832,1.8946571178319336
31.503999999999998,-1.6073079499201401,-1.15365397496007,1.8946158998402802
31.523999999999997,-1.6072873409243136,-1.1536436704621567,1.8945746818486269
31.543999999999997,-1.6072667319284868,-1.1536333659642433,1.8945334638569735
31.563999999999997,-1.6072461229326602,-1.1536230614663299,1.8944922458653202
31.583999999999996,-1.6072255139368334,-1.1536127569684167,1.8944510278736668
31.603999999999996,-1.6072049049410069,-1.1536024524705033,1.8944098098820135
31.623999999999995,-1.60718429594518,-1.15359214797259,1.89436859189036
31.643999999999995,-1.6071636869493535,-1.1535818434746765,1.8943273738987068
31.663999999999994,-1.6071430779535267,-1.1535715389767633,1.8942861559070534
31.683999999999997,-1.6071224689577002,-1.15356123447885,1.8942449379154
31.703999999999997,-1.6071018599618734,-1.1535509299809366,1.8942037199237467
31.723999999999997,-1.6070812509660468,-1.1535406254830232,1.8941625019320933
31.743999999999996,-1.60706064197022,-1.15353032098511,1.89412128394044
31.763999999999996,-1.6070400329743935,-1.1535200164871966,1.8940800659487866
31.783999999999995,-1.6070194239785667,-1.1535097119892832,1.8940388479571333
31.803999999999995,-1.60699881498274,-1.1534994074913698,1.89399762996548
31.823999999999995,-1.6069782059869133,-1.1534891029934566,1.8939564119738266
31.843999999999998,-1.6069575969910868,-1.1534787984955432,1.8939151939821732
31.863999999999997,-1.60693698799526,-1.1534684939976299,1.8938739759905199
31.883999999999997,-1.6069163789994334,-1.1534581894997165,1.8938327579988665
31.903999999999996,-1.6068957700036066,-1.1534478850018033,1.893791540007213
31.923999999999996,-1.60687516100778,-1.15343758050389,1.8937503220155596
31.943999999999996,-1.6068545520119533,-1.1534272760059765,1.8937091040239062
31.963999999999995,-1.6068339430161267,-1.153416971508063,1.893667886032253
31.983999999999995,-1.6068133340203,-1.15340666701015,1.8936266680405995
32.004,-1.6067927250244733,-1.1533963625122365,1.8935854500489462
32.023999999999994,-1.6067721160286466,-1.1533860580143231,1.8935442320572928
32.044,-1.60675150703282,-1.1533757535164098,1.8935030140656395
32.06399999999999,-1.6067308980369932,-1.1533654490184966,1.8934617960739861
32.083999999999996,-1.6067102890411666,-1.1533551445205832,1.8934205780823328
32.104,-1.6066896800453399,-1.1533448400226698,1.8933793600906794
32.123999999999995,-1.6066690710495133,-1.1533345355247564,1.893338142099026
32.144,-1.6066484620536865,-1.1533242310268432,1.8932969241073727
32.163999999999994,-1.60662785305786,-1.1533139265289298,1.8932557061157194
32.184,-1.6066072440620331,-1.1533036220310164,1.893214488124066
32.20399999999999,-1.6065866350662066,-1.153293317533103,1.8931732701324127
32.224,-1.6065660260703798,-1.1532830130351899,1.8931320521407593
32.24399999999999,-1.6065454170745532,-1.1532727085372765,1.893090834149106
32.263999999999996,-1.6065248080787264,-1.153262404039363,1.8930496161574526
32.284,-1.6065041990828999,-1.1532520995414497,1.8930083981657992
32.303999999999995,-1.606483590087073,-1.1532417950435365,1.892967180174146
32.324,-1.6064629810912465,-1.1532314905456231,1.8929259621824925
32.343999999999994,-1.6064423720954197,-1.1532211860477097,1.8928847441908392
32.364,-1.6064217630995932,-1.1532108815497963,1.8928435261991858
32.38399999999999,-1.6064011541037664,-1.1532005770518832,1.8928023082075325
32.403999999999996,-1.6063805451079398,-1.1531902725539698,1.8927610902158791
32.424,-1.606359936112113,-1.1531799680560564,1.8927198722242258
32.443999999999996,-1.6063393271162865,-1.153169663558143,1.8926786542325724
32.464,-1.6063187181204597,-1.1531593590602296,1.892637436240919
32.483999999999995,-1.6062981091246331,-1.1531490545623164,1.8925962182492657
32.504,-1.6062775001288063,-1.153138750064403,1.8925550002576124
32.523999999999994,-1.6062568911329795,-1.1531284455664896,1.892513782265959
32.544,-1.606236282137153,-1.1531181410685762,1.8924725642743057
32.56399999999999,-1.6062156731413262,-1.153107836570663,1.8924313462826523
32.583999999999996,-1.6061950641454996,-1.1530975320727497,1.892390128290999
32.604,-1.6061744551496728,-1.1530872275748363,1.8923489102993456
32.623999999999995,-1.6061538461538463,-1.1530769230769229,1.8923076923076922
32.644,-1.6061332371580195,-1.1530666185790097,1.892266474316039
32.663999999999994,-1.606112628162193,-1.1530563140810963,1.8922252563243855
32.684,-1.6060920191663661,-1.153046009583183,1.8921840383327322
32.70399999999999,-1.6060714101705396,-1.1530357050852695,1.8921428203410788
32.724,-1.6060508011747128,-1.1530254005873564,1.8921016023494255
32.74399999999999,-1.6060301921788862,-1.153015096089443,1.8920603843577721
32.763999999999996,-1.6060095831830594,-1.1530047915915296,1.8920191663661188
32.784,-1.6059889741872329,-1.1529944870936162,1.8919779483744654
32.803999999999995,-1.605968365191406,-1.152984182595703,1.891936730382812
