timestamp,gyro_x,gyro_y,gyro_z
0.017,0.36,0.68,0.14
0.037000000000000005,0.212,0.06199999999999994,0.0
0.05700000000000001,0.13999999999999993,-0.4600000000000002,-0.03500000000000003
0.07700000000000001,-0.06500000000000021,-0.71,-0.15500000000000008
0.09700000000000002,-0.2500000000000003,-0.5499999999999994,-0.17
0.11700000000000002,-0.28,-0.17333333333333303,-0.06666666666666651
0.137,-0.195,0.07,0.01
0.15700000000000003,-0.06999999999999972,0.2700000000000003,-0.09333333333333352
0.17700000000000005,0.06,0.33999999999999836,-0.2500000000000011
0.19700000000000006,-0.0433333333333337,-0.43666666666666903,-0.44666666666666743
0.21700000000000003,-0.12,-1.0050000000000001,-0.6750000000000002
0.23700000000000004,-0.15,-1.2000000000000006,-0.5999999999999994
0.25700000000000006,-0.25000000000000056,-1.2799999999999994,-0.34999999999999887
0.2770000000000001,-0.44000000000000056,-0.9866666666666657,-0.11333333333333315
0.29700000000000004,-0.6666666666666669,-0.5099999999999978,-0.2133333333333337
0.31700000000000006,-0.6699999999999995,-0.03999999999999556,-0.2800000000000017
0.3370000000000001,-0.5599999999999994,0.13499999999999918,-0.29999999999999943
0.3570000000000001,-0.4166666666666659,0.2900000000000022,-0.09333333333333185
0.3770000000000001,-0.3600000000000004,0.9300000000000026,0.34000000000000186
0.3970000000000001,-0.4200000000000011,1.1700000000000021,0.5100000000000017
0.4170000000000001,-0.56,1.2789473684210526,0.67
0.4370000000000001,-0.48333333333333295,1.0333333333333319,0.5599999999999989
0.4570000000000001,-0.3499999999999994,0.7299999999999989,0.2599999999999989
0.4770000000000001,-0.0999999999999989,0.4899999999999989,-7.40148683083437e-16
0.4970000000000001,0.12000000000000333,0.30999999999999667,-0.07
0.5170000000000001,0.3100000000000011,0.06999999999999779,-0.1
0.5370000000000001,0.38,-0.22000000000000222,-0.15
0.5570000000000002,0.4500000000000004,-0.4800000000000007,-0.11999999999999962
0.5770000000000001,0.5566666666666671,-0.680000000000001,-0.03666666666666593
0.5970000000000001,0.5849999999999994,-0.9800000000000022,0.05
0.6170000000000001,0.5289999999999999,-1.0810000000000002,0.04
0.6370000000000001,-0.013333333333335185,-1.286666666666667,-0.08666666666666703
0.6570000000000001,-0.3600000000000007,-1.2399999999999993,-0.03999999999999963
0.6770000000000002,-0.5800000000000011,-1.096666666666666,0.02
0.6970000000000002,-0.6881250000000003,-1.040625,0.02
0.7170000000000002,-0.9866666666666674,-0.8033333333333327,0.0
0.7370000000000002,-0.99,-0.6599999999999986,0.03
0.7570000000000001,-1.1100000000000012,-0.5600000000000004,0.13000000000000037
0.7770000000000001,-1.3033333333333341,-0.636666666666667,0.3100000000000011
0.7970000000000002,-1.433333333333334,-0.7666666666666682,0.5233333333333341
0.8170000000000002,-1.45,-1.1700000000000044,0.6666666666666682
0.8370000000000002,-1.4900000000000015,-1.620000000000003,0.8700000000000022
0.8570000000000002,-1.6633333333333347,-1.7966666666666675,0.9133333333333327
0.8770000000000002,-1.9100000000000021,-1.659999999999997,0.9300000000000008
0.8970000000000001,-2.190000000000001,-1.2499999999999987,1.0200000000000005
0.9170000000000001,-2.393333333333334,-0.9199999999999989,1.133333333333334
0.9370000000000002,-2.6250000000000027,-0.82,1.1549999999999991
0.9570000000000002,-2.9400000000000035,-0.659999999999997,0.9799999999999985
0.9770000000000002,-3.2200000000000015,-0.3999999999999985,0.8099999999999986
0.9970000000000002,-3.29,-0.32,0.7166666666666659
1.0170000000000001,-3.24,-0.4050000000000005,0.6149999999999994
1.0370000000000001,-3.209999999999999,-0.4199999999999989,0.51
1.0570000000000002,-2.999999999999997,-0.38,0.6200000000000014
1.0770000000000002,-2.5799999999999947,-0.520000000000003,0.8200000000000014
1.0970000000000002,-1.9299999999999926,-0.6999999999999985,0.9700000000000014
1.1170000000000002,-1.0999999999999879,-0.2999999999999933,1.2000000000000044
1.137,-0.36,0.16,1.49
1.157,-0.22,0.44,1.4
1.177,-0.24,0.84,1.35
1.197,0.16750000000000248,1.532500000000003,1.4350000000000005
1.217,1.13,2.49,1.71
1.237,1.9400000000000022,3.0400000000000005,1.82
1.2570000000000001,2.5400000000000067,2.829999999999989,1.940000000000001
1.2770000000000001,3.0800000000000076,1.8699999999999846,1.990000000000001
1.2970000000000002,3.4100000000000157,0.9199999999999467,2.0200000000000022
1.3170000000000002,4.130000000000005,-1.8300000000000156,2.1099999999999985
1.3370000000000002,4.650000000000003,-2.820000000000003,1.759999999999995
1.3570000000000002,4.629999999999994,-2.7399999999999913,1.16999999999999
1.3770000000000002,4.069999999999993,-1.8699999999999897,0.36999999999999555
1.3970000000000002,3.5699999999999865,-1.1399999999999832,0.1999999999999989
1.4170000000000003,2.169999999999989,-0.20999999999999888,-0.09000000000000333
1.4370000000000003,1.6099999999999957,-0.07999999999999667,-0.3100000000000111
1.4570000000000003,1.58,0.88000000000002,-1.6400000000000154
1.477,1.4399999999999988,0.7274999999999936,-1.6124999999999954
1.497,1.3395454545454544,-0.054090909090910466,-0.9327272727272714
1.5170000000000001,1.0724999999999987,-2.6625000000000068,1.0425000000000009
1.5370000000000001,0.7399999999999944,-3.9600000000000133,1.2600000000000044
1.5570000000000002,0.3999999999999978,-3.869999999999989,1.8600000000000134
1.5770000000000002,0.4700000000000033,-3.730000000000011,2.9200000000000155
1.5970000000000002,0.6000000000000003,-4.360000000000002,4.090000000000004
1.6170000000000002,0.6933333333333335,-3.951666666666667,5.066666666666667
1.6370000000000002,1.3400000000000045,-6.150000000000045,5.189999999999991
1.6570000000000003,1.2233333333333265,-8.336666666666686,4.506666666666659
1.6770000000000003,1.440000000000017,-8.269999999999989,4.380000000000007
1.6970000000000003,3.917500000000016,-4.54749999999994,5.847500000000019
1.7170000000000003,3.5849999999999906,1.1100000000000299,7.5800000000000125
1.7370000000000003,1.0799999999999943,2.807500000000005,9.082500000000001
1.7570000000000003,0.7466666666666611,3.124166666666672,9.165833333333335
1.7770000000000001,-4.16636363636364,6.310909090909091,6.979090909090905
1.7970000000000002,-5.1606382978723415,6.909787234042554,4.878723404255318
1.8170000000000002,-5.232978723404256,6.952340425531916,4.734042553191488
1.8370000000000002,-6.013333333333342,7.613333333333343,3.326666666666653
1.8570000000000002,-6.849999999999977,7.299999999999954,-0.9400000000000466
1.8770000000000002,-5.481538461538458,4.846153846153841,-2.7846153846153863
1.8970000000000002,-4.629999999999996,3.9716666666666596,-2.876666666666668
1.9170000000000003,-4.590000000000009,2.049999999999962,-3.250000000000009
1.9370000000000003,-5.050000000000003,1.0266666666666597,-3.339999999999997
1.9570000000000003,-5.160000000000002,1.1150000000000029,-3.1749999999999994
1.9770000000000003,-5.520000000000004,2.130000000000013,-3.0499999999999976
1.9970000000000003,-5.800000000000003,2.95000000000001,-2.930000000000001
2.0170000000000003,-5.910000000000003,3.3333333333333313,-3.1666666666666687
2.0370000000000004,-6.11,3.4620000000000037,-3.129999999999998
2.0570000000000004,-5.909999999999996,4.65000000000012,-2.8600000000000043
2.0770000000000004,-5.649999999999996,6.5299999999999905,-2.8299999999999903
2.0970000000000004,-3.963333333333302,6.960000000000044,-0.21999999999995265
2.1170000000000004,0.2800000000001466,8.860000000000044,3.9600000000001
2.1370000000000005,5.140000000000142,9.24999999999995,5.920000000000013
2.1570000000000005,10.943333333333438,6.893333333333291,5.563333333333313
2.1770000000000005,15.63600000000007,4.431999999999946,3.8559999999999643
2.1970000000000005,18.010000000000016,2.0799999999999774,2.229999999999982
2.2170000000000005,19.039999999999996,-0.31000000000015543,0.4999999999999245
2.2370000000000005,17.945294117647055,-1.0070588235294116,-0.47411764705882675
2.257,17.213571428571424,-1.1150000000000013,-0.9164285714285738
2.277,15.279999999999987,-1.2174999999999991,-1.33
2.297,2.04666666666663,2.5500000000000416,3.3500000000000263
2.317,-0.03500000000001665,4.515000000000012,5.780000000000036
2.337,-0.83500000000001,4.309999999999993,7.930000000000025
2.357,-1.7625000000000108,3.572499999999974,8.637499999999996
2.3770000000000002,-2.835000000000017,0.9399999999999844,7.719999999999985
2.3970000000000002,-4.113333333333352,0.8266666666666805,6.963333333333326
2.4170000000000003,-6.045000000000026,1.5600000000000156,6.2949999999999875
2.4370000000000003,-7.655000000000019,0.8049999999999478,5.784999999999994
2.4570000000000003,-7.449999999999978,-2.7250000000000414,5.234999999999994
2.4770000000000003,-5.079999999999979,-2.279999999999978,4.639999999999993
2.4970000000000003,-3.770000000000049,0.5100000000001199,2.809999999999889
2.5170000000000003,-6.183333333333373,1.0233333333333372,1.1499999999999821
2.5370000000000004,-9.080000000000071,1.8100000000000178,-0.8600000000000622
2.5570000000000004,-10.77333333333334,2.2600000000000087,-2.2100000000000057
2.5770000000000004,-10.449999999999969,2.910000000000009,-2.3249999999999975
2.5970000000000004,-8.709999999999937,2.719999999999982,-2.420000000000009
2.6170000000000004,-6.244999999999932,1.68999999999996,-3.0500000000000265
2.6370000000000005,-4.009999999999951,-0.1250000000000555,-4.175000000000029
2.6570000000000005,-2.8299999999999823,-1.5600000000000178,-4.88000000000001
2.6770000000000005,-2.6650000000000023,-1.2499999999999512,-4.674999999999976
2.6970000000000005,-2.5549999999999886,0.5950000000000955,-3.6649999999999485
2.7170000000000005,-3.6150000000000464,3.915000000000069,-1.8349999999999622
2.7370000000000005,-4.449999999999991,4.776666666666683,-1.4033333333333302
2.7570000000000006,-2.9799999999998756,6.790000000000124,-0.6699999999999245
2.7770000000000006,-0.11249999999991646,8.855000000000036,0.7900000000000389
2.7970000000000006,3.77500000000017,9.55,2.56500000000005
2.8170000000000006,8.280000000000193,9.64500000000001,3.48
2.8370000000000006,12.260000000000119,7.989999999999867,2.334999999999897
2.8570000000000007,14.160000000000027,6.5199999999999925,-0.150000000000037
2.8770000000000007,14.736666666666649,5.913333333333321,-0.9433333333333136
2.8970000000000007,13.1599999999999,5.6299999999999795,0.9400000000001066
2.9170000000000003,10.366666666666625,5.32,2.8533333333333464
2.9370000000000003,6.083333333333272,4.409999999999976,3.6300000000000057
2.9570000000000003,1.4099999999999535,1.9599999999999866,3.7550000000000057
2.9770000000000003,-0.27500000000000335,3.3000000000000336,4.87500000000003
2.9970000000000003,-0.3457142857142871,4.642857142857145,6.74285714285715
3.0170000000000003,-3.260000000000071,4.716666666666677,7.579999999999982
3.0370000000000004,-7.810000000000133,3.4799999999999023,5.854999999999971
3.0570000000000004,-11.44000000000007,1.079999999999938,5.225000000000002
3.0770000000000004,-11.944999999999961,0.48499999999999777,5.299999999999995
3.0970000000000004,-9.836666666666623,-1.0400000000000489,4.459999999999964
3.1170000000000004,-7.143333333333293,-3.1566666666666774,2.2799999999999794
3.1370000000000005,-3.999999999999911,-3.2549999999999177,1.1349999999999845
3.1570000000000005,-3.2466666666667052,-0.5733333333332726,0.8066666666666519
3.1770000000000005,-6.674000000000056,1.6120000000000254,-0.200000000000016
3.1970000000000005,-9.67500000000002,2.6000000000000396,-1.7150000000000467
3.2170000000000005,-9.602500000000001,2.922499999999981,-3.455000000000022
3.2370000000000005,-9.064999999999962,1.1299999999999821,-5.200000000000018
3.2570000000000006,-8.379999999999907,0.9399999999999777,-5.2999999999999865
3.2770000000000006,-6.41999999999998,-0.73500000000003,-4.374999999999977
3.2970000000000006,-6.1049999999999836,-0.44499999999995005,-4.1750000000000105
3.3170000000000006,-4.9799999999999205,0.5699999999999934,-3.97999999999996
3.3370000000000006,-2.9299999999999584,-1.1533333333333846,-2.9333333333333136
3.3570000000000007,-2.0099999999999865,-1.2799999999999199,-2.2399999999999602
3.3770000000000007,-2.025000000000003,2.2400000000001867,-0.6899999999999467
3.3970000000000007,-2.30500000000001,5.62000000000012,0.39000000000004
3.4170000000000007,-1.2766666666665976,8.536666666666715,1.2100000000000237
3.4370000000000007,3.2533333333334675,9.703333333333344,3.000000000000059
3.4570000000000007,8.160000000000107,8.649999999999942,4.900000000000017
3.4770000000000008,11.960000000000099,7.380000000000015,3.929999999999947
3.4970000000000008,13.780000000000022,7.9600000000000115,3.0599999999999854
3.517000000000001,13.593333333333304,7.296666666666616,2.416666666666634
3.5370000000000004,13.094000000000003,6.483999999999995,1.8860000000000021
3.5570000000000004,12.859999999999964,3.064999999999878,2.9950000000000023
3.5770000000000004,10.989999999999965,0.7299999999999778,1.2633333333332963
3.5970000000000004,9.083333333333297,0.23333333333334963,-0.1166666666666726
3.6170000000000004,6.933333333333292,1.4366666666666859,0.773333333333363
3.6370000000000005,4.963333333333296,1.7733333333333254,2.3800000000000354
3.6570000000000005,3.7799999999999736,0.9799999999999867,3.6000000000000267
3.6770000000000005,2.859999999999984,0.9140000000000033,4.1480000000000015
3.6970000000000005,1.4349999999999534,1.1749999999999976,3.954999999999998
3.7170000000000005,-0.6433333333333906,1.22,4.290000000000018
3.7370000000000005,-3.0966666666667337,0.5633333333332899,4.703333333333338
3.7570000000000006,-4.7200000000001685,-0.00999999999999556,4.790000000000009
3.7770000000000006,-7.653333333333348,3.326666666666728,4.899999999999994
3.7970000000000006,-7.491999999999983,3.611999999999969,4.267999999999982
3.8170000000000006,-6.196666666666633,0.29666666666658575,3.3699999999999823
3.8370000000000006,-4.89999999999997,-0.03999999999994672,3.009999999999994
3.8570000000000007,-4.109999999999994,0.8366666666666331,2.3033333333333137
3.8770000000000007,-5.040000000000036,-2.4000000000000714,1.4139999999999873
3.8970000000000007,-7.250000000000053,-4.980000000000045,1.2199999999999867
3.9170000000000007,-8.107999999999995,-2.8759999999999275,0.46599999999997727
3.9370000000000007,-6.339999999999935,-0.6566666666666627,-1.3133333333333728
3.9570000000000007,-3.9933333333332897,-1.4033333333333609,-2.4666666666666806
3.9770000000000008,-3.0266666666666566,-2.283333333333349,-2.683333333333337
3.9970000000000008,-2.9150000000000005,-2.46,-2.7650000000000006
4.017000000000001,-3.29000000000003,-1.9199999999999555,-2.7833333333333283
4.037000000000001,-3.9100000000000357,-1.3099999999999556,-2.9450000000000136
4.057000000000001,-4.613333333333372,-0.14666666666653838,-3.1066666666666714
4.077000000000001,-5.020000000000004,1.5300000000000267,-2.9399999999999644
4.097000000000001,-4.416666666666598,2.3000000000000296,-2.2766666666666566
4.117000000000001,-2.4066666666666032,3.6666666666667336,-2.193333333333326
4.137000000000001,0.1200000000002398,7.380000000000386,-1.6749999999999932
4.157000000000001,3.420000000000204,10.175000000000084,-1.9000000000000177
4.177000000000001,6.2900000000001866,10.124999999999767,-1.8499999999999734
4.197000000000001,7.700000000000036,7.899999999999888,-1.2899999999999794
4.217000000000001,8.873333333333417,6.440000000000103,-0.413333333333284
4.237000000000001,8.623333333333338,4.66333333333329,0.866666666666716
4.2570000000000014,7.959999999999396,2.7299999999990052,2.1600000000005863
4.277000000000001,3.9033333333332463,0.7866666666666113,2.5933333333332227
4.2970000000000015,3.6799999999999913,0.810000000000231,1.8600000000000179
4.317000000000001,2.0466666666665403,4.223333333333507,2.3700000000000476
4.3370000000000015,-0.3566666666667752,6.283333333333372,3.6233333333333877
4.357000000000001,-0.20999999999992597,4.609999999999882,3.6999999999999615
4.377000000000002,1.7500000000000568,1.6399999999999182,2.859999999999989
4.397000000000001,1.9599999999999407,0.9100000000000148,2.910000000000015
4.417000000000002,-0.16000000000017767,1.706666666666731,2.969999999999985
4.437000000000001,-3.130000000000163,2.6833333333334024,2.3633333333332693
4.457000000000002,-5.320000000000101,2.409999999999929,0.8499999999998875
4.477000000000001,-6.200000000000018,1.9600000000000117,-0.3000000000000207
4.497000000000001,-6.349999999999999,2.069999999999999,-0.5150000000000019
4.517000000000001,-6.240000000000007,0.5599999999999512,-0.7800000000000067
4.537000000000001,-6.7900000000000444,-0.8400000000000222,-0.9700000000000044
4.557000000000001,-6.919999999999973,0.33000000000003554,-1.1200000000000208
4.577000000000001,-6.129999999999994,-1.450000000000145,-2.2400000000000624
4.597000000000001,-6.660000000000029,-4.560000000000046,-3.7000000000000197
4.617000000000001,-7.329999999999999,-3.1499999999999964,-4.530000000000001
4.637000000000001,-7.313999999999999,-3.065199999999994,-4.5428000000000015
4.657000000000001,-7.297999999999999,-2.980399999999996,-4.555600000000001
4.677000000000001,-7.281999999999999,-2.895599999999994,-4.568400000000001
4.697000000000001,-7.265999999999999,-2.810799999999996,-4.581200000000001
4.717000000000001,-7.249999999999999,-2.725999999999994,-4.594000000000001
4.737000000000001,-7.234,-2.641199999999996,-4.606800000000001
4.7570000000000014,-4.739999999999201,-0.5300000000000356,-4.579999999999911
4.777000000000001,-1.150000000000222,-3.6999999999998314,-2.009999999999893
4.7970000000000015,-3.5700000000001686,-1.5299999999997957,-1.1900000000000177
4.817000000000001,-4.449999999999982,-0.07999999999993339,-1.7200000000000444
4.8370000000000015,-3.1699999999998343,1.020000000000071,-2.6000000000000654
4.857000000000001,-0.6699999999998846,2.380000000000083,-3.139999999999988
4.877000000000002,2.400000000000219,3.9500000000001125,-2.1899999999998934
4.897000000000001,5.190000000000129,5.0300000000000225,-1.1899999999999866
4.917000000000002,7.210000000000169,5.680000000000062,-1.6100000000001156
4.937000000000001,8.370000000000013,5.970000000000056,-2.3200000000000176
4.957000000000002,8.410000000000098,7.450000000000045,-2.7499999999999556
4.977000000000001,8.729999999999906,4.649999999999823,-0.6599999999998357
4.997000000000002,6.289999999999734,4.350000000000204,0.5599999999998846
5.017000000000001,4.659999999999985,5.22999999999998,-0.9800000000000503
5.037000000000002,4.622876106194691,4.847345132743362,-1.404601769911505
5.057000000000001,4.627300884955752,4.827876106194689,-1.411681415929204
5.077000000000002,4.631725663716814,4.808407079646016,-1.418761061946903
5.097000000000001,4.636150442477876,4.788938053097344,-1.425840707964602
5.117000000000002,4.640575221238938,4.769469026548671,-1.4329203539823014
5.137000000000001,4.6450000000000005,4.749999999999999,-1.4400000000000004
5.157000000000001,4.6494247787610625,4.730530973451327,-1.4470796460176993
5.177000000000001,4.653849557522125,4.711061946902653,-1.4541592920353987
5.197000000000001,4.658274336283186,4.6915929203539815,-1.4612389380530977
5.217000000000001,4.662699115044248,4.672123893805308,-1.4683185840707969
5.237000000000001,4.66712389380531,4.652654867256636,-1.4753982300884958
5.2570000000000014,4.804285714285731,4.18999999999995,-1.537142857142859
5.277000000000001,5.5199999999999285,0.4099999999999378,-0.7299999999999289
5.2970000000000015,-4.229999999999592,-0.3700000000003375,6.459999999999982
5.317000000000001,-1.83000000000012,-3.909999999999947,5.730000000000076
5.3370000000000015,-5.230000000000462,-1.0199999999994405,6.349999999999813
5.357000000000001,-8.000000000000009,2.866153846153862,3.696538461538443
5.377000000000002,-8.200000000000015,3.2507692307692584,3.242692307692275
5.397000000000001,-4.389999999999844,1.3899999999999155,-0.18999999999998224
5.417000000000002,-1.9733333333332197,0.1966666666666025,-0.2633333333333679
5.437000000000001,-0.59333333333329,-0.7600000000000592,-0.943333333333361
5.457000000000002,-0.049999999999985195,-1.9100000000000592,-1.3133333333333383
5.477000000000001,-0.20666666666669825,-2.8000000000000353,-1.3333333333333492
5.497000000000002,-1.2766666666667652,-2.653333333333279,-1.1566666666666172
5.517000000000001,-2.9700000000001023,-1.2399999999999023,0.1500000000000755
5.537000000000002,-4.38800000000007,0.5640000000000742,0.6479999999999726
5.557000000000001,-5.860000000000049,1.930000000000062,-1.0600000000001555
5.577000000000002,-4.889999999999772,4.66666666666695,-3.4733333333334855
5.597000000000001,-1.136666666666426,6.736666666666663,-4.866666666666722
5.617000000000002,3.8200000000005327,5.829999999999876,-5.740000000000116
5.637000000000001,7.630000000000266,5.009999999999911,-6.920000000000142
5.657000000000002,8.862499999999985,4.105000000000009,-7.752500000000025
5.677000000000001,7.899999999999938,5.310000000000213,-8.119999999999973
5.697000000000002,8.03,4.899999999999939,-6.3376923076922145
5.717000000000001,5.804999999999754,3.4549999999999934,-2.66000000000004
5.737000000000002,3.1749999999998835,4.110000000000094,-3.09
5.7570000000000014,1.4449999999999457,5.004999999999992,-2.409999999999938
5.777000000000002,0.7299999999999733,4.129999999999884,-0.6999999999998223
5.7970000000000015,0.8100000000000134,3.609999999999987,0.6750000000000334
5.817000000000001,1.2700000000000125,3.13399999999998,1.1620000000000148
5.8370000000000015,1.6400000000000265,2.4599999999999023,2.060000000000169
5.857000000000001,1.626666666666651,1.433333333333278,4.046666666666769
5.877000000000002,0.9399999999999408,0.4666666666666173,5.726666666666736
5.897000000000001,-0.19000000000007994,-0.15000000000000888,6.099999999999973
5.917000000000002,-1.6000000000001333,0.3200000000000977,5.249999999999902
5.937000000000001,-2.700000000000049,0.8399999999999822,4.769999999999995
5.957000000000002,-3.0999999999999734,-0.3700000000001199,5.265000000000073
5.977000000000001,-2.3699999999999335,-1.1649999999999667,5.479999999999933
5.997000000000002,-2.1350000000000335,-0.2850000000000067,4.029999999999907
6.017000000000001,-3.0800000000001067,-1.9950000000001933,4.550000000000146
6.037000000000002,-4.645000000000204,-2.564999999999796,5.724999999999973
6.057000000000001,-6.250000000000067,0.8100000000002665,3.3999999999996935
6.077000000000002,-5.699999999999787,1.9549999999999201,0.2899999999997336
6.097000000000001,-3.34999999999976,-3.730349362740526e-13,-0.9200000000000665
6.117000000000002,-1.6099999999998225,-2.2299999999999467,-0.9799999999998401
6.137000000000001,-1.5633333333333728,-1.636666666666639,-0.48999999999997634
6.157000000000002,-2.2600000000000415,-1.573333333333361,0.03666666666670121
6.177000000000001,-2.5666666666666744,-1.76,0.35000000000001186
6.197000000000002,-2.61,-1.555999999999993,0.4059999999999988
6.217000000000001,-2.58,-0.7199999999999023,0.18
6.237000000000002,-2.4549999999999734,-0.10999999999994672,0.37500000000002665
6.2570000000000014,-2.08999999999996,0.37000000000002664,0.28999999999994674
6.277000000000002,-1.697499999999995,0.7775000000000549,-1.087500000000135
6.2970000000000015,-1.5633333333333017,2.3466666666667573,-2.9533333333333966
6.317000000000002,0.08800000000016628,3.8100000000000462,-3.5560000000000094
6.3370000000000015,4.100000000000319,3.174999999999847,-4.2650000000001125
6.357000000000002,7.058000000000143,0.9539999999998523,-5.576000000000056
6.377000000000002,8.34,0.34333333333341226,-5.990000000000015
6.397000000000002,8.133999999999967,1.0660000000000094,-5.483999999999922
6.417000000000002,6.464999999999807,1.0399999999999068,-3.97499999999998
6.437000000000001,3.6949999999997534,1.1200000000001733,-4.585000000000047
6.457000000000002,2.6349999999997804,2.1200000000002532,-4.73500000000002
6.477000000000001,0.7433333333333373,4.036666666666627,-3.7466666666666035
6.497000000000002,1.140000000000142,2.8299999999997336,-2.649999999999858
6.517000000000001,1.7100000000000444,1.7099999999999023,-2.450000000000018
6.537000000000002,1.8799999999999821,1.1199999999999646,-2.554999999999973
6.557000000000001,1.4549999999999401,0.7949999999999801,-1.5849999999998468
6.577000000000002,0.6066666666666124,0.4033333333333136,1.0433333333335209
6.597000000000001,-0.23500000000007326,0.15499999999998004,3.485000000000153
6.617000000000002,-1.0700000000000889,-0.15000000000003555,4.640000000000071
6.637000000000001,-1.7700000000000295,-0.36333333333334317,5.076666666666687
6.657000000000002,-2.0533333333333434,-0.6433333333333581,5.400000000000015
6.677000000000001,-2.320000000000053,-0.7649999999999667,5.304999999999967
6.697000000000002,-3.0060000000000127,0.12733333333335783,4.896666666666661
6.717000000000001,-2.5433333333332544,0.6566666666665532,5.06
6.737000000000002,-1.7266666666666568,-2.666666666666849,4.9733333333333585
6.7570000000000014,-2.5250000000001798,-3.309999999999867,6.230000000000093
6.777000000000002,-5.635000000000433,0.3000000000005773,5.0499999999995335
6.7970000000000015,-6.81499999999994,2.66499999999998,1.2649999999997137
6.817000000000002,-4.844999999999633,0.7749999999996113,-0.8800000000000666
6.8370000000000015,-2.55333333333324,-1.7300000000001037,-0.2466666666665976
6.857000000000002,-1.83,-2.5266666666666735,0.6066666666667151
6.877000000000002,-2.2233333333333727,-2.3633333333333137,0.9700000000000147
6.897000000000002,-2.8100000000000476,-2.1099999999999763,1.1933333333333491
6.917000000000002,-3.1500000000000137,-1.8549999999999667,1.3
6.937000000000002,-3.1139999999999906,-1.5659999999999863,1.1459999999999861
6.957000000000002,-3.0079999999999956,-1.53,1.055999999999997
6.977000000000002,-2.0599999999999525,-1.2166666666665797,0.6999999999999763
6.997000000000002,-1.616666666666642,-0.023333333333269188,0.183333333333284
7.017000000000002,-1.0266666666666036,0.6800000000000473,-1.0800000000001657
7.037000000000002,-0.169999999999926,1.1100000000000443,-2.7633333333334322
7.057000000000001,1.2500000000001037,2.3133333333334174,-4.176666666666731
7.077000000000002,2.996666666666775,3.2500000000000147,-4.863333333333358
7.097000000000001,4.603333333333417,2.636666666666583,-5.510000000000044
7.117000000000002,5.823333333333387,2.066666666666701,-6.1600000000000446
7.137000000000001,6.566666666666731,2.699999999999985,-7.24000000000006
7.157000000000002,7.9100000000000446,1.2366666666665087,-6.496666666666524
7.177000000000001,6.443333333333121,-1.0500000000000593,-5.680000000000044
7.197000000000002,3.3664999999999514,0.27500000000004,-6.429500000000013
7.217000000000001,-1.750000000000148,4.390000000000106,-6.8699999999999
7.237000000000002,-2.5599999999999645,4.889999999999947,-5.324999999999813
7.2570000000000014,-1.2399999999998814,3.799999999999926,-3.7899999999999263
7.277000000000002,0.8500000000000248,2.6999999999999846,-2.9699999999999918
7.2970000000000015,1.8100000000002665,2.0999999999998047,-2.5699999999998044
7.317000000000002,2.6399999999999944,0.7499999999999348,-0.799999999999852
7.3370000000000015,2.179999999999929,-0.11000000000006513,1.5500000000001894
7.357000000000002,1.2266666666666075,-0.7216666666666851,3.603333333333437
7.377000000000002,-0.406666666666716,-0.8466666666666641,5.32000000000003
7.397000000000002,-2.1400000000001125,-0.37999999999995854,5.629999999999988
7.417000000000002,-3.493333333333417,0.2133333333333728,5.359999999999985
7.437000000000002,-4.8800000000000825,0.7700000000000414,5.250000000000024
7.457000000000002,-5.379999999999964,1.2400000000001243,5.590000000000071
7.477000000000002,-4.289999999999905,0.009999999999739467,5.860000000000012
7.497000000000002,-3.359999999999994,-3.400000000000142,6.670000000000136
7.517000000000002,-4.800000000000219,-2.689999999999597,7.979999999999953
7.537000000000002,-7.570000000000118,2.4133333333335654,5.30666666666639
7.557000000000002,-6.909999999999769,3.139999999999799,0.9099999999997869
7.577000000000002,-3.3449999999995823,-0.275000000000453,-0.3750000000000089
7.597000000000002,-0.9199999999997514,-2.820000000000284,-0.20999999999998223
7.617000000000002,-0.7800000000000533,-3.490000000000006,-0.2900000000000059
7.637000000000002,-1.7100000000001598,-3.36999999999992,-0.07999999999992007
7.657000000000002,-2.59000000000008,-2.83999999999992,0.5700000000000799
7.677000000000002,-3.0900000000001597,-2.2899999999997336,1.05000000000016
7.697000000000002,-3.3799999999999466,-1.3299999999998224,1.219999999999929
7.717000000000001,-3.0211111111110998,-0.7277777777777712,0.8366666666666568
7.737000000000002,-2.079999999999941,-0.5166666666666716,0.4099999999999852
7.7570000000000014,-1.029999999999935,-0.5799999999999881,0.039999999999958555
7.777000000000002,-0.35999999999992893,-0.1699999999999023,-0.7200000000001243
7.7970000000000015,0.26000000000004736,0.9700000000001066,-1.9200000000000828
7.817000000000002,0.9500000000000651,2.5400000000001244,-2.780000000000059
7.8370000000000015,2.3200000000002308,3.920000000000062,-3.760000000000142
7.857000000000002,4.540000000000166,3.459999999999858,-4.950000000000042
7.877000000000002,6.0780000000000545,2.395999999999997,-5.16200000000001
7.897000000000002,6.940000000000098,3.1200000000001333,-5.479999999999965
7.917000000000002,7.619999999999992,3.569999999999971,-4.299999999999993
7.937000000000002,6.709999999999538,2.2899999999998757,-4.67000000000032
7.957000000000002,3.6399999999998345,3.93000000000016,-5.879999999999982
7.977000000000002,2.099999999999938,5.200000000000018,-4.899999999999823
7.997000000000002,2.1000000000000623,5.129999999999938,-3.4699999999998936
8.017000000000001,2.7500000000000413,4.169999999999917,-3.080000000000006
8.037,3.15,3.08,-3.23
8.057,3.18,1.91,-3.12
8.077000000000002,3.0699999999999643,1.0199999999999023,-2.449999999999867
8.097000000000001,2.219999999999917,0.10999999999995855,-0.12999999999978684
8.117,0.99,-0.49,2.71
8.137,-0.49,-1.0,4.72
8.157000000000002,-1.7700000000000888,-1.3099999999999883,5.379999999999988
8.177000000000001,-2.855000000000029,-0.87499999999998,4.824999999999971
8.197000000000001,-3.5066666666666744,-0.19583333333332248,4.061666666666657
8.217,-3.851556886227545,0.23181636726546906,3.8305189620758484
8.237000000000002,-3.8539520958083835,0.23461077844311395,3.831317365269461
8.257000000000001,-3.856347305389222,0.23740518962075863,3.832115768463074
8.277000000000001,-3.85874251497006,0.24019960079840327,3.832914171656687
8.297,-3.861137724550898,0.24299401197604792,3.8337125748502996
8.317000000000002,-3.8635329341317366,0.24578842315369281,3.8345109780439124
8.337000000000002,-3.865928143712575,0.2485828343313375,3.835309381237525
8.357000000000001,-3.8683233532934134,0.2513772455089821,3.836107784431138
8.377,-3.8707185628742518,0.2541716566866268,3.8369061876247508
8.397,-3.8731137724550897,0.25696606786427145,3.837704590818363
8.417000000000002,-3.8755089820359285,0.25976047904191635,3.8385029940119764
8.437000000000001,-3.8779041916167665,0.26255489021956097,3.8393013972055887
8.457,-3.880299401197605,0.26534930139720564,3.8400998003992015
8.477,-3.8826946107784432,0.2681437125748503,3.8408982035928143
8.497000000000002,-3.8850898203592816,0.2709381237524952,3.841696606786427
8.517000000000001,-3.88748502994012,0.2737325349301398,3.84249500998004
8.537,-3.8898802395209584,0.2765269461077845,3.8432934131736527
8.557,-3.8922754491017963,0.2793213572854292,3.8440918163672655
8.577000000000002,-3.894670658682635,0.28211576846307407,3.8448902195608783
8.597000000000001,-3.897065868263473,0.28491017964071874,3.845688622754491
8.617,-3.8994610778443115,0.28770459081836336,3.846487025948104
8.637,-3.90185628742515,0.29049900199600803,3.8472854291417167
8.657000000000002,-3.9042514970059883,0.29329341317365293,3.8480838323353295
8.677000000000001,-3.9066467065868267,0.29608782435129755,3.8488822355289423
8.697000000000001,-3.909041916167665,0.2988822355289422,3.849680638722555
8.717,-4.05,0.57,4.1
8.737000000000002,4.829999999999556,3.1100000000003907,-4.790000000000107
8.757000000000001,2.409999999999938,4.569999999999965,-3.9399999999998667
8.777000000000001,2.227500000000004,3.9037499999999707,-2.8912499999999746
8.797,2.4166666666666745,2.4999999999999525,-2.086666666666651
8.817000000000002,2.4133333333333256,1.9733333333333136,-2.07
8.837000000000002,2.1699999999999644,1.6299999999999377,-1.8399999999999201
8.857000000000001,1.76799999999998,1.0159999999999745,-0.7799999999999432
8.877,1.0864285714285695,0.2907142857142841,0.9814285714285758
8.897000000000002,-0.1200000000001421,-0.3500000000000444,3.0300000000001774
8.917000000000002,-1.3600000000001156,-0.49999999999998224,4.360000000000116
8.937000000000001,-2.260000000000053,-0.43000000000000593,5.170000000000029
8.957,-3.06666666666671,-0.27666666666665085,5.106666666666639
8.977,-3.79,0.26,4.63
8.997000000000002,-3.659999999999769,0.4999999999998934,4.830000000000089
9.017000000000001,-2.0599999999998757,-0.7800000000001688,4.7999999999999465
9.037,-2.3050000000000934,-2.0450000000000133,5.115000000000084
9.057,-4.7166666666668045,-0.6199999999998579,6.233333333333325
9.077000000000002,-6.450000000000035,2.3450000000002222,3.8899999999995023
9.097000000000001,-5.779999999999627,2.6399999999996626,-0.300000000000675
9.117,-3.6599999999998847,0.319999999999849,-1.4749999999999601
9.137,-2.3533333333333015,-2.0766666666667337,-0.3366666666666154
9.157000000000002,-2.266666666666686,-2.5333333333333257,0.28666666666667456
9.177000000000001,-2.793333333333361,-2.4633333333333374,0.19333333333332545
9.197000000000001,-3.373333333333361,-2.6666666666666745,0.14666666666667458
9.217,-3.8900000000000268,-2.82,0.39500000000001334
9.237000000000002,-4.1633333333333375,-2.4599999999999644,0.4866666666666627
9.257000000000001,-3.986666666666639,-1.58333333333329,0.28333333333331356
9.277000000000001,-3.053333333333266,-0.796666666666639,-0.24666666666669823
9.297,-1.6233333333332662,-0.5099999999999881,-0.913333333333361
9.317000000000002,-0.369999999999698,0.5600000000004086,-1.3700000000001067
9.337000000000002,1.3900000000002133,2.0000000000000533,-1.97500000000008
9.357000000000001,3.3100000000000978,1.5349999999999513,-2.7950000000000577
9.377,4.524000000000003,1.2960000000000007,-3.7520000000000038
9.397000000000002,5.060000000000071,1.7500000000001599,-4.850000000000266
9.417000000000002,5.525000000000045,2.6899999999999826,-5.594999999999938
9.437000000000001,6.050000000000035,2.049999999999911,-4.909999999999982
9.457,5.91,1.06,-4.74
9.477000000000002,4.099999999999715,0.5100000000001421,-3.4899999999997693
9.497000000000002,1.3399999999998697,2.8766666666668046,-2.2099999999999884
9.517000000000001,-0.3750000000000222,4.730000000000054,-2.4550000000000045
9.537,0.2266666666667338,4.729999999999941,-1.893333333333278
9.557000000000002,1.9550000000003065,3.4149999999998,-0.6399999999998134
9.577000000000002,3.670000000000083,2.4966666666666155,-0.12666666666667456
9.597000000000001,4.960000000000213,1.3499999999997159,-0.7600000000002309
9.617,5.35,0.16,-1.91
9.637,5.08,-0.36,-2.39
9.657000000000002,2.9299999999998816,-0.6933333333333372,-1.9633333333332663
9.677000000000001,0.7049999999998624,-0.3999999999999556,-0.3149999999998712
9.697000000000001,-1.8500000000001156,0.3300000000000089,2.325000000000111
9.717,-3.5300000000000713,0.43499999999999556,3.720000000000044
9.737000000000002,-4.320000000000107,0.2299999999999112,3.879999999999929
9.757000000000001,-4.4999999999999645,-0.009999999999982237,3.6000000000000356
9.777000000000001,-4.0799999999999645,0.23000000000002369,4.406666666666734
9.797,-3.25,0.8,5.56
9.817000000000002,-3.0,0.29032258064513927,5.780322580645164
9.837000000000002,-3.0,0.11612903225804949,5.806129032258067
9.857000000000001,-4.620000000000018,-0.2566666666666331,5.0433333333332895
9.877,-4.6409090909090835,0.6718181818181871,3.0636363636363355
9.897000000000002,-3.4099999999998816,-0.2800000000001658,0.8966666666665798
9.917000000000002,-2.4699999999999527,-1.9133333333334674,0.7300000000000236
9.937000000000001,-2.3800000000000088,-2.6350000000000042,1.1350000000000222
9.957,-2.733333333333343,-2.4266666666666508,1.2433333333333314
9.977000000000002,-2.990000000000018,-1.9149999999999732,0.9949999999999556
9.997000000000002,-3.044999999999991,-1.794999999999991,0.7199999999999822
10.017000000000001,-2.9539999999999975,-1.78,0.6039999999999971
10.037,-2.8,-1.76,0.42
10.057000000000002,-2.52499999999996,-1.2999999999998935,0.19499999999998668
10.077000000000002,-2.412500000000003,-0.74499999999998,0.36500000000002
10.097000000000001,-2.3659999999999957,-0.3179999999999943,0.66
10.117,-1.9649999999999688,0.3350000000000666,0.1599999999999467
10.137000000000002,-1.1299999999999053,2.1600000000002133,-1.193333333333515
10.157000000000002,-0.09599999999992326,3.986000000000094,-2.844000000000098
10.177000000000001,2.0450000000001465,4.214999999999943,-4.245000000000022
10.197000000000001,4.66000000000005,3.133999999999983,-4.248000000000001
10.217000000000002,6.476666666666722,3.0533333333333728,-5.080000000000118
10.237000000000002,6.630078878177038,3.2801104294478525,-5.560141980718668
10.257000000000001,6.630254163014899,3.2803558282208587,-5.560457493426818
10.277000000000001,6.630429447852761,3.280601226993865,-5.560773006134969
10.297,6.630604732690622,3.280846625766871,-5.561088518843119
10.317000000000002,6.630780017528484,3.281092024539877,-5.5614040315512705
10.337000000000002,6.6309553023663454,3.281337423312883,-5.561719544259422
10.357000000000001,6.631130587204207,3.2815828220858894,-5.562035056967572
10.377,6.631305872042068,3.2818282208588956,-5.562350569675723
10.397000000000002,6.6314811568799295,3.282073619631902,-5.562666082383873
10.417000000000002,6.631656441717792,3.282319018404908,-5.562981595092024
10.437000000000001,6.631831726555653,3.282564417177914,-5.5632971078001745
10.457,6.632007011393514,3.28280981595092,-5.563612620508326
10.477000000000002,6.632182296231376,3.2830552147239263,-5.563928133216477
10.497000000000002,6.632357581069237,3.2833006134969325,-5.564243645924627
10.517000000000001,6.632532865907099,3.2835460122699387,-5.564559158632778
10.537,6.632708150744961,3.2837914110429445,-5.564874671340928
10.557000000000002,6.632883435582822,3.2840368098159507,-5.565190184049079
10.577000000000002,6.633058720420683,3.284282208588957,-5.5655056967572305
10.597000000000001,6.6332340052585455,3.284527607361963,-5.565821209465381
10.617,6.633409290096407,3.2847730061349694,-5.566136722173532
10.637000000000002,6.633584574934268,3.285018404907975,-5.566452234881682
10.657000000000002,6.6337598597721295,3.2852638036809814,-5.566767747589833
10.677000000000001,6.633935144609991,3.2855092024539876,-5.567083260297984
10.697000000000001,6.634110429447853,3.285754601226994,-5.5673987730061345
10.717000000000002,6.634285714285714,3.286,-5.567714285714286
10.737000000000002,6.634460999123576,3.286245398773006,-5.568029798422436
10.757000000000001,6.634636283961437,3.286490797546012,-5.568345311130587
10.777000000000001,6.634811568799298,3.2867361963190183,-5.568660823838738
10.797000000000002,6.634986853637161,3.2869815950920245,-5.568976336546888
10.817000000000002,6.635162138475022,3.2872269938650307,-5.569291849255039
10.837000000000002,6.635337423312883,3.2874723926380365,-5.56960736196319
10.857000000000001,6.635512708150745,3.2877177914110427,-5.569922874671341
10.877000000000002,6.635687992988607,3.287963190184049,-5.570238387379492
10.897000000000002,6.635863277826468,3.288208588957055,-5.570553900087642
10.917000000000002,6.6360385626643295,3.2884539877300614,-5.570869412795793
10.937000000000001,6.636213847502191,3.288699386503067,-5.571184925503943
10.957,6.636389132340052,3.2889447852760734,-5.5715004382120945
10.977000000000002,6.636564417177914,3.2891901840490796,-5.571815950920245
10.997000000000002,6.636739702015776,3.289435582822086,-5.572131463628396
11.017000000000001,6.636914986853637,3.289680981595092,-5.572446976336547
11.037,6.637090271691498,3.289926380368098,-5.572762489044697
11.057000000000002,6.63726555652936,3.290171779141104,-5.573078001752848
11.077000000000002,6.637440841367222,3.2904171779141103,-5.5733935144609985
11.097000000000001,6.637616126205083,3.2906625766871165,-5.57370902716915
11.117,6.637791411042945,3.2909079754601227,-5.574024539877301
11.137000000000002,6.637966695880806,3.291153374233129,-5.574340052585451
11.157000000000002,6.638141980718668,3.2913987730061347,-5.574655565293602
11.177000000000001,6.6383172655565295,3.291644171779141,-5.574971078001752
11.197000000000001,6.638492550394391,3.291889570552147,-5.575286590709903
11.217000000000002,6.638667835232252,3.2921349693251534,-5.5756021034180545
11.237000000000002,6.6388431200701135,3.2923803680981596,-5.575917616126205
11.257000000000001,6.639018404907976,3.2926257668711654,-5.576233128834356
11.277000000000001,6.639193689745837,3.2928711656441716,-5.576548641542506
11.297000000000002,6.639368974583698,3.293116564417178,-5.576864154250657
11.317000000000002,6.63954425942156,3.293361963190184,-5.577179666958808
11.337000000000002,6.639719544259421,3.2936073619631903,-5.5774951796669585
11.357000000000001,6.639894829097283,3.293852760736196,-5.57781069237511
11.377000000000002,6.640070113935145,3.2940981595092023,-5.57812620508326
11.397000000000002,6.640245398773006,3.2943435582822085,-5.578441717791411
11.417000000000002,6.640420683610867,3.2945889570552147,-5.578757230499561
11.437000000000001,6.6405959684487295,3.294834355828221,-5.579072743207712
11.457000000000003,6.640771253286591,3.2950797546012267,-5.579388255915863
11.477000000000002,6.640946538124452,3.295325153374233,-5.579703768624014
11.497000000000002,6.6411218229623135,3.295570552147239,-5.580019281332165
11.517000000000001,6.641297107800175,3.2958159509202454,-5.580334794040315
11.537000000000003,6.641472392638037,3.2960613496932516,-5.580650306748466
11.557000000000002,6.641647677475898,3.2963067484662574,-5.580965819456617
11.577000000000002,6.64182296231376,3.2965521472392636,-5.581281332164767
11.597000000000001,6.641998247151621,3.29679754601227,-5.5815968448729185
11.617,6.642173531989482,3.297042944785276,-5.581912357581069
11.637000000000002,6.642348816827345,3.2972883435582823,-5.58222787028922
11.657000000000002,6.642524101665206,3.297533742331288,-5.582543382997371
11.677000000000001,6.642699386503067,3.2977791411042943,-5.582858895705521
11.697000000000001,6.642874671340929,3.2980245398773005,-5.583174408413672
11.717000000000002,6.643049956178791,3.2982699386503067,-5.5834899211218225
11.737000000000002,6.643225241016652,3.298515337423313,-5.583805433829974
11.757000000000001,6.6434005258545135,3.2987607361963187,-5.584120946538124
11.777000000000001,6.643575810692375,3.299006134969325,-5.584436459246275
11.797000000000002,6.643751095530236,3.299251533742331,-5.584751971954426
11.817000000000002,6.643926380368098,3.2994969325153374,-5.585067484662576
11.837000000000002,6.64410166520596,3.2997423312883436,-5.585382997370727
11.857000000000001,6.644276950043821,3.2999877300613494,-5.585698510078878
11.877000000000002,6.644452234881682,3.3002331288343556,-5.586014022787029
11.897000000000002,6.644627519719544,3.300478527607362,-5.58632953549518
11.917000000000002,6.644802804557406,3.300723926380368,-5.58664504820333
11.937000000000001,6.644978089395267,3.3009693251533743,-5.586960560911481
11.957000000000003,6.645153374233129,3.3012147239263805,-5.587276073619631
11.977000000000002,6.64532865907099,3.3014601226993863,-5.5875915863277825
11.997000000000002,6.645503943908852,3.3017055214723925,-5.587907099035934
12.017000000000001,6.6456792287467135,3.3019509202453987,-5.588222611744084
12.037000000000003,6.645854513584575,3.302196319018405,-5.588538124452235
12.057000000000002,6.646029798422436,3.302441717791411,-5.588853637160385
12.077000000000002,6.6462050832602975,3.302687116564417,-5.589169149868536
12.097000000000001,6.64638036809816,3.302932515337423,-5.589484662576687
12.117000000000003,6.646555652936021,3.3031779141104294,-5.589800175284838
12.137000000000002,6.646730937773882,3.3034233128834356,-5.590115687992989
12.157000000000002,6.646906222611744,3.303668711656442,-5.590431200701139
12.177000000000001,6.647081507449605,3.3039141104294476,-5.59074671340929
12.197000000000001,6.647256792287467,3.304159509202454,-5.59106222611744
12.217000000000002,6.647432077125329,3.30440490797546,-5.591377738825591
12.237000000000002,6.64760736196319,3.3046503067484663,-5.5916932515337425
12.257000000000001,6.647782646801051,3.3048957055214725,-5.592008764241893
12.277000000000001,6.6479579316389135,3.3051411042944783,-5.592324276950044
12.297000000000002,6.648133216476775,3.3053865030674845,-5.592639789658194
12.317000000000002,6.648308501314636,3.3056319018404907,-5.592955302366345
12.337000000000002,6.6484837861524975,3.305877300613497,-5.593270815074496
12.357000000000001,6.648659070990359,3.306122699386503,-5.5935863277826465
12.377000000000002,6.648834355828221,3.306368098159509,-5.593901840490798
12.397000000000002,6.649009640666082,3.306613496932515,-5.594217353198948
12.417000000000002,6.649184925503944,3.3068588957055214,-5.594532865907099
12.437000000000001,6.649360210341805,3.3071042944785276,-5.59484837861525
12.457000000000003,6.649535495179667,3.307349693251534,-5.5951638913234
12.477000000000002,6.649710780017529,3.3075950920245396,-5.595479404031551
12.497000000000002,6.64988606485539,3.307840490797546,-5.595794916739702
12.517000000000001,6.650061349693251,3.308085889570552,-5.596110429447853
12.537000000000003,6.650236634531113,3.3083312883435583,-5.596425942156004
12.557000000000002,6.650411919368975,3.3085766871165645,-5.596741454864154
12.577000000000002,6.650587204206836,3.3088220858895703,-5.597056967572305
12.597000000000001,6.6507624890446975,3.3090674846625765,-5.597372480280455
12.617000000000003,6.650937773882559,3.3093128834355827,-5.5976879929886065
12.637000000000002,6.65111305872042,3.309558282208589,-5.598003505696757
12.657000000000002,6.651288343558282,3.309803680981595,-5.598319018404908
12.677000000000001,6.651463628396144,3.3100490797546014,-5.598634531113059
12.697000000000003,6.651638913234005,3.310294478527607,-5.598950043821209
12.717000000000002,6.651814198071866,3.3105398773006134,-5.59926555652936
12.737000000000002,6.651989482909729,3.3107852760736196,-5.5995810692375105
12.757000000000001,6.65216476774759,3.311030674846626,-5.599896581945662
12.777000000000003,6.652340052585451,3.311276073619632,-5.600212094653813
12.797000000000002,6.652515337423313,3.311521472392638,-5.600527607361963
12.817000000000002,6.652690622261174,3.311766871165644,-5.600843120070114
12.837000000000002,6.652865907099036,3.3120122699386503,-5.601158632778264
12.857000000000001,6.6530411919368975,3.3122576687116565,-5.601474145486415
12.877000000000002,6.653216476774759,3.3125030674846627,-5.6017896581945665
12.897000000000002,6.65339176161262,3.3127484662576685,-5.602105170902717
12.917000000000002,6.6535670464504815,3.3129938650306747,-5.602420683610868
12.937000000000001,6.653742331288344,3.313239263803681,-5.602736196319018
12.957000000000003,6.653917616126205,3.313484662576687,-5.603051709027169
12.977000000000002,6.654092900964066,3.3137300613496934,-5.60336722173532
12.997000000000002,6.654268185801928,3.313975460122699,-5.6036827344434705
13.017000000000001,6.65444347063979,3.3142208588957054,-5.603998247151622
13.037000000000003,6.654618755477651,3.3144662576687116,-5.604313759859772
13.057000000000002,6.654794040315513,3.314711656441718,-5.604629272567923
13.077000000000002,6.654969325153374,3.314957055214724,-5.604944785276073
13.097000000000001,6.655144609991235,3.31520245398773,-5.605260297984224
13.117000000000003,6.6553198948290975,3.315447852760736,-5.605575810692375
13.137000000000002,6.655495179666959,3.3156932515337423,-5.605891323400526
13.157000000000002,6.65567046450482,3.3159386503067485,-5.606206836108677
13.177000000000001,6.6558457493426815,3.3161840490797547,-5.606522348816827
13.197000000000003,6.656021034180543,3.3164294478527605,-5.606837861524978
13.217000000000002,6.656196319018405,3.3166748466257667,-5.607153374233129
13.237000000000002,6.656371603856266,3.316920245398773,-5.607468886941279
13.257000000000001,6.656546888694128,3.317165644171779,-5.6077843996494305
13.277000000000003,6.656722173531989,3.3174110429447854,-5.608099912357581
13.297000000000002,6.656897458369851,3.3176564417177916,-5.608415425065732
13.317000000000002,6.657072743207713,3.3179018404907974,-5.608730937773883
13.337000000000002,6.657248028045574,3.3181472392638036,-5.609046450482033
13.357000000000003,6.657423312883435,3.31839263803681,-5.609361963190184
13.377000000000002,6.657598597721297,3.318638036809816,-5.6096774758983345
13.397000000000002,6.657773882559159,3.3188834355828223,-5.609992988606486
13.417000000000002,6.65794916739702,3.319128834355828,-5.610308501314637
13.437000000000003,6.6581244522348815,3.3193742331288343,-5.610624014022787
13.457000000000003,6.658299737072743,3.3196196319018405,-5.610939526730938
13.477000000000002,6.658475021910604,3.3198650306748467,-5.611255039439088
13.497000000000002,6.658650306748466,3.320110429447853,-5.611570552147239
13.517000000000001,6.658825591586328,3.3203558282208587,-5.61188606485539
13.537000000000003,6.659000876424189,3.320601226993865,-5.612201577563541
13.557000000000002,6.65917616126205,3.320846625766871,-5.612517090271692
13.577000000000002,6.659351446099913,3.3210920245398774,-5.612832602979842
13.597000000000001,6.659526730937774,3.3213374233128836,-5.613148115687993
13.617000000000003,6.659702015775635,3.3215828220858894,-5.613463628396143
13.637000000000002,6.659877300613497,3.3218282208588956,-5.6137791411042945
13.657000000000002,6.660052585451358,3.322073619631902,-5.614094653812446
13.677000000000001,6.66022787028922,3.322319018404908,-5.614410166520596
13.697000000000003,6.6604031551270815,3.3225644171779143,-5.614725679228747
13.717000000000002,6.660578439964943,3.32280981595092,-5.615041191936897
13.737000000000002,6.660753724802804,3.3230552147239263,-5.615356704645048
13.757000000000001,6.6609290096406655,3.3233006134969325,-5.615672217353199
13.777000000000003,6.661104294478528,3.3235460122699387,-5.61598773006135
13.797000000000002,6.661279579316389,3.323791411042945,-5.616303242769501
13.817000000000002,6.66145486415425,3.3240368098159507,-5.616618755477651
13.837000000000002,6.661630148992112,3.324282208588957,-5.616934268185802
13.857000000000003,6.661805433829974,3.324527607361963,-5.617249780893953
13.877000000000002,6.661980718667835,3.3247730061349694,-5.617565293602103
13.897000000000002,6.662156003505697,3.3250184049079756,-5.6178808063102545
13.917000000000002,6.662331288343558,3.3252638036809814,-5.618196319018405
13.937000000000003,6.662506573181419,3.3255092024539876,-5.618511831726556
13.957000000000003,6.6626818580192815,3.325754601226994,-5.618827344434706
13.977000000000002,6.662857142857143,3.326,-5.619142857142857
13.997000000000002,6.663032427695004,3.3262453987730063,-5.619458369851008
14.017000000000003,6.6632077125328655,3.3264907975460125,-5.6197738825591586
14.037000000000003,6.663382997370727,3.3267361963190183,-5.62008939526731
14.057000000000002,6.663558282208589,3.3269815950920245,-5.62040490797546
14.077000000000002,6.66373356704645,3.3272269938650307,-5.620720420683611
14.097000000000001,6.663908851884312,3.327472392638037,-5.621035933391762
14.117000000000003,6.664084136722173,3.327717791411043,-5.621351446099912
14.137000000000002,6.664259421560035,3.327963190184049,-5.621666958808063
14.157000000000002,6.664434706397897,3.328208588957055,-5.621982471516214
14.177000000000001,6.664609991235758,3.3284539877300614,-5.622297984224365
14.197000000000003,6.664785276073619,3.3286993865030676,-5.622613496932516
14.217000000000002,6.664960560911481,3.328944785276074,-5.622929009640666
14.237000000000002,6.665135845749343,3.3291901840490796,-5.623244522348817
14.257000000000001,6.665311130587204,3.329435582822086,-5.623560035056967
14.277000000000003,6.6654864154250655,3.329680981595092,-5.6238755477651186
14.297000000000002,6.665661700262927,3.3299263803680983,-5.62419106047327
14.317000000000002,6.665836985100788,3.3301717791411045,-5.62450657318142
14.337000000000002,6.66601226993865,3.3304171779141103,-5.624822085889571
14.357000000000003,6.666187554776512,3.3306625766871165,-5.625137598597721
14.377000000000002,6.666362839614373,3.3309079754601227,-5.625453111305872
14.397000000000002,6.666538124452234,3.331153374233129,-5.625768624014023
14.417000000000002,6.666713409290097,3.331398773006135,-5.626084136722174
14.437000000000003,6.666888694127958,3.331644171779141,-5.626399649430325
14.457000000000003,6.667063978965819,3.331889570552147,-5.626715162138475
14.477000000000002,6.667239263803681,3.3321349693251534,-5.627030674846626
14.497000000000002,6.667414548641542,3.3323803680981596,-5.627346187554776
14.517000000000003,6.667589833479404,3.332625766871166,-5.6276617002629274
14.537000000000003,6.6677651183172655,3.3328711656441716,-5.627977212971079
14.557000000000002,6.667940403155127,3.333116564417178,-5.628292725679229
14.577000000000002,6.668115687992988,3.333361963190184,-5.62860823838738
14.597000000000003,6.6682909728308495,3.3336073619631903,-5.62892375109553
14.617000000000003,6.668466257668712,3.3338527607361965,-5.629239263803681
14.637000000000002,6.668641542506573,3.3340981595092023,-5.629554776511832
14.657000000000002,6.668816827344434,3.3343435582822085,-5.629870289219983
14.677000000000003,6.668992112182296,3.3345889570552147,-5.630185801928134
14.697000000000003,6.669167397020158,3.334834355828221,-5.630501314636284
14.717000000000002,6.669342681858019,3.335079754601227,-5.630816827344435
14.737000000000002,6.669517966695881,3.335325153374233,-5.631132340052586
14.757000000000001,6.669693251533742,3.335570552147239,-5.631447852760736
14.777000000000003,6.669868536371603,3.3358159509202454,-5.6317633654688875
14.797000000000002,6.6700438212094655,3.3360613496932516,-5.632078878177038
14.817000000000002,6.670219106047327,3.336306748466258,-5.632394390885189
14.837000000000002,6.670394390885188,3.3365521472392636,-5.632709903593339
14.857000000000003,6.6705696757230495,3.33679754601227,-5.63302541630149
14.877000000000002,6.670744960560911,3.337042944785276,-5.633340929009641
14.897000000000002,6.670920245398773,3.3372883435582823,-5.6336564417177915
14.917000000000002,6.671095530236634,3.3375337423312885,-5.633971954425943
14.937000000000003,6.671270815074496,3.3377791411042947,-5.634287467134093
14.957000000000003,6.671446099912357,3.3380245398773005,-5.634602979842244
14.977000000000002,6.671621384750219,3.3382699386503067,-5.634918492550395
14.997000000000002,6.671796669588081,3.338515337423313,-5.635234005258545
15.017000000000003,6.671971954425942,3.338760736196319,-5.635549517966696
15.037000000000003,6.672147239263803,3.3390061349693254,-5.635865030674847
15.057000000000002,6.672322524101665,3.339251533742331,-5.636180543382998
15.077000000000002,6.672497808939527,3.3394969325153374,-5.636496056091149
15.097000000000003,6.672673093777388,3.3397423312883436,-5.636811568799299
15.117000000000003,6.6728483786152495,3.33998773006135,-5.63712708150745
15.137000000000002,6.673023663453111,3.340233128834356,-5.6374425942156
15.157000000000002,6.673198948290972,3.340478527607362,-5.6377581069237515
15.177000000000003,6.673374233128834,3.340723926380368,-5.638073619631903
15.197000000000003,6.673549517966696,3.3409693251533743,-5.638389132340053
15.217000000000002,6.673724802804557,3.3412147239263805,-5.638704645048204
15.237000000000002,6.673900087642418,3.3414601226993867,-5.639020157756354
15.257000000000003,6.674075372480281,3.3417055214723925,-5.639335670464505
15.277000000000003,6.674250657318142,3.3419509202453987,-5.6396511831726555
15.297000000000002,6.674425942156003,3.342196319018405,-5.639966695880807
15.317000000000002,6.674601226993865,3.342441717791411,-5.640282208588958
15.337000000000003,6.674776511831726,3.3426871165644174,-5.640597721297108
15.357000000000003,6.674951796669588,3.342932515337423,-5.640913234005259
15.377000000000002,6.6751270815074495,3.3431779141104294,-5.641228746713409
15.397000000000002,6.675302366345311,3.3434233128834356,-5.64154425942156
15.417000000000002,6.675477651183172,3.343668711656442,-5.6418597721297115
15.437000000000003,6.675652936021034,3.343914110429448,-5.642175284837862
15.457000000000003,6.675828220858896,3.344159509202454,-5.642490797546013
15.477000000000002,6.676003505696757,3.34440490797546,-5.642806310254163
15.497000000000002,6.676178790534618,3.3446503067484663,-5.643121822962314
15.517000000000003,6.67635407537248,3.3448957055214725,-5.643437335670465
15.537000000000003,6.676529360210342,3.3451411042944788,-5.6437528483786155
15.557000000000002,6.676704645048203,3.345386503067485,-5.644068361086767
15.577000000000002,6.676879929886065,3.3456319018404908,-5.644383873794917
15.597000000000003,6.677055214723926,3.345877300613497,-5.644699386503068
15.617000000000003,6.677230499561787,3.346122699386503,-5.645014899211219
15.637000000000002,6.6774057843996495,3.3463680981595094,-5.645330411919369
15.657000000000002,6.677581069237511,3.3466134969325156,-5.64564592462752
15.677000000000003,6.677756354075372,3.3468588957055214,-5.645961437335671
15.697000000000003,6.6779316389132335,3.3471042944785276,-5.646276950043822
15.717000000000002,6.678106923751096,3.347349693251534,-5.646592462751972
15.737000000000002,6.678282208588957,3.34759509202454,-5.646907975460123
15.757000000000003,6.678457493426818,3.3478404907975463,-5.647223488168274
15.777000000000003,6.67863277826468,3.348085889570552,-5.647539000876424
15.797000000000002,6.678808063102541,3.3483312883435583,-5.6478545135845755
15.817000000000002,6.678983347940403,3.3485766871165645,-5.648170026292726
15.837000000000003,6.679158632778265,3.3488220858895708,-5.648485539000877
15.857000000000003,6.679333917616126,3.349067484662577,-5.648801051709028
15.877000000000002,6.679509202453987,3.3493128834355828,-5.649116564417178
15.897000000000002,6.679684487291849,3.349558282208589,-5.649432077125329
15.917000000000003,6.679859772129711,3.349803680981595,-5.6497475898334795
15.937000000000003,6.900000000000356,3.4399999999997513,-5.759999999999893
15.957000000000003,-3.4299999999998816,-0.2999999999999704,4.79
15.977000000000002,-1.8999999999998756,-0.7000000000001065,4.683333333333339
15.997000000000003,-0.9966666666666864,-2.3100000000001186,5.200000000000118
16.017000000000003,-1.3013333333333443,-2.359666666666658,5.839666666666681
16.037000000000003,-1.4240000000000483,-2.2579999999999547,5.996000000000051
16.057000000000002,-5.350000000000028,1.0200000000000284,4.153999999999778
16.077,-4.739999999999876,-0.015000000000239821,1.3949999999998668
16.097,-3.7649999999999375,-2.1350000000001863,1.3250000000000801
16.117,-3.51,-2.945000000000009,2.125000000000062
16.137000000000004,-3.720000000000018,-2.849999999999947,2.2399999999999114
16.157000000000004,-3.7349999999999826,-2.940000000000036,1.6149999999998401
16.177000000000003,-3.6649999999999823,-3.290000000000071,1.0349999999999113
16.197000000000003,-3.4199999999999466,-3.6750000000000447,0.9350000000000089
16.217000000000002,-2.766666666666627,-3.6599999999999646,0.8733333333333254
16.237000000000002,-2.0249999999999377,-2.654999999999885,0.5799999999999645
16.257,-1.7333333333333372,-1.8799999999999764,0.2199999999999763
16.277,-1.9650000000000267,-1.2849999999999024,-0.7300000000001421
16.297000000000004,-1.9299999999998934,0.1400000000006928,-2.090000000000426
16.317000000000004,-1.2399999999997868,1.9850000000002308,-3.4650000000003374
16.337000000000003,-0.26999999999950264,2.800000000000426,-4.770000000000568
16.357000000000003,0.8871428571429187,3.665714285714315,-5.797142857142894
16.377000000000002,2.6250000000001688,4.030000000000053,-5.659999999999876
16.397000000000002,3.680000000000071,4.555000000000098,-4.769999999999964
16.417,4.24,5.16,-4.72
16.437,5.399999999999988,2.9766666666665915,-4.239999999999988
16.457000000000004,4.124999999999334,2.965000000000453,-4.7300000000003735
16.477000000000004,2.006666666666272,4.240000000000189,-5.823333333333443
16.497000000000003,0.4966666666665798,4.826666666666675,-5.293333333333184
16.517000000000003,0.1400800000000004,4.870120000000001,-3.619079999999996
16.537000000000003,0.14168000000000036,4.872520000000001,-3.600679999999996
16.557000000000002,0.14328000000000032,4.87492,-3.5822799999999964
16.577,0.1448800000000003,4.877320000000001,-3.563879999999997
16.597,0.14648000000000025,4.879720000000001,-3.5454799999999973
16.617000000000004,0.14808000000000052,4.882120000000001,-3.5270799999999944
16.637000000000004,0.14968000000000048,4.884520000000001,-3.5086799999999947
16.657000000000004,0.15128000000000044,4.886920000000001,-3.4902799999999954
16.677000000000003,0.1528800000000004,4.8893200000000006,-3.4718799999999956
16.697000000000003,0.15448000000000037,4.891720000000001,-3.453479999999996
16.717000000000002,0.15608000000000033,4.894120000000001,-3.4350799999999966
16.737000000000002,0.1576800000000003,4.896520000000001,-3.416679999999997
16.757,0.15928000000000025,4.89892,-3.398279999999997
16.777,0.7500000000000203,5.194285714285719,-2.0699999999999794
16.797000000000004,1.4172727272727883,5.239090909090901,-1.5354545454545072
16.817000000000004,1.9622222222223118,5.0599999999999525,-1.2499999999999527
16.837000000000003,2.5633333333335857,4.609999999999763,-0.9899999999999053
16.857000000000003,3.4292000000000105,3.399599999999973,-0.5803999999999948
16.877000000000002,3.5500000000000442,3.0399999999998224,-0.5099999999999645
16.897000000000002,3.319999999999951,1.2199999999999422,0.3100000000000666
16.917,1.2699999999998401,-0.03500000000007993,3.3950000000002394
16.937,-3.23,-0.74,5.02
16.957000000000004,-2.6271428571427524,-1.2128571428572472,6.538571428571417
16.977000000000004,-2.12666666666684,-1.6466666666664613,5.8099999999999055
16.997000000000003,-3.7100000000001776,-0.10999999999978684,3.959999999999254
17.017000000000003,-3.57,-1.3200000000002843,1.7099999999999644
17.037000000000003,-3.99,-2.040000000000089,0.9899999999998756
17.057000000000002,-4.370000000000036,-2.6099999999998578,0.27
17.077,-3.84,-1.54,-0.32
17.097,0.12,3.59,-2.73
17.117000000000004,3.603333333333965,3.5733333333333728,-4.4233333333335505
17.137000000000004,5.610000000000178,3.800000000000083,-4.709999999999988
17.157000000000004,6.314285714285734,4.46714285714289,-4.738571428571468
17.177000000000003,6.530000000000107,4.459999999999976,-5.680000000000035
17.197000000000003,7.216666666666699,3.2333333333331598,-4.71333333333316
17.217000000000002,6.349999999999904,2.4600000000000284,-3.930000000000025
17.237000000000002,3.4299999999996094,3.870000000000237,-5.130000000000118
17.257,1.501999999999946,4.928000000000026,-5.219999999999971
17.277000000000005,0.6099999999998401,5.315000000000079,-4.029999999999467
17.297000000000004,0.620000000000071,4.949999999999882,-2.1699999999998223
17.317000000000004,1.1114285714286294,4.371428571428508,-1.4999999999999594
17.337000000000003,1.9700000000003908,3.3299999999995027,-1.3100000000000356
17.357000000000003,2.8233333333333728,1.8233333333332071,-1.366666666666651
17.377000000000002,2.789999999999941,0.5499999999998579,-0.6499999999997987
17.397000000000002,2.0299999999998755,-0.18000000000007993,1.1800000000002486
17.417,0.6499999999998342,-0.7966666666667219,3.3533333333335387
17.437,-1.36,-1.25,5.0
17.457000000000004,-3.5300000000002485,-0.5599999999998313,5.219999999999929
17.477000000000004,-5.440000000000154,0.9900000000001657,4.5199999999999285
17.497000000000003,-5.519999999999786,0.8599999999996921,4.6500000000001895
17.517000000000003,-2.909999999999574,-1.3200000000002843,6.550000000000237
17.537000000000003,-0.939999999999917,-2.099999999999846,6.749999999999869
17.557000000000002,-1.3800000000002248,-0.8399999999998697,5.329999999999645
17.577,-2.96,-0.41,2.95
17.597,-3.84,-0.06,1.47
17.617000000000004,-4.08,-0.720000000000154,0.7699999999999881
17.637000000000004,-3.8199999999999763,-1.6100000000002488,0.87
17.657000000000004,-3.900000000000071,-2.3299999999999765,0.9299999999999645
17.677000000000003,-4.519999999999988,-2.619999999999929,0.39999999999989344
17.697000000000003,-4.359999999999983,-2.9700000000001068,0.059999999999982234
17.717000000000002,-4.32,-3.320000000000012,0.22000000000003553
17.737000000000002,-4.259999999999953,-2.9499999999998936,0.36999999999998817
17.757,-3.7533333333333014,-2.5033333333333254,0.09666666666665087
17.777000000000005,-2.389999999999799,-2.420000000000012,-0.5900000000000829
17.797000000000004,-1.3999999999999406,-2.0899999999998697,-1.1100000000000594
17.817000000000004,-1.3200000000000118,-0.6899999999997157,-1.5100000000000948
17.837000000000003,-1.38,1.2950000000002397,-2.2750000000001154
17.857000000000003,-1.0899999999999594,3.1600000000000965,-3.560000000000076
17.877000000000002,-0.09999999999968026,4.560000000000177,-4.4200000000001065
17.897000000000002,1.710000000000444,4.8,-4.429999999999964
17.917,3.57,5.23,-4.65
17.937,4.8,5.41,-5.49
17.957000000000004,6.97000000000016,3.6299999999997246,-3.7599999999997067
17.977000000000004,6.779999999999716,2.8400000000001184,-2.210000000000071
17.997000000000003,4.714999999999671,3.590000000000142,-3.390000000000213
18.017000000000003,2.863846153846095,4.5961538461538805,-4.283846153846169
18.037000000000003,0.7199999999999408,5.840000000000024,-2.9699999999997395
18.057000000000002,0.7800000000000711,5.769999999999964,-1.1199999999998225
18.077,1.74,5.08,-0.02
18.097,2.92,4.04,0.0
18.117000000000004,3.840000000000083,2.509999999999763,-0.12999999999997633
18.137000000000004,4.009999999999911,0.9399999999996802,0.3700000000002487
18.157000000000004,3.089999999999831,-0.46000000000013325,1.890000000000213
18.177000000000003,1.2499999999995204,-1.3900000000001242,3.790000000000373
18.197000000000003,-0.9600000000004973,-1.6399999999999644,5.060000000000177
18.217000000000002,-3.120000000000462,-1.1999999999997868,5.229999999999894
18.237000000000002,-4.950000000000284,-0.06999999999982237,4.7899999999999645
18.257,-5.347142857142843,0.1642857142857056,4.914285714285726
18.277000000000005,-2.8366666666660825,-1.4966666666671244,5.63
18.297000000000004,-1.0266666666666036,-3.393333333333444,5.213333333333255
18.317000000000004,-2.0200000000003673,-2.179999999999645,5.169999999999953
18.337000000000003,-4.803333333333728,0.4233333333337281,4.02333333333297
18.357000000000003,-5.757499999999995,1.1524999999999688,1.98249999999988
18.377000000000002,-4.979999999999681,0.13999999999969803,0.5699999999999111
18.397000000000002,-3.509999999999886,-1.1300000000000923,0.7800000000000498
18.417,-2.6399999999999766,-1.8366666666666747,1.08
18.437000000000005,-2.523333333333349,-2.15,0.9166666666666509
18.457000000000004,-2.740000000000089,-2.470000000000089,0.8099999999999823
18.477000000000004,-3.230000000000142,-2.6900000000000177,0.8900000000000355
18.497000000000003,-3.7300000000000475,-2.366666666666556,0.9666666666666508
18.517000000000003,-3.74647058823529,-1.965588235294112,0.693823529411757
18.537000000000003,-3.7229411764705835,-1.9361764705882294,0.6526470588235213
18.557000000000002,-2.6499999999997867,-1.2399999999994316,-0.4700000000003197
18.577,-2.22,0.53,-1.58
18.597,-1.6099999999998755,1.6450000000001332,-2.420000000000142
18.617000000000004,0.010000000000177636,2.0600000000000356,-4.010000000000302
18.637000000000004,0.6700000000000947,2.6800000000002844,-5.543333333333586
18.657000000000004,1.4228571428572472,4.707142857142981,-6.035714285714266
18.677000000000003,1.937500000000211,5.110000000000044,-5.937499999999945
18.697000000000003,4.390000000000196,5.340000000000053,-6.320000000000107
18.717000000000002,6.917500000000193,4.14249999999978,-6.607499999999954
18.737000000000002,7.649999999999867,2.430000000000009,-5.699999999999938
18.757,6.324166666666597,2.645000000000012,-5.673333333333349
18.777000000000005,4.5599999999985785,3.0800000000004975,-6.15000000000032
18.797000000000004,0.17333333333301754,4.990000000000142,-4.3799999999995265
18.817000000000004,-1.1366666666668879,5.503333333333444,-2.13333333333297
18.837000000000003,-1.930000000000071,5.96,-0.8399999999998223
18.857000000000003,-1.74749999999996,5.522499999999951,-0.48
18.877000000000002,-0.679999999999929,4.263333333333255,-0.34999999999997633
18.897000000000002,1.0300000000001954,2.494999999999796,0.535000000000151
18.917,2.5500000000001064,0.8149999999998134,2.0650000000001687
18.937000000000005,2.7199999999998403,-0.6200000000002664,3.3200000000002308
18.957000000000004,1.4124999999997447,-1.442500000000011,4.190000000000088
18.977000000000004,-0.6566666666671246,-0.8266666666664614,4.873333333333443
18.997000000000003,-3.0700000000004977,0.27500000000023095,5.295000000000089
19.017000000000003,-4.680000000000142,0.8600000000000355,6.075000000000267
19.037000000000003,-3.789999999999769,0.059999999999840126,7.41500000000008
19.057000000000002,-2.1949999999999203,-0.8800000000000533,6.854999999999814
19.077,-2.2700000000000355,-0.9466666666666627,5.179999999999929
19.097000000000005,-3.180000000000266,-0.7449999999998668,3.8249999999996005
19.117000000000004,-3.603333333333349,-0.3166666666666509,2.5433333333330177
19.137000000000004,-3.364999999999876,-0.7050000000001955,1.0349999999997692
19.157000000000004,-2.9299999999999526,-1.7200000000001894,0.6166666666666982
19.177000000000003,-2.910000000000071,-2.4500000000001068,0.8450000000000533
19.197000000000003,-3.530000000000089,-2.820000000000018,0.93
19.217000000000002,-4.34500000000008,-3.045000000000009,0.7649999999999734
19.237000000000002,-5.030000000000023,-3.0666666666666624,0.5766666666666627
19.257,-5.23,-2.9945454545454537,0.5427272727272731
19.277000000000005,-4.83499999999976,-2.6599999999998936,0.47499999999986675
19.297000000000004,-3.836666666666414,-2.4099999999999526,0.043333333333254384
19.317000000000004,-2.6899999999995736,-1.9999999999997158,-0.18000000000007105
19.337000000000003,-2.0533333333333017,-1.0966666666663667,-0.49333333333344387
19.357000000000003,-1.9899999999999882,1.2266666666668167,-1.2400000000000473
19.377000000000002,-1.0249999999998134,4.020000000000195,-2.425000000000151
19.397000000000002,1.0466666666667812,4.336666666666627,-3.9833333333334204
19.417,3.0,3.61,-5.22
19.437000000000005,4.270000000000248,3.750000000000284,-5.560000000000213
19.457000000000004,4.473333333333349,4.513333333333492,-6.163333333333397
19.477000000000004,5.276666666666983,3.979999999999526,-5.459999999999669
19.497000000000003,6.259000000000027,2.2659999999999356,-4.277999999999955
19.517000000000003,5.044999999999485,2.535000000000231,-4.500000000000391
19.537000000000003,2.6466666666665564,3.546666666666722,-5.846666666666686
19.557000000000002,0.814999999999849,4.365000000000062,-5.144999999999813
19.577,0.009999999999964471,4.685000000000009,-3.204999999999796
19.597000000000005,0.10000000000005922,4.713333333333313,-1.9666666666665382
19.617000000000004,1.233333333333669,3.8766666666663903,-1.2199999999998816
19.637000000000004,2.5800000000002843,2.379999999999609,-0.6499999999998578
19.657000000000004,3.370000000000071,0.5899999999996092,0.3400000000003197
19.677000000000003,3.009999999999905,-0.996666666666793,2.176666666666864
19.697000000000003,1.7599999999998224,-1.7550000000000268,4.030000000000195
19.717000000000002,0.12999999999914735,-1.7099999999997868,5.480000000000569
19.737000000000002,-2.0050000000002397,-1.0699999999998933,6.250000000000018
19.757000000000005,-3.7500000000001372,-0.3557142857142205,6.158571428571422
19.777000000000005,-4.566666666666509,0.5266666666666864,6.470000000000119
19.797000000000004,-2.7233333333328438,-0.4100000000003316,6.753333333333271
19.817000000000004,-1.214999999999911,-1.9850000000001597,5.9299999999997866
19.837000000000003,-1.7400000000002842,-1.2549999999995913,5.35499999999984
19.857000000000003,-2.7940000000000342,0.2640000000000554,4.18199999999991
19.877000000000002,-2.7249999999999375,0.07499999999990231,1.9299999999997692
19.897000000000002,-2.1699999999999466,-0.8850000000001155,0.7499999999999822
19.917,-1.89,-1.92,1.27
19.937000000000005,-2.3800000000002663,-2.70000000000016,2.0350000000001334
19.957000000000004,-3.3666666666668874,-2.9033333333333493,2.129999999999953
19.977000000000004,-4.41666666666684,-3.04,1.9133333333333016
19.997000000000003,-5.206666666666793,-2.996666666666651,1.8966666666666983
20.017000000000003,-5.406842105263169,-2.9726315789473663,1.9573684210526336
20.037000000000003,-5.242499999999969,-2.9649999999999914,1.817499999999978
20.057000000000002,-4.329999999999882,-2.469999999999917,1.2099999999999171
20.077,-3.613333333333278,-1.2433333333331595,0.3766666666665561
20.097000000000005,-2.8999999999998507,1.0640000000003083,-1.1380000000002188
20.117000000000004,-1.3942857142854672,2.4828571428572386,-2.3971428571429847
20.137000000000004,2.1533333333335856,2.113333333333278,-3.7300000000000946
20.157000000000004,3.780000000000178,2.190000000000107,-4.8950000000003016
20.177000000000003,4.057999999999983,2.4520000000000173,-6.054000000000062
20.197000000000003,3.9799999999999787,2.5180000000000127,-6.280000000000043
20.217000000000002,2.553333333333207,2.890000000000071,-7.196666666666675
20.237000000000002,2.193333333333444,3.986666666666675,-5.979999999999834
20.257000000000005,2.8433333333333373,3.9433333333333374,-5.026666666666663
20.277000000000005,2.2566666666664497,4.666666666666864,-5.850000000000177
20.297000000000004,1.5799999999997514,5.210000000000178,-5.719999999999538
20.317000000000004,1.2199999999999882,5.490000000000012,-3.9799999999997513
20.337000000000003,1.22,5.449999999999976,-2.6899999999999054
20.357000000000003,1.2900000000000178,5.109999999999929,-2.209999999999982
20.377000000000002,1.6033333333333728,4.166666666666533,-2.0433333333333015
20.397000000000002,1.8633333333333373,2.603333333333243,-1.1833333333332543
20.417000000000005,1.5649999999997601,0.6949999999994938,1.080000000000906
20.437000000000005,0.4799999999997039,-0.28000000000011843,3.690000000000533
20.457000000000004,-0.770000000000296,-0.6266666666666864,5.263333333333609
20.477000000000004,-1.8766666666667693,-0.8033333333333728,6.006666666666698
20.497000000000003,-2.8500000000001067,-1.0199999999999467,5.814999999999973
20.517000000000003,-3.6600000000002844,-0.009999999999396039,5.810000000000142
20.537000000000003,-3.433333333333207,1.0166666666666746,6.069999999999976
20.557000000000002,-1.2999999999996565,-0.26000000000030793,5.299999999999882
20.577,0.36000000000010657,-1.8700000000001067,4.85
20.597000000000005,-0.07000000000027239,-1.3199999999997514,4.929999999999905
20.617000000000004,-2.020000000000693,0.2950000000005063,3.4249999999991205
20.637000000000004,-3.6900000000001185,0.9399999999999763,0.22999999999968027
20.657000000000004,-3.9799999999999525,0.22999999999981052,-0.7299999999999289
20.677000000000003,-3.5499999999999052,-1.1866666666669825,0.026666666666840352
20.697000000000003,-3.28,-2.4500000000000712,0.64
20.717000000000002,-3.4400000000000355,-2.749999999999991,0.3699999999999467
20.737000000000002,-3.6800000000000357,-2.8200000000000354,0.029999999999976313
20.757000000000005,-3.8311111111111242,-3.0066666666666864,0.0766666666666864
20.777000000000005,-3.8599999999999857,-3.139999999999993,0.5500000000000214
20.797000000000004,-3.463333333333223,-2.889999999999858,0.5833333333332701
20.817000000000004,-2.8599999999999053,-2.1199999999998815,0.21999999999995262
20.837000000000003,-2.38599999999998,-1.4719999999999744,0.011999999999988631
20.857000000000003,-1.7299999999998696,-0.18999999999973946,-0.7500000000001658
20.877000000000002,-0.47999999999985077,1.620000000000135,-1.8700000000000854
20.897000000000002,1.3200000000002605,2.7400000000000713,-2.790000000000154
20.917000000000005,2.9800000000001776,2.659999999999929,-3.8600000000000976
20.937000000000005,4.380000000000089,1.8999999999999289,-4.480000000000045
20.957000000000004,4.339999999999884,2.2900000000001777,-5.440000000000178
20.977000000000004,3.5400000000000236,4.020000000000047,-6.349999999999893
20.997000000000003,4.470000000000118,3.119999999999787,-4.5299999999997045
21.017000000000003,4.119999999999787,2.710000000000142,-3.7100000000000946
21.037000000000003,2.379999999999739,3.780000000000142,-4.690000000000083
21.057000000000002,1.0499999999998817,4.410000000000047,-4.589999999999858
21.077000000000005,0.5899999999999911,4.620000000000009,-3.2899999999998313
21.097000000000005,0.6725000000000401,4.6124999999999865,-2.0474999999998533
21.117000000000004,1.0433333333334438,4.439999999999905,-1.5466666666666509
21.137000000000004,1.7350000000001597,3.6699999999997512,-1.6200000000000356
21.157000000000004,2.5500000000001597,2.4099999999997337,-1.5899999999999113
21.177000000000003,3.1100000000000265,1.2099999999998756,-0.799999999999849
21.197000000000003,2.9699999999999056,-1.776356839400183e-13,1.1300000000003552
21.217000000000002,2.0066666666665323,-0.9266666666667456,3.213333333333515
21.237000000000002,0.2699999999997158,-1.129999999999917,4.630000000000142
21.257000000000005,-1.330000000000133,-0.37874999999992787,5.102500000000012
21.277000000000005,-3.3600000000000994,1.1700000000000994,4.830000000000014
21.297000000000004,-3.5274999999998533,1.41249999999988,5.735000000000293
21.317000000000004,-1.7899999999997869,-0.3000000000002842,7.390000000000035
21.337000000000003,-1.5800000000002132,-1.2999999999998462,6.429999999999751
21.357000000000003,-3.950000000000311,0.07000000000014212,4.389999999999742
21.377000000000002,-5.71333333333342,0.9533333333333728,2.5833333333331834
21.397000000000002,-5.529999999999876,0.6699999999998935,0.8999999999998402
21.417000000000005,-4.199999999999858,-0.3300000000001066,0.10999999999998224
21.437000000000005,-2.346666666666331,-1.9033333333336688,0.16333333333337283
21.457000000000004,-1.6099999999999883,-2.810000000000059,0.3100000000000237
21.477000000000004,-1.8000000000001066,-3.1100000000000354,0.44000000000003553
21.497000000000003,-2.3300000000001244,-3.3000000000000353,0.6500000000000533
21.517000000000003,-2.8800000000001065,-3.4000000000000354,1.0700000000001066
21.537000000000003,-3.169999999999982,-3.3899999999999646,1.4800000000000177
21.557000000000002,-2.9199999999999555,-3.099999999999947,1.2799999999999467
21.577000000000005,-2.539999999999929,-2.4299999999997337,0.7199999999998934
21.597000000000005,-2.399999999999991,-1.1299999999997867,0.13999999999988455
21.617000000000004,-2.193333333333306,0.5600000000001066,-0.8533333333334004
21.637000000000004,-0.2099999999998376,2.6400000000000405,-2.330000000000056
21.657000000000004,2.3000000000004794,2.72,-3.2600000000002662
21.677000000000003,3.9100000000001955,2.7499999999999467,-4.920000000000444
21.697000000000003,4.320000000000024,2.4700000000000357,-6.470000000000095
21.717000000000002,4.199999999999894,2.8100000000000356,-6.840000000000142
21.737000000000005,3.8300000000000356,3.320000000000083,-7.159999999999882
21.757000000000005,4.390000000000071,3.0699999999999186,-5.839999999999832
21.777000000000005,4.439999999999663,2.2000000000001245,-3.970000000000178
21.797000000000004,2.2299999999996327,3.1600000000002253,-5.420000000000166
21.817000000000004,-0.08000000000040856,4.340000000000231,-5.399999999999681
21.837000000000003,-1.1950000000000398,4.965000000000013,-3.6799999999998403
21.857000000000003,-0.9666666666666272,4.773333333333314,-1.9166666666666035
21.877000000000002,-0.04999999999975131,4.189999999999823,-0.9599999999998579
21.897000000000002,1.1033333333333846,3.1066666666666034,-0.35333333333330175
21.917000000000005,1.8900000000003196,1.919999999999396,0.32000000000042633
21.937000000000005,2.233333333333314,0.35333333333301753,1.6933333333337282
21.957000000000004,1.6433333333331597,-0.7366666666667929,3.6133333333336806
21.977000000000004,0.6733333333331123,-1.1800000000000472,5.173333333333586
21.997000000000003,-0.6566666666669825,-1.3433333333333493,6.043333333333397
22.017000000000003,-2.420000000000444,-0.8799999999997868,5.7299999999998406
22.037000000000003,-4.076666666666734,0.31666666666672194,5.183333333333326
22.057000000000002,-4.489999999999823,0.49999999999978684,5.600000000000177
22.077000000000005,-2.8899999999996213,-1.1533333333336333,6.083333333333349
22.097000000000005,-1.7299999999999645,-2.039999999999929,6.07
22.117000000000004,-2.490000000000261,-1.0499999999997631,5.859999999999847
22.137000000000004,-4.3625000000001535,0.21000000000010657,4.01249999999978
22.157000000000004,-5.710000000000142,1.310000000000071,1.0699999999994494
22.177000000000003,-5.406666666666414,0.9966666666665088,-0.3
22.197000000000003,-3.8149999999999022,-0.2675000000000844,0.06000000000001776
22.217000000000002,-2.303333333333278,-1.3733333333333728,-2.368244489403537e-14
22.237000000000005,-1.5499999999998224,-2.1500000000004262,-0.5100000000002487
22.257000000000005,-1.4444444444444497,-2.830000000000047,-0.8533333333333492
22.277000000000005,-2.083333333333491,-3.410000000000047,-0.6466666666665561
22.297000000000004,-2.9825000000001447,-3.209999999999911,-0.024999999999933388
22.317000000000004,-3.8150000000000666,-2.48249999999994,0.21750000000000666
22.337000000000003,-4.360000000000018,-1.7599999999998224,0.10999999999992895
22.357000000000003,-4.113333333333301,-0.5299999999999171,-0.26333333333334913
22.377000000000002,-3.0533333333332546,1.4366666666667693,-0.7166666666666982
22.397000000000006,-0.8199999999994789,3.18666666666684,-1.6933333333335858
22.417000000000005,1.820000000000533,3.450000000000018,-3.2200000000003555
22.437000000000005,3.7566666666668875,3.7333333333333965,-4.593333333333491
22.457000000000004,4.400000000000047,4.053333333333444,-4.609999999999905
22.477000000000004,4.416666666666651,4.7333333333333965,-4.733333333333586
22.497000000000003,4.5825000000001,4.7849999999999335,-5.997499999999989
22.517000000000003,5.444000000000063,3.415999999999852,-4.817999999999841
22.537000000000003,5.184999999999832,2.620000000000089,-3.405000000000027
22.557000000000002,3.043333333333207,3.7266666666667336,-4.473333333333397
22.577000000000005,0.8299999999996684,4.9433333333334915,-4.873333333333207
22.597000000000005,-0.28000000000014214,5.1199999999998935,-3.4199999999995025
22.617000000000004,-0.5699999999999644,4.850000000000011,-1.3199999999997751
22.637000000000004,-0.019999999999866774,4.807499999999989,-0.3124999999999223
22.657000000000004,1.375000000000373,4.359999999999786,0.13500000000008883
22.677000000000003,3.180000000000853,3.079999999999183,0.5700000000002486
22.697000000000003,4.850000000000054,0.8524999999998624,1.1300000000000356
22.717000000000002,4.863333333333278,-1.7733333333334438,2.2266666666667456
22.737000000000005,3.955714285714086,-2.807142857142985,3.2642857142859136
22.757000000000005,0.749999999999778,-2.486249999999872,5.6325000000001
22.777000000000005,-3.7250000000012524,0.8000000000007994,6.134999999999813
22.797000000000004,-6.5700000000002845,2.0400000000000236,5.750000000000024
22.817000000000004,-6.819999999999733,1.4549999999998002,6.4425000000001
22.837000000000003,-3.619999999999254,-0.5350000000005152,6.049999999999716
22.857000000000003,-1.6449999999999378,-2.5450000000000976,5.149999999999983
22.877000000000002,-2.3700000000009593,-2.0499999999992538,5.079999999999822
22.897000000000006,-4.735000000000559,0.3800000000006928,3.954999999999334
22.917000000000005,-5.419999999999957,1.0999999999999646,1.559999999999787
22.937000000000005,-4.169999999999556,-0.060000000000390796,0.21
22.957000000000004,-2.359999999999763,-2.0866666666668876,0.4733333333333965
22.977000000000004,-1.8800000000000356,-2.775000000000053,0.5449999999999467
22.997000000000003,-2.416000000000051,-2.8200000000000283,0.34199999999998865
23.017000000000003,-3.0200000000001244,-2.9899999999999824,0.41000000000007103
23.037000000000003,-3.6400000000002843,-2.989999999999929,0.6900000000001065
23.057000000000006,-3.99,-2.6049999999998135,0.5999999999998934
23.077000000000005,-3.624999999999707,-2.04999999999984,0.22499999999986678
23.097000000000005,-2.709999999999787,-1.5299999999998757,-0.20000000000012436
23.117000000000004,-1.8199999999998817,-0.6099999999997632,-0.6700000000000711
23.137000000000004,-0.7399999999997158,1.4350000000004797,-1.190000000000142
23.157000000000004,0.7725000000002331,3.0500000000001335,-2.1075000000001665
23.177000000000003,2.205000000000231,3.314999999999982,-3.525000000000302
23.197000000000003,2.9366666666666985,3.3766666666666745,-4.850000000000047
23.217000000000002,3.5300000000000535,3.6500000000000536,-5.164999999999973
23.237000000000005,3.8125000000000133,3.8525000000000134,-5.222500000000067
23.257000000000005,3.976000000000031,4.0529999999999955,-5.327999999999976
23.277000000000005,5.2700000000000475,2.463333333333065,-4.0599999999998575
23.297000000000004,4.503333333333018,2.8766666666669822,-4.17666666666684
23.317000000000004,2.8099999999997634,4.600000000000224,-5.150000000000107
23.337000000000003,1.6149999999998401,5.590000000000071,-5.074999999999768
23.357000000000003,1.2124999999999866,5.722500000000005,-3.5924999999998977
23.377000000000002,0.9999999999998934,5.599999999999964,-2.1999999999996094
23.397000000000006,0.9698750821827744,5.59,-2.0893754109138722
23.417000000000005,0.9697435897435897,5.59,-2.0887179487179486
23.437000000000005,0.9696120973044049,5.59,-2.0880604865220245
23.457000000000004,0.9694806048652201,5.59,-2.087403024326101
23.477000000000004,0.9693491124260355,5.59,-2.086745562130177
23.497000000000003,0.9692176199868507,5.59,-2.0860880999342535
23.517000000000003,0.969086127547666,5.59,-2.08543063773833
23.537000000000003,0.9689546351084812,5.59,-2.084773175542406
23.557000000000006,0.9688231426692965,5.59,-2.084115713346482
23.577000000000005,0.9686916502301117,5.59,-2.0834582511505584
23.597000000000005,0.968560157790927,5.59,-2.0828007889546347
23.617000000000004,0.9684286653517422,5.59,-2.082143326758711
23.637000000000004,0.9682971729125575,5.59,-2.0814858645627874
23.657000000000004,0.9681656804733727,5.59,-2.0808284023668637
23.677000000000003,0.968034188034188,5.59,-2.08017094017094
23.697000000000003,0.9679026955950032,5.59,-2.0795134779750164
23.717000000000002,0.9677712031558185,5.59,-2.0788560157790923
23.737000000000005,0.9676397107166337,5.59,-2.0781985535831686
23.757000000000005,0.967508218277449,5.59,-2.077541091387245
23.777000000000005,0.9673767258382643,5.59,-2.0768836291913213
23.797000000000004,0.9672452333990795,5.59,-2.0762261669953976
23.817000000000004,0.9671137409598948,5.59,-2.075568704799474
23.837000000000003,0.96698224852071,5.59,-2.07491124260355
23.857000000000003,0.9668507560815253,5.59,-2.074253780407626
23.877000000000002,0.9667192636423405,5.59,-2.0735963182117025
23.897000000000006,0.9665877712031558,5.59,-2.072938856015779
23.917000000000005,0.966456278763971,5.59,-2.072281393819855
23.937000000000005,0.9663247863247862,5.59,-2.0716239316239315
23.957000000000004,0.9661932938856015,5.59,-2.0709664694280074
23.977000000000004,0.9660618014464167,5.59,-2.0703090072320838
23.997000000000003,0.965930309007232,5.59,-2.06965154503616
24.017000000000003,0.9657988165680473,5.59,-2.0689940828402364
24.037000000000003,0.9656673241288626,5.59,-2.068336620644313
24.057000000000006,0.9655358316896778,5.59,-2.067679158448389
24.077000000000005,0.9654043392504931,5.59,-2.067021696252465
24.097000000000005,0.9652728468113083,5.59,-2.0663642340565413
24.117000000000004,0.9651413543721236,5.59,-2.0657067718606177
24.137000000000004,0.9650098619329388,5.59,-2.065049309664694
24.157000000000004,0.964878369493754,5.59,-2.0643918474687704
24.177000000000003,0.9647468770545693,5.59,-2.0637343852728467
24.197000000000003,0.9646153846153845,5.59,-2.063076923076923
24.217000000000006,0.9644838921761998,5.59,-2.062419460880999
24.237000000000005,0.964352399737015,5.59,-2.0617619986850753
24.257000000000005,0.9642209072978303,5.59,-2.0611045364891516
24.277000000000005,0.9640894148586455,5.59,-2.060447074293228
24.297000000000004,0.9639579224194609,5.59,-2.0597896120973043
24.317000000000004,0.9638264299802761,5.59,-2.0591321499013806
24.337000000000003,0.9636949375410914,5.59,-2.058474687705457
24.357000000000003,0.9635634451019066,5.59,-2.057817225509533
24.377000000000002,0.9634319526627219,5.59,-2.057159763313609
24.397000000000006,0.9633004602235371,5.59,-2.0565023011176855
24.417000000000005,0.9631689677843523,5.59,-2.055844838921762
24.437000000000005,0.9630374753451676,5.59,-2.055187376725838
24.457000000000004,0.9629059829059828,5.59,-2.0545299145299145
24.477000000000004,0.9627744904667981,5.59,-2.0538724523339904
24.497000000000003,0.9626429980276133,5.59,-2.0532149901380667
24.517000000000003,0.9625115055884286,5.59,-2.052557527942143
24.537000000000003,0.9623800131492438,5.59,-2.0519000657462194
24.557000000000006,0.9622485207100591,5.59,-2.0512426035502958
24.577000000000005,0.9621170282708743,5.59,-2.050585141354372
24.597000000000005,0.9619855358316897,5.59,-2.049927679158448
24.617000000000004,0.9618540433925049,5.59,-2.0492702169625243
24.637000000000004,0.9617225509533202,5.59,-2.0486127547666007
24.657000000000004,0.9615910585141354,5.59,-2.047955292570677
24.677000000000003,0.9614595660749506,5.59,-2.0472978303747533
24.697000000000003,0.9613280736357659,5.59,-2.0466403681788297
24.717000000000006,0.9611965811965811,5.59,-2.0459829059829056
24.737000000000005,0.9610650887573964,5.59,-2.045325443786982
24.757000000000005,0.9609335963182116,5.59,-2.0446679815910582
24.777000000000005,0.9608021038790269,5.59,-2.0440105193951346
24.797000000000004,0.9606706114398421,5.59,-2.043353057199211
24.817000000000004,0.9605391190006574,5.59,-2.0426955950032872
24.837000000000003,0.9604076265614727,5.59,-2.0420381328073636
24.857000000000003,0.960276134122288,5.59,-2.04138067061144
24.877000000000006,0.9601446416831032,5.59,-2.040723208415516
24.897000000000006,0.9600131492439185,5.59,-2.040065746219592
24.917000000000005,0.9598816568047337,5.59,-2.0394082840236685
24.937000000000005,0.9597501643655489,5.59,-2.038750821827745
24.957000000000004,0.9596186719263642,5.59,-2.038093359631821
24.977000000000004,0.9594871794871794,5.59,-2.0374358974358975
24.997000000000003,0.9593556870479947,5.59,-2.0367784352399734
25.017000000000003,0.9592241946088099,5.59,-2.0361209730440497
25.037000000000003,0.9590927021696252,5.59,-2.035463510848126
25.057000000000006,0.9589612097304404,5.59,-2.0348060486522024
25.077000000000005,0.9588297172912557,5.59,-2.0341485864562787
25.097000000000005,0.9586982248520709,5.59,-2.033491124260355
25.117000000000004,0.9585667324128861,5.59,-2.032833662064431
25.137000000000004,0.9584352399737015,5.59,-2.0321761998685073
25.157000000000004,0.9583037475345167,5.59,-2.0315187376725836
25.177000000000003,0.958172255095332,5.59,-2.03086127547666
25.197000000000003,0.9580407626561472,5.59,-2.0302038132807363
25.217000000000006,0.9579092702169625,5.59,-2.0295463510848126
25.237000000000005,0.9577777777777777,5.59,-2.0288888888888885
25.257000000000005,0.957646285338593,5.59,-2.028231426692965
25.277000000000005,0.9575147928994082,5.59,-2.027573964497041
25.297000000000004,0.9573833004602235,5.59,-2.0269165023011175
25.317000000000004,0.9572518080210387,5.59,-2.026259040105194
25.337000000000003,0.957120315581854,5.59,-2.02560157790927
25.357000000000003,0.9569888231426692,5.59,-2.0249441157133465
25.377000000000006,0.9568573307034844,5.59,-2.0242866535174224
25.397000000000006,0.9567258382642997,5.59,-2.0236291913214988
25.417000000000005,0.956594345825115,5.59,-2.022971729125575
25.437000000000005,0.9564628533859303,5.59,-2.0223142669296514
25.457000000000004,0.9563313609467455,5.59,-2.0216568047337278
25.477000000000004,0.9561998685075608,5.59,-2.020999342537804
25.497000000000003,0.956068376068376,5.59,-2.0203418803418804
25.517000000000003,0.9559368836291913,5.59,-2.0196844181459563
25.537000000000006,0.9558053911900065,5.59,-2.0190269559500327
25.557000000000006,0.9556738987508218,5.59,-2.018369493754109
25.577000000000005,0.955542406311637,5.59,-2.0177120315581853
25.597000000000005,0.9554109138724522,5.59,-2.0170545693622617
25.617000000000004,0.9552794214332675,5.59,-2.0163971071663376
25.637000000000004,0.9551479289940827,5.59,-2.015739644970414
25.657000000000004,0.955016436554898,5.59,-2.0150821827744902
25.677000000000003,0.9548849441157133,5.59,-2.0144247205785666
25.697000000000003,0.9547534516765286,5.59,-2.013767258382643
25.717000000000006,0.9546219592373438,5.59,-2.0131097961867193
25.737000000000005,0.9544904667981591,5.59,-2.012452333990795
25.757000000000005,0.9543589743589743,5.59,-2.0117948717948715
25.777000000000005,0.9542274819197896,5.59,-2.011137409598948
25.797000000000004,0.9540959894806048,5.59,-2.010479947403024
25.817000000000004,0.9539644970414201,5.59,-2.0098224852071005
25.837000000000003,0.9538330046022353,5.59,-2.009165023011177
25.857000000000003,0.9537015121630505,5.59,-2.008507560815253
25.877000000000006,0.9535700197238658,5.59,-2.007850098619329
25.897000000000006,0.953438527284681,5.59,-2.0071926364234054
25.917000000000005,0.9533070348454963,5.59,-2.0065351742274817
25.937000000000005,0.9531755424063115,5.59,-2.005877712031558
25.957000000000004,0.9530440499671269,5.59,-2.0052202498356344
25.977000000000004,0.9529125575279421,5.59,-2.0045627876397107
25.997000000000003,0.9527810650887574,5.59,-2.003905325443787
26.017000000000003,0.9526495726495726,5.59,-2.003247863247863
26.037000000000006,0.9525180802103879,5.59,-2.0025904010519393
26.057000000000006,0.9523865877712031,5.59,-2.0019329388560156
26.077000000000005,0.9522550953320184,5.59,-2.001275476660092
26.097000000000005,0.9521236028928336,5.59,-2.0006180144641683
26.117000000000004,0.9519921104536488,5.59,-1.9999605522682444
26.137000000000004,0.9518606180144641,5.59,-1.9993030900723208
26.157000000000004,0.9517291255752793,5.59,-1.998645627876397
26.177000000000003,0.9515976331360946,5.59,-1.9979881656804732
26.197000000000006,0.9514661406969098,5.59,-1.9973307034845496
26.217000000000006,0.9513346482577251,5.59,-1.9966732412886257
26.237000000000005,0.9512031558185403,5.59,-1.996015779092702
26.257000000000005,0.9510716633793557,5.59,-1.9953583168967783
26.277000000000005,0.9509401709401709,5.59,-1.9947008547008547
26.297000000000004,0.9508086785009862,5.59,-1.9940433925049308
26.317000000000004,0.9506771860618014,5.59,-1.9933859303090071
26.337000000000003,0.9505456936226166,5.59,-1.9927284681130835
26.357000000000003,0.9504142011834319,5.59,-1.9920710059171598
26.377000000000006,0.9502827087442471,5.59,-1.991413543721236
26.397000000000006,0.9501512163050624,5.59,-1.9907560815253122
26.417000000000005,0.9500197238658776,5.59,-1.9900986193293884
26.437000000000005,0.9231578947368382,5.608421052631581,-1.8594736842105146
26.457000000000004,1.570425531915106,4.659999999999692,-1.6810638297871991
26.477000000000004,2.3959574468086946,3.459999999999732,-1.5448936170212462
26.497000000000003,3.129999999999929,1.739999999999467,-1.2199999999997158
26.517000000000003,1.8649999999997224,0.9313157894735656,0.6060526315793235
26.537000000000006,0.5149999999995205,0.35499999999979526,2.4350000000006498
26.557000000000006,-0.8350000000004418,-0.22131578947387287,4.263947368421651
26.577000000000005,-2.710000000000345,-0.6199999999997868,5.8899999999998265
26.597000000000005,-4.651666666667184,0.5800000000003197,4.91499999999974
26.617000000000004,-5.0711688311688405,0.8470129870129954,4.713766233766232
26.637000000000004,-5.110129870129878,0.8807792207792277,4.705974025974024
26.657000000000004,-5.149090909090916,0.91454545454546,4.698181818181817
26.677000000000003,-5.188051948051953,0.9483116883116922,4.69038961038961
26.697000000000006,-5.036666666666367,0.9033333333330176,5.600000000000332
26.717000000000006,-1.6420000000001593,-2.363999999999771,5.645999999999881
26.737000000000005,-4.264999999999921,0.6099999999997868,1.6949999999996535
26.757000000000005,-3.8299999999999765,0.002499999999973357,1.347500000000003
26.777000000000005,-3.3018749999999777,-0.6250000000000255,1.4968750000000033
26.797000000000004,-2.9033333333333173,-1.02,1.3033333333332702
26.817000000000004,-2.877999999999997,-1.02,0.9719999999999887
26.837000000000003,-2.8249999999999824,-1.095000000000018,0.5849999999999111
26.857000000000006,-2.7149999999999865,-1.24500000000004,0.15499999999993339
26.877000000000006,-2.5633333333333135,-1.3966666666666863,-0.09000000000005921
26.897000000000006,-2.560000000000142,-1.5100000000002132,-0.19
26.917000000000005,-2.9100000000001067,-1.154999999999707,-0.23000000000010656
26.937000000000005,-3.11,-0.019999999999467083,-0.9800000000004263
26.957000000000004,-2.2099999999994138,1.6000000000003198,-2.5300000000004266
26.977000000000004,0.24333333333360965,1.703333333333278,-3.846666666666793
26.997000000000003,2.7800000000002134,1.1266666666666272,-5.080000000000095
27.017000000000003,4.320000000000089,1.2000000000000355,-5.474999999999973
27.037000000000006,4.21999999999968,1.8000000000002665,-4.88499999999992
27.057000000000006,3.0499999999992893,3.1000000000015633,-5.170000000000426
27.077000000000005,3.2300000000000852,3.7499999999999503,-5.329999999999957
27.097000000000005,3.7249999999999868,3.51000000000008,-5.15500000000004
27.117000000000004,3.2166666666665087,4.426666666666923,-5.6900000000001185
27.137000000000004,2.9049999999999825,5.024999999999983,-5.399999999999786
27.157000000000004,2.77,4.860000000000023,-4.239999999999882
27.177000000000003,2.93750000000001,4.972499999999977,-3.3924999999999765
27.197000000000006,3.12,4.069999999999716,-3.13
27.217000000000006,2.956666666666568,3.083333333333077,-2.9933333333332546
27.237000000000005,2.243333333333077,1.939999999999704,-2.2033333333330174
27.257000000000005,0.8399999999998312,0.8399999999999112,-0.3599999999997513
27.277000000000005,-0.7100000000002368,-0.010000000000142109,1.8500000000003198
27.297000000000004,-2.0100000000006037,-0.6600000000001421,3.5100000000007103
27.317000000000004,-3.460000000000142,-0.6199999999999822,4.920000000000062
27.337000000000003,-4.640000000000153,-0.40999999999996445,5.01999999999994
27.357000000000006,-5.179999999999929,-0.14999999999991118,4.790000000000053
27.377000000000006,-4.029999999999361,-0.5600000000004264,5.79000000000045
27.397000000000006,-2.099999999998579,-2.0100000000009945,6.97000000000071
27.417000000000005,-1.360000000000089,-2.119999999999769,7.0899999999998755
27.437000000000005,-1.8900000000003374,-1.409999999999769,6.319999999999521
27.457000000000004,-3.9700000000000624,0.12000000000010658,2.4299999999997426
27.477000000000004,-4.024999999999875,0.0949999999998046,0.564999999999698
27.497000000000003,-2.9999999999998845,-1.2500000000001776,0.11000000000002665
27.517000000000007,-2.2299999999999054,-2.3800000000001895,0.4099999999999763
27.537000000000006,-2.330000000000089,-2.6600000000000534,0.33999999999994673
27.557000000000006,-2.7400000000001423,-2.76,0.02999999999990526
27.577000000000005,-3.230000000000059,-2.9700000000000477,-0.1199999999999763
27.597000000000005,-3.5250000000000132,-3.055000000000013,0.2000000000000533
27.617000000000004,-3.2599999999999376,-3.0099999999999465,0.21999999999997336
27.637000000000004,-2.6099999999999595,-2.729999999999995,-0.3100000000000457
27.657000000000004,-2.166666666666651,-2.7433333333333256,-1.0133333333333965
27.677000000000003,-2.4945454545454733,-2.0536363636363166,-1.26
27.697000000000006,-3.040000000000142,0.040000000002060575,-1.1799999999999289
27.717000000000006,-2.32999999999955,1.970000000000308,-1.560000000000308
27.737000000000005,-0.37999999999928946,2.7000000000001187,-2.8900000000004264
27.757000000000005,1.9500000000007995,2.9650000000000265,-3.77
27.777000000000005,3.840000000000142,3.420000000000154,-3.1599999999999056
27.797000000000004,4.305000000000022,4.192500000000056,-3.410000000000222
27.817000000000004,4.780000000000213,4.58999999999994,-5.010000000000011
27.837000000000003,6.580000000000178,3.3699999999997394,-4.279999999999894
27.857000000000006,6.63999999999962,2.730000000000142,-4.440000000000356
27.877000000000006,5.069999999998011,3.240000000000782,-5.610000000000782
27.897000000000006,2.794999999999667,4.005000000000093,-5.4849999999998005
27.917000000000005,0.9833333333329584,4.760000000000177,-3.8766666666662717
27.937000000000005,-0.17000000000026644,5.190000000000053,-2.6399999999997332
27.957000000000004,-0.38999999999989343,4.879999999999733,-2.149999999999947
27.977000000000004,0.4100000000002309,3.559999999999645,-1.9299999999998934
27.997000000000003,1.4200000000001303,1.7799999999997276,-1.209999999999834
28.017000000000007,2.0400000000000476,0.20999999999962105,0.28000000000056846
28.037000000000006,1.8299999999997631,-1.2100000000004263,2.370000000000663
28.057000000000006,0.7724999999997357,-2.2625000000001085,4.525000000000404
28.077000000000005,-0.7100000000002605,-2.1999999999998936,6.140000000000166
28.097000000000005,-2.88666666666716,-0.8866666666662719,6.336666666666509
28.117000000000004,-4.490000000000107,0.20999999999998223,5.519999999999982
28.137000000000004,-3.952499999999887,-0.4225000000000999,6.35500000000012
28.157000000000004,-2.8774999999999533,-1.4724999999999933,6.9524999999999935
28.177000000000003,-2.886153846153864,-0.5546153846153569,6.543076923076883
28.197000000000006,-3.4400000000000355,-0.19999999999996448,4.189999999998828
28.217000000000006,-3.349999999999716,-0.1900000000001421,2.2299999999978684
28.237000000000005,-2.9399999999999054,-0.8300000000002605,0.2999999999999763
28.257000000000005,-2.8300000000000356,-1.820000000000154,0.7500000000001185
28.277000000000005,-3.3700000000001302,-2.5700000000000474,1.3100000000000473
28.297000000000004,-4.260000000000189,-2.67,1.3866666666666507
28.317000000000004,-5.120000000000083,-2.630000000000012,1.1399999999999526
28.337000000000003,-5.596666666666699,-2.846666666666698,0.9133333333333254
28.357000000000006,-5.681666666666657,-2.99,0.7533333333333136
28.377000000000006,-5.609999999999941,-2.9033333333332547,0.646666666666568
28.397000000000006,-4.2999999999996446,-1.3499999999996686,-0.6800000000001658
28.417000000000005,-2.969999999999645,-0.2299999999997158,-1.040000000000071
28.437000000000005,-1.2299999999995737,1.060000000000231,-1.8500000000003198
28.457000000000004,0.8600000000004618,2.1200000000002133,-3.4600000000003552
28.477000000000004,2.8766666666669822,2.990000000000142,-4.810000000000189
28.497000000000003,3.8800000000000354,3.0499999999999523,-5.33
28.517000000000007,3.4999999999998135,3.005000000000093,-4.872499999999798
28.537000000000006,2.044999999999658,4.215000000000404,-3.497499999999829
28.557000000000006,1.1600000000007815,5.580000000000355,-4.3100000000005325
28.577000000000005,4.522500000000733,4.377499999999534,-4.01249999999972
28.597000000000005,7.375000000000346,2.70499999999992,-3.3350000000003464
28.617000000000004,6.989999999999787,3.235000000000147,-5.270000000000293
28.637000000000004,5.489999999999663,4.000000000000142,-5.6699999999998045
28.657000000000004,3.956666666666414,4.75666666666684,-4.3033333333330175
28.677000000000007,2.859999999999868,5.262857142857171,-2.9471428571426967
28.697000000000006,1.6499999999995736,5.44,-1.7299999999996092
28.717000000000006,1.0233333333332544,5.169999999999822,-0.933333333333136
28.737000000000005,1.1366666666667458,3.8433333333330175,-0.12666666666650878
28.757000000000005,1.560000000000071,1.9899999999995204,0.6400000000001776
28.777000000000005,1.5874999999999602,0.024999999999706896,1.6125000000001997
28.797000000000004,0.9374999999998535,-1.235000000000133,2.9850000000002397
28.817000000000004,-0.3100000000002842,-1.73,4.440000000000237
28.837000000000003,-1.7300000000003553,-1.4499999999998756,5.370000000000142
28.857000000000006,-3.5433333333336807,-0.7766666666665561,5.536666666666603
28.877000000000006,-4.98666666666684,-0.41333333333330174,5.21
28.897000000000006,-5.23249999999986,-0.44750000000001555,5.877500000000264
28.917000000000005,-3.329999999999556,-0.9800000000002309,7.150000000000089
28.937000000000005,-2.4100000000001067,-2.0500000000000353,6.989999999999941
28.957000000000004,-4.593333333334012,-0.6833333333327807,6.023333333332923
28.977000000000004,-7.5000000000003375,2.1800000000004442,3.279999999999325
28.997000000000003,-7.50333333333297,2.116666666666272,0.8033333333331123
29.017000000000007,-4.753333333332283,-0.08666666666738511,0.6466666666668048
29.037000000000006,-2.4449999999997276,-1.5750000000001776,0.7499999999999764
29.057000000000006,-1.3833333333333018,-2.0700000000000474,0.5199999999999526
29.077000000000005,-1.6000000000001184,-2.173333333333314,0.4266666666666864
29.097000000000005,-2.203333333333444,-2.2500000000000475,0.6200000000000474
29.117000000000004,-2.5666666666666984,-2.413333333333349,0.8033333333333492
29.137000000000004,-2.5099999999999643,-2.570000000000053,0.7499999999999645
29.157000000000004,-2.5100000000000473,-2.609999999999953,0.49999999999995265
29.177000000000007,-2.886000000000051,-2.325999999999955,0.21999999999996803
29.197000000000006,-3.4500000000000535,-1.1174999999997202,-0.2625000000001199
29.217000000000006,-2.9599999999997157,1.0933333333336808,-1.3000000000002367
29.237000000000005,-0.553333333332686,2.3600000000000945,-2.553333333333586
29.257000000000005,2.390000000001528,2.1199999999995383,-3.670000000000604
29.277000000000005,5.450000000000409,1.1099999999999468,-5.050000000000142
29.297000000000004,6.800000000000082,1.2500000000000118,-5.309999999999964
29.317000000000004,6.419999999999716,1.0233333333332544,-5.550000000000142
29.337000000000007,4.77999999999929,1.4400000000004618,-6.0399999999999645
29.357000000000006,3.4499999999989344,2.5100000000010656,-5.48999999999929
29.377000000000006,1.8166666666663192,4.203333333333728,-5.266666666666794
29.397000000000006,0.5799999999997868,5.940000000000533,-5.990000000000142
29.417000000000005,0.7000000000001065,6.0549999999998665,-5.4474999999997475
29.437000000000005,1.6800000000004973,5.539999999999929,-3.4999999999992184
29.457000000000004,2.620000000000089,4.997499999999899,-2.3824999999999665
29.477000000000004,3.016666666666698,4.389999999999858,-2.5100000000000473
29.497000000000003,2.954999999999947,3.4399999999997513,-2.5149999999999113
29.517000000000007,2.5199999999992895,2.209999999998934,-1.6299999999985788
29.537000000000006,1.479999999999627,1.0499999999997336,0.605000000000826
29.557000000000006,0.2699999999987921,0.3199999999993605,2.8700000000018475
29.577000000000005,-1.165000000000453,-0.4350000000002398,4.835000000000506
29.597000000000005,-2.410000000000237,-0.9333333333333491,5.9033333333334435
29.617000000000004,-3.663333333333586,-0.6366666666665087,5.899999999999905
29.637000000000004,-4.496666666666698,0.12000000000004737,5.826666666666745
29.657000000000004,-4.089999999999858,-0.4366666666668404,6.326666666666651
29.677000000000007,-3.7525000000000057,-0.6324999999999822,5.6324999999999115
29.697000000000006,-3.953333333333349,-0.31,4.57333333333316
29.717000000000006,-3.7799999999997866,-0.5700000000001421,3.209999999999112
29.737000000000005,-3.1599999999993607,-0.8100000000003553,1.0699999999982948
29.757000000000005,-2.4859999999999305,-1.4040000000000696,-0.2620000000000597
29.777000000000005,-2.08499999999992,-1.9550000000001866,-0.32499999999997337
29.797000000000004,-2.060000000000053,-2.7250000000001333,-0.2849999999999734
29.817000000000004,-2.496666666666793,-2.956666666666651,-0.27333333333334914
29.837000000000007,-3.0700000000001655,-2.6866666666665564,-0.31666666666663906
29.857000000000006,-3.4475000000000398,-2.5249999999999733,-0.39750000000004
29.877000000000006,-3.58,-2.39499999999992,-0.6800000000001065
29.897000000000006,-3.203333333333207,-2.2166666666666983,-0.9666666666666982
29.917000000000005,-2.4349999999997602,-2.5500000000001064,-1.05
29.937000000000005,-2.2000000000001068,-2.3949999999998135,-1.0399999999999467
29.957000000000004,-2.8433333333335504,-1.5466666666663311,-0.7133333333332543
29.977000000000004,-3.633333333333373,0.31000000000018946,-0.5666666666666745
29.997000000000007,-3.1199999999994317,1.935000000000675,-0.8800000000002132
30.017000000000007,-1.2049999999988987,3.1350000000003195,-1.4200000000002841
30.037000000000006,1.4100000000008528,3.1349999999998666,-1.7599999999998401
30.057000000000006,3.310000000001208,3.1100000000006394,-1.2300000000003553
30.077000000000005,4.110000000000057,4.154000000000147,-2.4400000000002273
30.097000000000005,4.750000000000497,4.469999999999893,-3.0499999999997867
30.117000000000004,5.690000000000059,4.453333333333432,-2.8800000000001185
30.137000000000004,5.579999999999976,5.1100000000000705,-3.6533333333334204
30.157000000000004,5.4366666666666745,5.623333333333349,-4.12
30.177000000000007,5.46333333333332,5.3466666666665565,-3.7766666666665563
30.197000000000006,5.116666666666568,4.826666666666627,-2.7899999999997633
30.217000000000006,4.483333333333136,4.756666666666686,-2.1433333333332545
30.237000000000005,3.6549999999997604,4.85,-2.0950000000000264
30.257000000000005,3.189999999999941,4.319999999999763,-2.2266666666666866
30.277000000000005,3.193333333333373,2.7833333333327808,-2.146666666666568
30.297000000000004,3.0733333333332227,-0.06333333333393337,-1.136666666666351
30.317000000000004,1.9449999999996268,-2.4600000000003908,1.1100000000006396
30.337000000000007,0.10666666666621272,-3.4266666666667454,4.15000000000071
30.357000000000006,-1.6900000000019184,-3.1199999999989343,6.3200000000015635
30.377000000000006,-4.080000000002274,-1.2999999999977263,7.009999999999218
30.397000000000006,-6.52500000000056,0.7150000000002932,5.504999999999547
30.417000000000005,-6.88999999999968,0.8399999999997869,5.040000000000053
30.437000000000005,-5.689999999999325,-0.1400000000007816,5.210000000000178
30.457000000000004,-4.546666666666509,-1.37,5.903333333333372
30.477000000000004,-3.949999999999751,-0.8749999999998046,5.064999999999556
30.497000000000007,-2.253333333332958,-0.5900000000001184,2.1833333333327216
30.517000000000007,-1.1099999999992185,-1.1200000000004264,0.5899999999994315
30.537000000000006,-0.6,-1.7700000000001894,0.45000000000007107
30.557000000000006,-0.8200000000000947,-2.2500000000000946,0.6
30.577000000000005,-1.4500000000000977,-2.6000000000000356,0.5299999999999911
30.597000000000005,-2.2400000000001423,-2.7900000000000476,0.3399999999999645
30.617000000000004,-2.9233333333334914,-2.826666666666686,0.19333333333337283
30.637000000000004,-3.5800000000000622,-2.9600000000000266,0.43000000000002664
30.657000000000007,-4.070000000000118,-3.069999999999929,0.5699999999999763
30.677000000000007,-4.496666666666745,-2.729999999999941,0.47333333333331357
30.697000000000006,-5.310000000000177,-2.083333333333077,0.3266666666666272
30.717000000000006,-5.746666666666687,-0.10666666666597588,-0.01333333333349123
30.737000000000005,-5.544999999999867,1.4825000000005195,-0.4125000000001465
30.757000000000005,-2.2566666666658572,4.363333333333432,-1.780000000000237
30.777000000000005,1.520000000000382,4.249999999999947,-2.700000000000089
30.797000000000004,4.480000000000332,3.61999999999987,-3.1299999999999644
30.817000000000004,6.020000000000106,3.1800000000001067,-2.459999999999929
30.837000000000007,6.179999999999946,3.3899999999998225,-2.209999999999911
30.857000000000006,5.619999999999716,2.5700000000000474,-1.7699999999999052
30.877000000000006,4.419999999999662,3.8900000000004264,-1.85000000000016
30.897000000000006,3.129999999999763,5.230000000000237,-2.6933333333335505
30.917000000000005,2.800000000000071,5.4499999999997515,-3.1199999999998935
30.937000000000005,3.190000000000059,4.549999999999869,-2.2499999999998224
30.957000000000004,3.5766666666667453,4.056666666666628,-1.0733333333330768
30.977000000000004,3.8600000000000234,3.9899999999999527,-0.4399999999999763
30.997000000000007,4.040000000000053,3.499999999999858,-0.45000000000003554
31.017000000000007,4.290000000000142,2.7799999999995735,-0.6300000000001066
31.037000000000006,4.665000000000133,1.6799999999994673,-0.74
31.057000000000006,4.859999999999983,-0.4600000000004441,-0.3199999999997691
31.077000000000005,4.469999999999823,-1.856666666666864,1.2266666666672195
31.097000000000005,3.409999999999787,-2.0100000000000118,3.7800000000003195
31.117000000000004,1.5599999999997247,-1.9499999999999111,5.34000000000008
31.137000000000004,-1.2800000000003553,-0.8899999999998579,5.419999999999911
31.157000000000007,-3.9700000000003555,0.5400000000004264,4.870000000000089
31.177000000000007,-4.69545454545454,1.6172727272727625,5.550000000000065
31.197000000000006,-3.7349999999998267,-0.030000000000479615,5.87
31.217000000000006,-3.0300000000000473,-1.3599999999997396,6.180000000000047
31.237000000000005,-3.720000000000261,0.3900000000006158,5.569999999999479
31.257000000000005,-4.22,1.399999999999905,3.189999999999597
31.277000000000005,-3.869999999999917,0.5699999999998934,0.9999999999997868
31.297000000000004,-3.209999999999917,-0.17000000000013027,0.28999999999998816
31.317000000000007,-2.7999999999999523,-1.040000000000166,0.43000000000004734
31.337000000000007,-2.830000000000071,-1.440000000000071,0.509999999999929
31.357000000000006,-3.123333333333432,-1.54,0.3933333333333136
31.377000000000006,-3.560000000000089,-1.5400000000000178,0.45000000000003554
31.397000000000006,-3.8600000000000234,-1.5499999999999763,0.6200000000000474
31.417000000000005,-3.7433333333332546,-1.57,0.65
31.437000000000005,-3.2533333333331953,-1.6800000000000592,0.61
31.457000000000004,-2.8418181818181583,-1.8136363636363684,0.7045454545454733
31.477000000000004,-2.7635714285714195,-1.810714285714284,0.7671428571428645
31.497000000000007,-2.8300000000004264,-0.22999999999808154,1.0499999999996448
31.517000000000007,-3.3499999999999646,3.590000000000888,-1.1700000000009947
31.537000000000006,-2.5499999999994314,4.6399999999998816,-3.3800000000005683
31.557000000000006,0.2500000000010895,3.7899999999997394,-4.560000000000047
31.577000000000005,3.700000000000551,2.95999999999984,-4.409999999999965
31.597000000000005,5.250000000000178,2.2999999999999288,-4.42
31.617000000000004,6.020000000000124,2.139999999999947,-4.2399999999999824
31.637000000000004,5.979999999999787,2.0900000000001064,-4.490000000000196
31.657000000000007,4.629999999999254,2.990000000000604,-5.5800000000004975
31.677000000000007,3.427142857142716,4.130000000000153,-6.055714285714264
31.697000000000006,2.9960000000000115,4.5639999999999885,-4.843999999999761
31.717000000000006,3.1000000000000356,4.459999999999929,-3.029999999999325
31.737000000000005,3.270000000000213,4.019999999999715,-1.689999999999538
31.757000000000005,3.8440000000000767,3.3079999999998977,-1.0559999999999659
31.777000000000005,4.6000000000001595,2.259999999999769,-1.0100000000000178
31.797000000000004,5.099999999999946,0.8799999999996447,-0.8299999999998046
31.817000000000007,4.1699999999997015,-0.4500000000001421,0.8300000000004405
31.837000000000007,1.9899999999991946,-0.6299999999998579,3.680000000000853
31.857000000000006,-0.680000000000758,-0.08999999999985789,6.090000000000402
31.877000000000006,-3.1100000000008525,0.28000000000014214,6.369999999999503
31.897000000000006,-4.420000000000249,0.7500000000001776,4.789999999999218
31.917000000000005,-4.249999999999751,0.9400000000000532,4.240000000000178
31.937000000000005,-2.8399999999996624,0.7499999999998934,5.33000000000016
31.957000000000004,-1.259999999999778,0.3074999999999445,5.1999999999998225
31.977000000000007,0.16200000000023024,0.003999999999884894,3.3419999999995906
31.997000000000007,1.750000000000675,-0.8900000000003198,1.5499999999996803
32.01700000000001,2.990000000000249,-1.7000000000003908,1.2
32.037000000000006,3.0174999999998446,-2.102499999999978,1.4050000000001333
32.05700000000001,1.8699999999992896,-1.6899999999997157,2.08000000000032
32.07700000000001,0.08199999999928376,-0.9199999999997442,2.7680000000002045
32.09700000000001,-2.4066666666678116,-0.5,3.1966666666667454
32.11700000000001,-4.646666666667693,-0.23666666666639036,3.1199999999998815
32.13700000000001,-6.250000000000533,0.4500000000003908,2.6599999999996804
32.15700000000001,-6.7949999999999555,1.3100000000001777,1.6849999999996892
32.17700000000001,-6.25999999999992,1.2799999999999467,0.7674999999999267
32.19700000000001,-5.264999999999707,-0.36000000000090593,0.39
32.217000000000006,-4.6949999999999825,-2.785000000000089,0.8375000000000444
32.23700000000001,-5.190000000000474,-2.0433333333324253,0.5566666666662718
32.25700000000001,-6.256666666667101,0.3533333333345571,-0.5833333333340833
32.27700000000001,-6.74,1.9800000000001656,-2.1400000000002604
32.29700000000001,-5.664999999999307,2.8950000000002665,-3.54000000000032
32.31700000000001,-2.339999999998259,3.4500000000000357,-3.4899999999994673
32.33700000000001,1.340000000001279,3.2499999999996803,-2.610000000000142
32.357000000000006,3.7233333333336334,2.8199999999999528,-3.6333333333335385
32.37700000000001,4.760000000000266,2.6374999999999336,-3.884999999999867
32.39700000000001,5.229999999999881,2.8000000000002365,-3.583333333333491
32.41700000000001,4.5899999999995265,3.640000000000592,-4.323333333333847
32.43700000000001,3.6574999999997067,4.7425000000004,-4.92
32.45700000000001,3.1399999999999646,5.550000000000142,-4.139999999999396
32.47700000000001,3.2433333333334913,5.746666666666746,-2.7299999999994076
32.49700000000001,3.607500000000111,5.632499999999889,-1.7599999999997336
32.51700000000001,3.9650000000001597,5.039999999999574,-0.894999999999627
32.537000000000006,4.220000000000143,4.499999999999716,-0.66
32.55700000000001,4.490000000000107,3.634999999999307,-1.105000000000373
32.57700000000001,4.519999999999893,2.3399999999990406,-1.5050000000000532
32.59700000000001,4.0933333333328985,0.8366666666657983,-0.9199999999992895
32.61700000000001,2.544999999998561,-0.8900000000008527,1.2400000000017053
32.63700000000001,0.15666666666617718,-1.4099999999999526,3.5900000000003787
32.65700000000001,-2.115000000000666,-0.794999999999778,4.560000000000089
32.67700000000001,-3.930000000000133,-0.13749999999995338,4.327499999999953
32.69700000000001,-5.310000000000356,0.17000000000011842,5.190000000001065
32.717000000000006,-5.527999999999983,0.3880000000000114,6.916000000000079
32.73700000000001,-5.163333333333254,0.24333333333325438,6.546666666665917
32.75700000000001,-5.146666666666509,-0.25666666666698246,4.9199999999994075
32.77700000000001,-4.167499999999578,-0.3349999999999556,4.109999999999734
32.79700000000001,-2.763333333332899,-0.9666666666671009,2.436666666665798
32.81700000000001,-2.3900000000000707,-1.5800000000002132,1.3899999999999288
32.83700000000001,-2.8700000000003554,-2.003333333333491,1.6666666666669825
32.857000000000006,-3.5675000000001997,-2.1375000000000224,2.0450000000000443
32.87700000000001,-4.295000000000373,-2.0849999999999467,1.9199999999997868
32.89700000000001,-4.713333333333491,-2.1466666666667455,1.6399999999998816
32.91700000000001,-5.080000000000213,-2.139999999999858,1.4199999999998933
32.93700000000001,-5.600000000000237,-1.6566666666663903,1.1199999999997632
32.95700000000001,-5.878000000000017,-1.0379999999998466,0.5979999999998464
32.97700000000001,-5.614999999999627,-0.36499999999962696,-0.44000000000074607
32.99700000000001,-4.859999999999006,-0.019999999999857892,-1.3400000000005685
33.01700000000001,-3.274999999999307,0.26250000000013324,-1.7
33.037000000000006,-1.0899999999977974,0.8200000000004263,-1.7900000000004264
33.05700000000001,1.2500000000018474,1.0600000000002132,-2.740000000001208
33.07700000000001,3.0400000000008527,1.2249999999999468,-4.250000000000853
33.09700000000001,3.8100000000002843,1.0199999999997869,-4.839999999999645
33.11700000000001,3.84499999999984,1.1650000000007994,-3.7349999999995203
33.13700000000001,3.3599999999998578,2.5766666666668874,-4.193333333333634
33.15700000000001,2.749999999999787,3.4300000000004265,-5.315000000000373
33.17700000000001,2.6760000000000086,3.8400000000000425,-5.5
33.19700000000001,3.070000000000213,4.560000000000426,-5.309999999999787
33.21700000000001,3.3200000000001246,4.902500000000032,-5.012499999999907
33.23700000000001,3.616666666666864,4.92,-4.69666666666639
33.25700000000001,4.055000000000266,4.809999999999894,-3.954999999999414
33.27700000000001,4.370000000000142,4.619999999999787,-3.2499999999994316
33.29700000000001,4.515000000000053,4.33499999999984,-2.614999999999627
