timestamp,acc_x,acc_y,acc_z,gyro_x,gyro_y,gyro_z
0.409,-0.77,0.14,-1.8,0.47529411764705864,0.14,1.5047058823529413
0.429,-1.8,0.11,-2.39,0.6799999999999999,0.08352941176470588,1.3470588235294119
0.449,-2.31,0.97,-1.67,0.8052941176470588,-0.029411764705882353,1.2782352941176471
0.46900000000000003,-1.6199999999999988,0.4700000000000001,-1.7199999999999995,0.7911764705882351,-0.16588235294117662,1.2770588235294118
0.48900000000000005,-1.3699999999999963,0.45999999999999686,-1.4300000000000017,0.5906249999999992,-0.3175000000000004,1.295625
0.5090000000000001,-0.3099999999999989,0.009999999999990563,-0.7899999999999868,0.29882352941176304,-0.46176470588235374,1.3076470588235296
0.5290000000000001,0.330000000000008,-1.4900000000000022,1.130000000000008,0.014117647058821958,-0.5747058823529417,1.2911764705882351
0.5490000000000002,1.8500000000000032,-2.2899999999999983,2.080000000000001,-0.19117647058823622,-0.667058823529412,1.251176470588235
0.5690000000000002,1.6799999999999817,-1.6199999999999855,1.669999999999982,-0.31470588235294206,-0.689411764705882,1.17470588235294
0.5890000000000002,0.6300000000000047,-0.7199999999999958,-0.020000000000015544,-0.38250000000000056,-0.6362499999999992,1.0424999999999984
0.6090000000000002,0.5099999999999925,-0.30999999999997824,-1.2600000000000113,-0.4152941176470591,-0.5411764705882341,0.8829411764705863
0.6290000000000002,-1.2900000000000111,0.9899999999999942,-2.1800000000000135,-0.44823529411764745,-0.41647058823529265,0.7370588235294102
0.6490000000000002,-1.3699999999999868,1.2800000000000011,-3.170000000000023,-0.5258823529411777,-0.2705882352941162,0.6058823529411754
0.6690000000000003,-0.599999999999994,0.9699999999999933,-4.97000000000001,-0.6458823529411781,-0.14823529411764588,0.525882352941176
0.6890000000000003,-0.01000000000001632,0.27000000000000335,-5.599999999999991,-0.8312500000000032,-0.044999999999998576,0.5
0.7090000000000003,-0.4099999999999913,0.249999999999991,-5.240000000000003,-1.0705882352941218,0.03588235294117765,0.5076470588235296
0.7290000000000003,0.4500000000000303,-0.6500000000000223,-5.289999999999999,-1.3741176470588288,0.05,0.4629411764705873
0.7490000000000003,1.8000000000000003,-1.7300000000000095,-4.809999999999774,-1.4130303030303033,0.07303030303030343,0.43696969696969656
0.7690000000000003,1.5599999999999987,-1.5299999999999905,5.710000000000093,-1.34882352941176,0.29823529411765864,0.43411764705882433
0.7890000000000004,0.7099999999999873,-0.7399999999999953,5.649999999999851,-1.1549999999999985,0.8656250000000069,0.49937500000000146
0.8090000000000004,0.8400000000000213,-0.6299999999999893,-1.7600000000000353,-1.1712121212121227,1.084848484848487,0.600909090909093
0.8290000000000004,1.7099999999999715,0.2700000000000271,-2.409999999999968,-1.250000000000003,1.1999999999999988,0.7100000000000017
0.8490000000000004,-0.19000000000003153,1.2399999999999618,-0.5099999999999059,-1.3841176470588257,1.151176470588234,0.7905882352941193
0.8690000000000004,-1.4390909090909307,0.14636363636364808,3.301818181818196,-1.4570588235294122,1.11,0.864705882352943
0.8890000000000005,-2.050000000000014,0.8000000000000075,2.749999999999953,-1.4418749999999985,1.1381250000000014,0.949375000000002
0.9090000000000005,-2.349999999999999,0.4399999999999916,0.9099999999999675,-1.3588235294117628,1.1982352941176484,0.9952941176470593
0.9290000000000005,-2.84500000000002,0.4210000000000187,0.5070000000000396,-1.2364705882352913,1.2288235294117653,1.0282352941176478
0.9490000000000005,-3.608181818181834,1.508181818181856,2.9409090909091358,-1.0870588235294076,1.2064705882352935,1.0976470588235328
0.9690000000000005,-4.116363636363645,2.8345454545454736,3.7909090909090803,-0.9270588235294068,1.1829411764705875,1.2294117647058869
0.9890000000000005,-4.550000000000006,3.72000000000004,3.730000000000053,-0.7512499999999951,1.1306249999999975,1.3987500000000048
1.0090000000000006,-4.289999999999961,4.960000000000039,5.990000000000098,-0.5752941176470532,1.0388235294117618,1.5594117647058874
1.0290000000000006,-3.041818181818149,5.898181818181828,7.9390909090909085,-0.34235294117646364,0.9729411764705865,1.7217647058823575
1.0490000000000006,-1.9136363636363487,6.208181818181823,8.41818181818188,-0.034117647058814746,0.8994117647058804,1.906470588235299
1.0690000000000006,-1.7240000000000022,6.428000000000004,10.740000000000032,0.2717647058823625,0.8429411764705874,2.0652941176470625
1.0890000000000006,-1.67999999999998,6.419999999999971,11.359999999999978,0.586250000000009,0.8074999999999987,2.152500000000001
1.1090000000000007,-0.9499999999999666,5.3069999999999595,10.497999999999971,0.8835294117647149,0.7135294117647021,2.1317647058823512
1.1290000000000007,0.3490909090909544,3.8545454545454043,9.298181818181762,1.1000000000000079,0.6052941176470548,2.0070588235294062
1.1490000000000007,1.7350000000000427,1.9779999999998974,7.440999999999884,1.2294117647058873,0.5735294117647067,1.7911764705882256
1.1690000000000007,2.619000000000015,-0.2270000000000443,4.539999999999915,1.3729411764705945,0.6288235294117692,1.5182352941176365
1.1890000000000007,2.8159999999999967,-1.0390000000000148,2.6699999999999458,1.5206250000000043,0.8068750000000092,1.220624999999989
1.2090000000000007,2.6219999999999937,-1.474000000000042,1.1989999999999215,1.5370588235294105,1.0429411764705965,0.9364705882352844
1.2290000000000008,2.194999999999957,-2.8320000000000483,-0.9650000000000893,1.435882352941172,1.2500000000000078,0.691764705882344
1.2490000000000008,1.1709999999999618,-3.686000000000005,-2.848000000000037,1.2347058823529318,1.4282352941176546,0.4888235294117591
1.2690000000000008,0.3209999999999774,-3.6899999999999924,-3.569000000000007,1.0276470588235234,1.5847058823529447,0.3194117647058724
1.2890000000000008,-0.3700000000000233,-3.5810000000000084,-3.7489999999999912,1.0681250000000102,1.596249999999997,-0.10250000000002524
1.3090000000000008,-0.8700000000000078,-3.9190000000000302,-3.2359999999999736,1.4123529411764872,1.4247058823529315,-0.8423529411765045
1.3290000000000008,-0.9530000000000023,-5.076000000000075,-3.1350000000000504,1.687647058823539,1.0505882352941016,-1.4329411764706095
1.3490000000000009,-1.1710000000000163,-7.039000000000077,-4.571000000000047,1.5141176470588034,0.6352941176470442,-1.5247058823529318
1.3690000000000009,-1.7910000000000328,-8.94800000000007,-5.365999999999989,0.9588235294117335,0.5141176470588442,-1.1164705882352566
1.389000000000001,-2.73000000000005,-10.574000000000064,-4.988999999999979,0.5109090909090823,0.9481818181818384,-0.5090909090908918
1.409000000000001,-3.185999999999956,-11.786000000000046,-4.574999999999985,0.3351515151515072,1.366363636363655,-0.1515151515151354
1.429000000000001,-1.975999999999916,-12.507000000000007,-4.528000000000008,-0.03882352941178574,1.4594117647058829,0.16470588235295636
1.449000000000001,-0.34299999999990305,-12.701999999999993,-4.475999999999947,-0.44058823529413094,1.362941176470586,0.4623529411764844
1.469000000000001,2.016000000000146,-12.044999999999916,-2.694999999999855,-0.6723529411764771,1.354705882352945,0.7447058823529543
1.489000000000001,5.0600000000002,-10.0219999999999,-0.21099999999996102,-0.8175000000000074,1.461875000000007,1.0237500000000137
1.509000000000001,9.40000000000025,-8.34899999999993,-0.274000000000054,-1.0229411764706011,1.6017647058823605,1.2729411764706011
1.529000000000001,14.524000000000234,-6.344999999999815,-0.42499999999984506,-1.23000000000001,1.7147058823529464,1.5176470588235418
1.549000000000001,19.045000000000183,-2.284999999999805,4.355000000000265,-1.2358823529411718,1.9094117647058888,1.7076470588235353
1.569000000000001,21.780000000000047,0.9500000000001172,7.169999999999918,-1.1347058823529348,1.9823529411764673,1.8076470588235327
1.589000000000001,21.26899999999986,2.45000000000006,6.433000000000133,-1.008124999999993,1.8487499999999888,1.8343749999999994
1.609000000000001,18.356999999999836,3.794000000000064,9.844000000000115,-0.8452941176470493,1.5023529411764482,1.7458823529411696
1.6290000000000011,15.281999999999819,4.79900000000006,11.002999999999991,-0.6594117647058709,0.9305882352940804,1.5223529411764556
1.6490000000000011,12.212222222222008,6.22555555555572,11.217777777777822,-0.5076470588235245,0.11647058823524464,1.0835294117646712
1.6690000000000011,8.703333333333072,9.04222222222243,11.718888888888864,-0.418235294117641,-0.6929411764706329,0.4576470588234869
1.6890000000000012,4.692222222221886,12.101111111111306,10.654444444444305,-0.32624999999999543,-1.4575000000000458,-0.3156250000000496
1.7090000000000012,-0.6666666666670736,14.833333333333519,9.026666666666602,-0.3841176470588309,-2.1405882352941545,-1.0435294117647445
1.7290000000000012,-6.617272727272969,17.88000000000016,7.547272727272607,-0.6547058823529598,-2.73117647058827,-1.6600000000000363
1.7490000000000012,-10.652000000000163,20.034000000000002,5.057999999999849,-1.0011764705882564,-3.2452941176470858,-2.239411764705915
1.7690000000000012,-14.160000000000126,20.652000000000015,3.14000000000008,-1.3529411764706125,-3.6841176470588524,-2.7617647058823858
1.7890000000000013,-14.298888888888726,20.80333333333329,6.411111111111494,-1.773750000000029,-4.188750000000035,-3.2593750000000297
1.8090000000000013,-10.93799999999974,18.375999999999664,11.044000000000096,-2.2764705882353278,-4.7035294117647375,-3.6823529411764957
1.8290000000000013,-6.827999999999699,12.92199999999963,11.281999999999908,-2.775294117647089,-4.960000000000012,-4.0141176470588436
1.8490000000000013,-2.003999999999643,7.66999999999968,9.747999999999871,-3.0235294117647076,-4.721176470588207,-4.2676470588235365
1.8690000000000013,3.126000000000284,3.0879999999997256,7.667999999999852,-3.0700000000000065,-4.231249999999963,-4.312499999999991
1.8890000000000013,6.882000000000215,-0.16400000000006928,5.781999999999941,-3.1435294117647095,-3.5970588235293626,-4.05588235294115
1.9090000000000014,9.504000000000122,0.15600000000015057,5.704000000000143,-3.022352941176456,-2.7764705882352345,-3.5605882352940803
1.9290000000000014,11.34444444444458,2.698888888889159,8.36777777777806,-2.7447058823529202,-1.9035294117646435,-2.9135294117646575
1.9490000000000014,12.27000000000013,6.369000000000244,13.612000000000782,-2.4741176470587876,-1.1323529411764053,-2.1541176470587446
1.9690000000000014,17.108181818182114,6.867272727272353,19.737272727271986,-2.056363636363622,-0.44818181818180874,-1.2872727272727063
1.9890000000000014,18.42272727272716,0.7418181818178584,6.309999999999432,-1.8442424242424091,-0.3087878787878689,-0.9781818181817962
2.0090000000000012,14.357999999999583,-3.6980000000001487,-1.574000000000268,-1.1199999999999348,0.022941176470616664,0.17764705882363485
2.0290000000000012,7.315999999999617,-5.428000000000034,-3.727999999999814,-0.5999999999999712,0.27941176470589757,1.2717647058824224
2.0490000000000013,1.9719999999998454,-5.876000000000038,0.4400000000002598,-0.2115151515151273,0.5606060606060784,2.1260606060606593
2.0690000000000013,0.16799999999996423,-7.710000000000242,3.361999999999938,0.16588235294119674,0.8270588235294246,2.907058823529448
2.0890000000000013,-1.0320000000001397,-12.384000000000274,0.40199999999972985,0.478125000000016,1.0343750000000114,3.4750000000000303
2.1090000000000013,-3.418000000000201,-16.066000000000063,-3.4140000000001236,0.7000000000000131,1.1994117647058924,3.8411764705882545
2.1290000000000013,-7.268000000000134,-17.248000000000104,-5.6480000000001045,0.8905882352941312,1.3523529411764816,3.994117647058832
2.1490000000000014,-8.313999999999995,-18.392000000000017,-6.814000000000056,1.1047058823529532,1.4605882352941228,3.9399999999999853
2.1690000000000014,-8.221999999999941,-18.239999999999956,-7.013999999999927,1.272941176470601,1.5523529411764807,3.7152941176470384
2.1890000000000014,-6.29199999999973,-16.815999999999757,-5.535999999999846,1.5162500000000199,1.748125000000016,3.464374999999987
2.2090000000000014,-1.5659999999994758,-13.275999999999717,-3.905999999999982,1.9205882352941466,2.1000000000000263,3.39764705882353
2.2290000000000014,6.197777777778531,-9.783333333333092,-3.629999999999793,2.386470588235328,2.594117647058861,3.6070588235294303
2.2490000000000014,16.11800000000075,-7.109999999999804,1.5140000000005616,2.733529411764722,3.028235294117661,4.062352941176506
2.2690000000000015,24.306000000000353,-4.585999999999839,6.103999999999996,2.912500000000006,3.111249999999987,4.535000000000035
2.2890000000000015,27.511999999999972,-2.5819999999998653,7.074000000000222,2.9382352941176455,2.853529411764677,4.871764705882371
2.3090000000000015,23.961999999999453,-1.0759999999998686,8.401999999999994,2.9758823529411815,2.4547058823529113,4.819999999999986
2.3290000000000015,17.635999999999573,0.6480000000001042,9.49800000000005,3.19705882352943,2.181764705882336,4.281176470588191
2.3490000000000015,11.695999999999545,1.8600000000000754,8.971999999999948,3.4517647058823537,2.0276470588235087,3.505882352941126
2.3690000000000015,5.465999999999595,2.85800000000007,8.947999999999995,3.385882352941157,1.7099999999999682,2.843529411764659
2.3890000000000016,0.659999999999698,4.180000000000151,8.770000000000016,3.1599999999999833,1.4112499999999855,2.2837499999999564
2.4090000000000016,-3.003000000000228,6.449000000000171,8.807999999999964,3.021176470588226,1.403529411764713,1.771176470588191
2.4290000000000016,-6.312000000000323,8.234000000000103,7.593999999999861,2.783529411764686,1.3352941176470512,1.1052941176470072
2.4490000000000016,-11.358000000000416,10.271000000000223,6.065999999999882,2.4411764705882164,0.7899999999999415,0.08529411764697364
2.4690000000000016,-16.241000000000252,13.173000000000183,3.7579999999998432,2.161176470588209,-0.08058823529420014,-1.121764705882457
2.4890000000000017,-18.232999999999986,15.1980000000001,4.509000000000367,1.698749999999948,-1.2293750000001071,-2.4306250000001093
2.5090000000000017,-17.04299999999973,15.36799999999983,9.117000000000253,0.9294117647058082,-2.482941176470696,-3.4864705882353744
2.5290000000000017,-13.037999999999593,12.09999999999958,10.106999999999907,0.01647058823520675,-3.5017647058824437,-4.018235294117688
2.5490000000000017,-8.527999999999592,7.3449999999995725,8.963999999999851,-0.7600000000000549,-4.145882352941241,-4.204705882352956
2.5690000000000017,-3.9479999999995194,3.325999999999767,7.150999999999885,-1.3811764705882887,-5.014117647058923,-4.3941176470588434
2.5890000000000017,1.98900000000057,1.746999999999962,6.74900000000006,-2.4362500000001273,-6.948750000000231,-4.805625000000051
2.6090000000000018,6.85200000000028,1.8930000000000746,8.084000000000215,-3.467058823529479,-8.355882352941235,-5.02
2.629000000000002,10.178000000000338,2.697000000000071,10.645000000000227,-3.940000000000037,-8.49,-4.855151515151496
2.649000000000002,13.448000000000281,3.091999999999992,13.366000000000476,-4.345294117647101,-8.03823529411736,-4.376470588235101
2.669000000000002,16.79727272727306,2.660909090908949,19.300000000000427,-4.438235294117581,-5.2135294117644815,-2.5717647058822313
2.689000000000002,19.58555555555555,-0.08666666666717343,20.303333333332557,-4.111875000000011,-3.6074999999999458,-1.3481249999999054
2.709000000000002,17.607272727272335,-4.881818181818474,10.40636363636283,-4.045294117647043,-3.2270588235293913,-0.5829411764705388
2.729000000000002,11.904999999999426,-6.750999999999976,3.9179999999997377,-3.661764705882312,-3.0670588235293987,-0.3288235294117481
2.749000000000002,5.822999999999475,-5.960999999999877,1.3009999999997988,-3.0823529411763833,-2.8494117647058186,-0.24411764705881345
2.769000000000002,1.018999999999615,-4.918999999999928,0.5540000000000938,-2.132941176470484,-2.161176470588161,-0.07117647058820174
2.789000000000002,-2.2750000000002246,-4.7090000000000645,1.6260000000001016,-1.2549999999999262,-1.5687499999999552,0.3012500000000448
2.809000000000002,-3.8720000000001056,-6.145000000000264,2.5920000000000467,-0.6964705882352493,-1.2058823529411458,0.6947058823529761
2.829000000000002,-5.653000000000276,-9.147000000000311,1.8949999999997948,-0.20999999999996655,-0.8399999999999634,1.0800000000000387
2.849000000000002,-8.04800000000015,-12.340000000000312,0.027999999999874958,0.1629411764706219,-0.41235294117642124,1.5294117647059329
2.869000000000002,-9.440000000000095,-15.14000000000023,-1.106666666666857,0.4841176470588487,0.1405882352941824,2.087058823529475
2.889000000000002,-9.994000000000057,-15.781999999999952,-2.6040000000000765,0.6818750000000144,0.8725000000000895,2.761875000000078
2.909000000000002,-9.24599999999971,-14.657999999999749,-1.403999999999629,0.860000000000022,1.7588235294118642,3.410000000000066
2.929000000000002,-4.943333333332623,-11.70999999999966,2.2100000000003592,1.2858823529412224,2.7117647058824446,3.8782352941176885
2.949000000000002,2.7918181818190004,-8.816363636363395,3.7963636363635254,2.1223529411765547,3.3482352941176647,4.177647058823541
2.969000000000002,11.0600000000008,-6.035999999999625,2.1199999999997976,3.0894117647060013,3.476470588235293,4.288235294117657
2.989000000000002,16.74900000000034,-2.0999999999995116,0.7449999999999511,4.37125000000015,3.3293749999999673,4.362500000000005
3.009000000000002,17.893999999999835,2.9830000000005232,0.9580000000001947,5.435882352941272,2.761176470588158,4.38764705882353
3.029000000000002,16.8233333333333,6.720000000000244,3.9600000000005107,5.835882352941209,2.0552941176469766,4.201764705882326
3.049000000000002,15.571999999999646,6.611999999999669,7.311000000000197,5.819999999999977,2.1147058823530283,3.6064705882352004
3.069000000000002,12.252999999999641,3.4029999999996625,8.524000000000086,5.514117647058767,2.9747058823530512,2.7547058823528476
3.089000000000002,9.001999999999676,0.8279999999998124,8.285999999999785,4.973749999999945,4.121250000000129,1.8337499999999025
3.109000000000002,5.86399999999965,0.16800000000008952,5.577999999999705,4.621764705882325,5.070000000000088,1.0817647058822806
3.1290000000000022,2.906666666666317,1.8933333333336833,3.5066666666664665,4.438235294117628,5.342941176470604,0.6582352941176046
3.1490000000000022,-0.2560000000004711,4.946000000000379,2.1179999999998547,4.107647058823472,4.7194117647057565,0.5229411764705827
3.1690000000000023,-4.3240000000003604,8.834000000000534,1.5080000000000622,3.604117647058759,3.6064705882351533,0.42294117647056223
3.1890000000000023,-6.076000000000079,12.362000000000215,1.7219999999998914,2.6868749999998562,1.893749999999755,-0.47625000000018197
3.2090000000000023,-6.394000000000002,13.290000000000093,0.3439999999998753,1.9499999999999562,0.64411764705875,-1.4508823529412391
3.2290000000000023,-6.091999999999995,13.778000000000063,0.7140000000002563,1.5499999999999536,-0.026470588235372183,-2.0214705882353603
3.2490000000000023,-6.686000000000101,13.895999999999963,3.7040000000004407,-0.018823529411865644,-2.0011764705882986,-3.2752941176470864
3.2690000000000023,-7.796000000000125,13.443999999999921,7.764000000000487,-0.8381818181819077,-2.518181818181875,-3.498181818181842
3.2890000000000024,-7.613999999999806,12.30999999999978,11.782000000000377,-1.5654545454546376,-2.978787878787937,-3.6921212121212363
3.3090000000000024,-5.309999999999619,9.885999999999651,14.40000000000029,-2.1947058823530075,-3.6370588235295,-4.012352941176515
3.3290000000000024,-1.8519999999996029,6.581999999999591,16.90000000000028,-2.808823529411837,-4.627647058823651,-4.513529411764767
3.3490000000000024,1.632000000000388,3.14199999999966,18.13599999999994,-3.5752941176471573,-5.683529411764803,-4.927058823529417
3.3690000000000024,4.378000000000212,1.1059999999999053,17.90000000000014,-4.435294117647173,-6.38000000000005,-4.801176470588169
3.3890000000000025,5.822000000000163,1.0100000000000773,19.758000000000184,-5.266250000000093,-6.313124999999919,-4.003749999999856
3.4090000000000025,7.236000000000229,2.2500000000002447,20.189999999999934,-5.680588235294151,-5.042352941176258,-2.7152941176468772
3.4290000000000025,9.520000000000348,4.0520000000001755,19.405999999999793,-5.692352941176465,-3.562352941176301,-1.6682352941175336
3.4490000000000025,11.416000000000114,5.2640000000001566,17.339999999999716,-5.387058823529347,-2.9964705882352916,-1.345882352941189
3.4690000000000025,11.688181818181805,6.10090909090915,15.171818181817933,-4.781176470588145,-3.018823529411781,-1.5117647058823909
3.4890000000000025,11.367999999999876,6.11199999999993,11.831999999999454,-3.974999999999885,-3.073124999999995,-1.8150000000000381
3.5090000000000026,9.207999999999542,5.315999999999868,8.8019999999998,-3.063529411764585,-2.82294117647054,-1.9964705882353095
3.5290000000000026,5.873333333332963,4.3277777777776,7.887777777777627,-2.174117647058701,-2.317058823529337,-1.963529411764696
3.5490000000000026,3.849999999999794,2.4079999999996575,6.811999999999956,-1.3829411764705004,-1.6929411764705005,-1.678235294117591
3.5690000000000026,2.145999999999714,-0.5380000000004174,6.2819999999998535,-0.7464705882352183,-1.0105882352940228,-1.255882352941121
3.5890000000000026,0.2418181818180476,-4.249090909091364,5.345454545454493,-0.1006249999999122,-0.2018749999998899,-0.7793749999999345
3.6090000000000027,-0.33,-8.318000000000584,4.3779999999997345,0.5988235294118578,0.543529411764796,-0.3094117647058233
3.6290000000000027,-0.23222222222226443,-13.097777777778468,2.271111111110861,1.276470588235387,1.0376470588235913,0.14705882352947533
3.6490000000000027,-1.2055555555557698,-17.19888888888941,1.233333333333288,1.8470588235294743,1.33235294117651,0.6364705882353467
3.6690000000000027,-2.2500000000001013,-19.33000000000009,0.6549999999998002,2.3152941176471304,1.7170588235294981,0.9741176470588577
3.6890000000000027,-2.71,-18.78499999999979,-1.1800000000002184,3.016250000000118,2.6112500000001564,1.3518750000000688
3.7090000000000027,-2.7049999999999814,-15.664999999999377,-2.0149999999999704,3.837058823529513,3.7282352941177868,1.9911764705883268
3.7290000000000028,-1.7949999999997468,-10.399999999999244,-0.9749999999997734,4.009999999999957,4.400000000000019,2.6300000000000594
3.7490000000000028,2.0400000000007728,-5.3599999999994505,0.5750000000001252,3.694117647058781,4.537647058823546,3.0452941176470913
3.769000000000003,9.980000000001397,-2.244999999999645,0.46999999999990183,3.4087499999999658,4.691250000000034,3.262500000000025
3.789000000000003,17.350000000000676,0.40454545454584023,0.002727272727227198,3.22529411764704,4.892352941176495,3.373529411764713
3.809000000000003,20.003333333333316,3.186666666667092,0.0011111111111593436,3.241176470588248,5.133529411764745,3.374705882352938
3.829000000000003,18.388888888888488,6.242222222222699,1.224444444444773,4.540000000000221,5.886470588235414,3.0688235294117123
3.849000000000003,15.69888888888846,8.531111111111322,3.5022222222225627,5.842941176470694,5.149705882352838,2.8667647058823404
3.869000000000003,13.109999999999648,9.223333333333315,5.042222222222264,6.595882352941286,4.414411764705775,2.778529411764693
3.889000000000003,10.629999999999614,9.100000000000076,3.9649999999996854,8.15187500000038,2.665624999999552,2.6287499999999664
3.909000000000003,8.009999999999664,11.140000000000468,1.4349999999996332,9.460588235294217,0.8935294117645337,2.4888235294117504
3.929000000000003,4.34999999999929,15.100000000000605,-0.14500000000001445,9.580588235294115,0.08647058823519227,2.32882352941174
3.949000000000003,-0.8250000000007764,18.285000000000338,0.39000000000003465,8.991764705882241,0.12235294117653801,1.8764705882352068
3.969000000000003,-6.130000000000722,19.65000000000005,-0.025000000000112543,8.143749999999857,0.5837500000000595,1.1812499999998756
3.989000000000003,-9.995000000000378,19.079999999999814,-0.13999999999987875,7.144117647058675,0.8664705882353168,0.2911764705880998
4.009000000000003,-12.165000000000276,17.834999999999816,2.1250000000005627,6.124705882352783,0.9505882352941248,-0.6035294117648419
4.0290000000000035,-13.565000000000225,16.47499999999974,5.570000000000491,5.049999999999833,0.8699999999999143,-1.3900000000000834
4.049000000000003,-13.739999999999819,14.79999999999969,7.54500000000019,4.1476470588234315,0.3470588235293036,-1.8376470588235752
4.0690000000000035,-11.809999999999539,12.389999999999525,7.804999999999946,3.5537499999999267,-0.4012500000001392,-2.1875000000000804
4.089000000000003,-7.984999999999239,9.56499999999958,7.710000000000006,3.2894117647058603,-1.0641176470589158,-2.6294117647059543
4.1090000000000035,-1.3049999999984903,7.0949999999996125,8.30000000000025,3.1482352941176246,-1.5300000000000638,-3.195294117647158
4.129000000000003,7.380000000001274,5.349999999999833,10.575000000000463,2.9999999999997407,-1.7099999999998976,-3.859999999999962
4.149000000000004,13.740000000000846,5.960000000000433,14.225000000000836,1.4247058823525383,-0.9517647058820305,-3.5494117647057255
4.169000000000003,18.115000000000574,8.12500000000009,19.010000000000467,-0.10470588235292305,0.5152941176471695,-3.0847058823530156
4.189000000000004,20.500000000000547,8.889999999999715,21.27500000000036,-0.017499999999990287,0.47687499999981303,-3.642500000000126
4.209000000000003,20.584999999999958,6.224999999999214,18.774999999999153,-0.6958823529413471,-0.6476470588237225,-3.9388235294117817
4.229000000000004,19.39499999999955,0.48499999999899446,11.75999999999848,-1.6441176470589722,-1.4264705882354027,-3.781176470588199
4.249000000000003,15.564999999999115,-4.230000000000626,3.504999999998753,-1.449411764705786,-0.939411764705786,-3.3811764705881697
4.269000000000004,9.969999999998976,-6.190000000000114,-1.9950000000009271,-0.9729411764705839,-0.4947058823529562,-2.9188235294116787
4.289000000000003,4.824999999999208,-6.004999999999883,-3.309999999999524,-0.9881250000000094,-0.6862500000000488,-2.4631249999999345
4.309000000000004,0.6711111111104069,-6.01000000000015,0.7955555555564223,-0.8188235294117079,-0.8305882352941267,-2.1417647058823026
4.329000000000003,-1.6550000000002805,-7.700000000000483,3.0700000000001633,-0.45882352941170373,-0.8494117647058842,-1.9582352941176204
4.349000000000004,-2.628000000000129,-11.114000000000699,3.4359999999999844,-0.31823529411764495,-0.8758823529411596,-1.8070588235293843
4.369000000000003,-3.8540000000002843,-14.706000000000532,2.6439999999997856,-0.3064705882352923,-0.7464705882352616,-1.6470588235293846
4.389000000000004,-5.971111111111495,-17.87666666666732,1.1199999999996626,-0.26624999999998544,-0.4499999999999223,-1.4487499999999565
4.409000000000003,-7.562000000000361,-18.877999999999993,-0.20200000000019241,-0.11764705882349942,0.10294117647068951,-1.1482352941175928
4.429000000000003,-8.065555555555502,-19.07222222222209,-1.230000000000086,0.7858823529413489,1.8394117647062027,-0.3176470588233776
4.449000000000003,-6.893999999999642,-17.543999999999606,-1.5119999999999223,1.081818181818226,2.250909090909148,0.06393939393945502
4.469000000000004,-4.1999999999994335,-14.601999999999402,-0.5799999999998047,1.3305882352941607,2.5400000000000365,0.6594117647060953
4.489000000000003,-0.6999999999992743,-11.523999999999525,0.3660000000001384,1.4825000000000075,2.6274999999999924,1.4575000000000524
4.509000000000003,3.326000000000607,-8.807999999999586,0.9140000000000876,1.4541176470588142,2.644411764705889,1.7558823529412122
4.5290000000000035,7.268000000000618,-5.543999999999356,-0.09000000000042185,1.3835294117646944,2.6973529411764794,2.0264705882353375
4.549000000000004,12.382000000001277,-1.405999999999066,-0.8879999999996404,1.3441176470588412,3.0005882352942064,2.482941176470692
4.5690000000000035,18.775000000001203,3.0850000000006785,3.365000000000956,1.4347058823529562,3.4676470588236135,3.078235294117774
4.589000000000003,25.696000000000726,3.9739999999996947,6.630000000000151,1.5025000000000075,3.8437500000000413,3.8200000000001197
4.6090000000000035,24.833999999999236,1.3559999999995644,7.890000000000355,1.7952941176471262,4.00117647058825,4.597058823529533
4.629000000000004,18.2859999999985,-0.2940000000001133,8.383999999999741,2.4258823529413154,3.8223529411764203,5.32411764705897
4.649000000000004,11.323999999998765,0.6000000000004103,7.958000000000207,2.7617647058823547,3.175882352941051,5.918235294117717
4.669000000000003,5.931999999999282,3.910000000000604,9.498000000000175,2.759411764705877,2.5311764705881536,6.19
4.689000000000004,1.7539999999992535,7.656000000000629,9.958000000000013,2.7625000000000095,2.05437499999992,5.981874999999911
4.709000000000004,-1.6180000000005783,9.558000000000149,9.175999999999691,2.8029411764705956,1.8182352941176183,5.368823529411624
4.729000000000004,-5.01200000000075,9.495999999999926,6.8259999999994765,2.8382352941176525,1.818235294117653,4.571176470588102
4.749000000000003,-9.032000000000595,9.584000000000087,4.739999999999759,2.88,1.8023529411764538,3.685294117646949
4.769000000000004,-12.400000000000587,10.728000000000284,3.2099999999996873,2.887058823529416,1.6917647058823357,2.973529411764598
4.789000000000004,-14.814000000000348,12.29200000000034,2.3740000000000547,2.939375000000017,1.6231249999999928,2.4081249999998957
4.809000000000004,-15.543999999999938,14.018000000000304,3.8700000000004104,3.01588235294119,1.510588235294088,1.7764705882351621
4.829000000000003,-13.541999999999508,14.301999999999854,5.218000000000069,3.0488235294117683,1.1223529411763982,0.9999999999998704
4.849000000000004,-9.851999999999284,11.869999999999356,4.473999999999703,3.0258823529411596,0.2729411764703995,0.03235294117630519
4.869000000000004,-6.1939999999992725,8.269999999999278,2.9539999999997226,2.907058823529377,-0.7847058823531561,-0.8605882352942835
4.889000000000004,-2.8319999999994216,4.951999999999461,1.971999999999871,2.663749999999937,-1.8187500000001895,-1.6687500000001505
4.909000000000003,0.9900000000006299,3.2018181818180387,1.9681818181818982,2.335882352941124,-2.5500000000000957,-2.2917647058824393
4.929000000000004,6.206000000001156,2.872000000000047,3.548000000000461,1.9029411764704947,-2.8958823529412343,-2.672941176470658
4.949000000000004,11.742000000001074,4.068000000000439,6.784000000000891,1.0876470588233311,-3.1376470588236005,-2.925882352941245
4.969000000000004,15.525000000000455,7.0450000000006,12.896000000001267,0.24411764705868583,-3.5223529411765693,-3.2811764705883215
4.989000000000003,17.620000000000285,8.953333333333578,20.116666666668067,-0.5918750000001405,-4.247500000000143,-3.8381250000000993
5.009000000000004,20.036000000000318,6.5779999999988,21.903999999998803,-2.4647058823534005,-5.9411764705886405,-4.727647058823725
5.029000000000004,18.317999999999415,-0.7500000000015561,11.229999999998018,-3.4248484848486145,-6.558787878787932,-4.973636363636375
5.049000000000004,13.549999999998619,-6.026666666667418,3.6866666666653867,-4.3070588235298715,-6.60235294117626,-4.903529411764559
5.0690000000000035,6.828999999998842,-7.065999999999926,-0.011000000000617849,-6.278750000000162,-5.324999999999688,-4.18374999999989
5.089000000000004,1.0319999999989171,-5.8009999999996715,0.4540000000005201,-6.6894117647058735,-3.711764705882036,-3.6488235294116675
5.109000000000004,-2.8760000000006736,-4.850999999999927,2.345000000000277,-6.648235294117638,-2.1352941176467377,-3.166470588235196
5.129000000000004,-5.011000000000354,-5.756000000000375,3.0320000000000684,-6.46117647058819,-1.4999999999999185,-2.8911764705881895
5.149000000000004,-6.484000000000243,-8.071000000000415,3.1370000000000036,-5.640588235293951,-1.2523529411764853,-2.8129411764705794
5.169000000000004,-8.01500000000032,-10.525000000000533,2.9789999999999446,-4.693749999999814,-1.3700000000000379,-2.738749999999974
5.1890000000000045,-8.803000000000038,-12.965000000000447,2.3799999999997867,-3.641176470587981,-1.4405882352941042,-2.4758823529410883
5.209000000000004,-8.979000000000072,-14.413000000000338,1.2369999999997912,-2.4317647058820966,-1.2670588235293638,-1.9499999999998776
5.229000000000004,-9.473000000000063,-15.620000000000136,0.6579999999999122,-1.1258823529409632,-0.9752941176470092,-1.0582352941174906
5.249000000000004,-8.69999999999966,-15.448999999999774,-0.17900000000024294,-0.08411764705869078,-0.7623529411764485,0.05529411764725353
5.269000000000005,-6.749999999999547,-13.082999999999316,-0.9970000000000498,0.5582352941177593,-0.6517647058823316,1.0411764705884332
5.289000000000004,-3.046999999998768,-9.675999999999224,1.0080000000007416,1.03812500000009,-0.5324999999999709,1.8518750000001432
5.309000000000004,5.475000000001584,-6.6369999999996026,1.7359999999994828,1.5364705882353942,-0.27352941176464446,2.4541176470589257
5.329000000000004,12.055000000001343,-4.5269999999994495,-3.0180000000007845,2.025882352941276,0.21352941176481507,2.908235294117737
5.349000000000005,18.206666666667736,-1.2233333333323957,-2.0299999999991263,2.191176470588222,0.8864705882354685,3.2805882352941786
5.369000000000004,17.98999999999966,2.648000000000785,1.8930000000007632,2.1782352941176657,1.691176470588408,3.5300000000000398
5.389000000000004,17.15999999999978,4.5040000000000076,4.322000000000314,2.3931250000000706,2.4400000000001163,3.6962500000000245
5.409000000000004,14.087999999999164,2.50899999999939,5.957000000000345,2.7111764705882955,2.7494117647059135,3.870000000000041
5.429000000000005,10.068999999999125,0.12599999999953793,6.232999999999769,3.042941176470673,2.8270588235294265,4.220588235294215
5.449000000000004,6.9829999999994845,-0.8840000000000512,3.894999999999467,3.518823529411733,3.041176470588222,4.7605882352942235
5.469000000000004,5.400999999999756,0.15500000000034586,2.56899999999988,3.2611764705881385,2.9541176470587955,5.097058823529416
5.489000000000004,4.019999999999701,2.796000000000631,2.3540000000000085,2.9081249999999734,2.9600000000000386,4.8399999999998835
5.509000000000005,2.377999999999454,5.887000000000829,1.7619999999997733,2.8141176470588065,3.144705882352983,4.04117647058802
5.529000000000004,0.0639999999994969,8.932000000000622,1.060999999999885,2.837647058823539,3.3305882352941563,3.1635294117645265
5.549000000000004,-2.203000000000422,11.350000000000426,1.2160000000001194,3.108823529411813,3.477647058823514,2.608823529411738
5.569000000000004,-3.246000000000077,12.47600000000012,1.3179999999999317,3.321764705882377,3.3282352941175777,2.5417647058823767
5.589000000000005,-3.5280000000001235,12.311999999999877,0.41399999999975273,3.368749999999994,2.963124999999896,2.6618750000000326
5.609000000000004,-4.2354545454547115,11.810909090908988,1.1154545454549298,3.291176470588214,2.3588235294116235,2.641176470588214
5.629000000000004,-5.511000000000312,11.390999999999885,4.808000000001041,3.232352941176461,1.46705882352922,2.196470588235186
5.6490000000000045,-6.288888888888914,10.51777777777751,9.780000000001044,3.105294117646932,0.203529411764172,0.9452941176464378
5.669000000000005,-5.28999999999964,8.479999999999377,11.306000000000058,2.5372727272725903,-1.71636363636384,-1.3354545454548197
5.6890000000000045,-3.4879999999995484,5.468999999999306,11.414000000000094,1.9615151515150175,-2.57090909090929,-2.486969696969965
5.709000000000004,-0.9018181818177139,2.533636363635864,12.549090909091143,1.1099999999997963,-3.0841176470588905,-3.203529411764804
5.7290000000000045,1.1733333333338023,1.0388888888887324,13.127777777777919,0.015882352940945865,-3.34764705882358,-3.554117647058889
5.749000000000005,3.2080000000005082,1.7220000000003308,15.158000000000724,-1.0088235294119645,-3.6052941176471602,-3.92529411764716
5.769000000000005,7.14600000000114,3.066000000000217,19.328000000000905,-1.8605882352943075,-4.171176470588433,-4.410000000000137
5.789000000000004,10.659090909091404,3.2063636363636565,19.636363636363484,-2.6631250000001483,-5.22937500000025,-5.043750000000132
5.809000000000005,12.900909090909511,3.4072727272726877,19.638181818181632,-3.289411764706014,-6.330000000000238,-5.501764705882434
5.829000000000005,13.98300000000015,2.3069999999996447,16.443999999999185,-3.823529411764839,-6.953529411764839,-5.26882352941167
5.849000000000005,13.528888888888584,1.2855555555553766,14.193333333332781,-4.459411764705912,-6.631176470587863,-3.9652941176466627
5.869000000000004,11.514444444443935,1.0622222222222566,11.642222222221719,-4.557058823529417,-4.877058823529019,-2.193529411764351
5.889000000000005,8.925999999999386,1.5840000000001524,10.363999999999805,-4.795000000000119,-3.390624999999788,-0.6981249999997285
5.909000000000005,7.159999999999614,1.7059999999999285,9.695999999999819,-4.931764705882339,-2.7817647058822392,-0.12411764705875639
5.929000000000005,6.015999999999778,0.9459999999997553,8.38799999999959,-4.647058823529327,-2.595882352941147,-0.19235294117650853
5.949000000000004,4.985999999999732,-0.4840000000003834,6.593999999999575,-4.177058823529287,-2.4799999999999103,-0.41823529411768934
5.969000000000005,3.36199999999958,-1.9060000000002861,5.3479999999997965,-3.6029411764704466,-2.012941176470447,-0.5994117647059198
5.989000000000005,1.6039999999995485,-3.1420000000003525,4.475999999999763,-2.961874999999842,-1.304374999999806,-0.7406250000000268
6.009000000000005,0.19999999999969986,-4.63400000000036,3.381999999999718,-2.3247058823527933,-0.4847058823527455,-0.7647058823529356
6.029000000000004,-0.8980000000002124,-6.0500000000003,2.635999999999917,-1.729411764705761,0.28235294117662596,-0.5811764705881891
6.049000000000005,-1.7320000000002496,-7.420000000000323,2.1599999999998154,-1.1364705882351491,0.8176470588236033,-0.28764705882346375
6.069000000000005,-3.1980000000003637,-8.702000000000352,1.3059999999998184,-0.4741176470586189,1.085882352941218,0.00529411764714513
6.089000000000005,-4.038000000000166,-10.11800000000035,0.40599999999975517,0.31687500000019986,1.17,0.3881250000001104
6.109000000000004,-4.700000000000139,-11.724000000000384,-0.8560000000003094,1.0000000000001223,1.1547058823529364,0.9400000000001223
6.129000000000005,-4.97600000000001,-12.730000000000114,-1.8860000000001709,1.4211764705883287,1.3476470588235907,1.681176470588428
6.149000000000005,-4.649999999999918,-12.551999999999802,-2.2660000000000933,2.016470588235503,2.14588235294142,2.7423529411767618
6.169000000000005,-4.35599999999989,-10.921999999999516,-2.5640000000000382,2.637647058823592,2.875294117647136,3.7788235294119907
6.1890000000000045,-3.117999999999589,-8.559999999999423,-2.4679999999999587,2.6956249999999553,2.976874999999961,4.638750000000185
6.209000000000005,0.2400000000010074,-5.987999999999357,-2.1639999999998945,2.6376470588235326,2.8358823529411445,5.170000000000099
6.229000000000005,4.93000000000117,-3.367272727272094,-1.7445454545453583,2.7905882352941647,2.781764705882344,5.287647058823541
6.249000000000005,9.850000000001247,-1.327999999999573,-1.3979999999999329,3.02823529411769,2.908823529411778,4.696764705882288
6.269000000000005,14.354000000000937,0.5720000000004573,-2.024000000000291,3.216470588235334,2.967647058823542,4.408529411764644
6.289000000000005,17.536000000000588,1.870000000000192,-0.3719999999992518,3.786875000000248,3.090000000000048,3.833749999999779
6.3090000000000055,17.55999999999975,3.268000000000446,0.20000000000011015,4.585882352941366,3.167647058823533,3.410588235294074
6.329000000000005,16.078181818181495,4.625454545454814,1.1454545454546732,5.059393939394049,2.8015151515150327,3.355757575757568
6.349000000000005,14.597999999999635,6.758000000000628,0.2839999999997368,5.441176470588267,2.3235294117645764,3.296470588235244
6.369000000000005,12.609999999999376,10.1640000000009,1.1120000000004269,5.5223529411764565,1.785882352941068,2.9811764705881068
6.389000000000006,7.787999999998489,13.527000000000779,2.8350000000003224,5.388749999999936,1.3599999999998869,2.2849999999997452
6.409000000000005,3.159999999998864,14.713636363636516,4.004545454545794,5.111176470588159,0.921764705882239,1.297058823529155
6.429000000000005,-0.3190000000007509,12.806999999999219,5.8740000000004775,4.701764705882245,0.2935294117645395,0.18647058823501383
6.449000000000005,-3.9390000000006014,8.7809999999991,6.717999999999512,3.9988235294115113,-0.6417647058826252,-0.9447058823532009
6.469000000000006,-6.086000000000668,5.962999999999455,4.321999999999109,3.0047058823526376,-1.6111764705884717,-1.835294117647254
6.489000000000005,-8.172000000000587,5.577000000000114,2.8799999999998507,1.8443749999997106,-2.3431250000001342,-2.4437500000001133
6.509000000000005,-10.864000000000676,7.003000000000383,3.3210000000001445,0.6858823529409079,-2.723529411764773,-2.824117647058902
6.529000000000005,-13.388000000000567,8.5710000000004,3.9730000000001873,-0.34941176470613616,-3.034117647058903,-3.2852941176471826
6.549000000000006,-14.482000000000165,9.536000000000142,5.156000000000375,-1.0552941176471793,-3.3617647058824116,-4.068823529412002
6.569000000000005,-13.56099999999959,8.630999999999641,5.438999999999904,-1.453750000000087,-3.5700000000000554,-4.880000000000194
6.589000000000005,-11.631999999999541,6.9389999999996075,4.072999999999637,-1.8747058823530711,-3.922941176470712,-5.33000000000005
6.609000000000005,-8.460999999999032,5.243999999999575,3.1999999999997977,-2.5035294117648754,-4.306470588235373,-5.17058823529403
6.629000000000006,-3.5549999999983877,4.3209999999998185,2.4619999999998123,-3.0100000000001352,-3.9299999999996746,-4.389999999999667
6.649000000000005,5.317000000002648,5.09900000000041,5.031000000001159,-3.4082352941176977,-2.858235294117321,-3.3511764705880043
6.669000000000005,15.403636363638508,12.365454545457155,15.035454545457764,-3.5117647058823303,-1.7417647058821357,-2.612352941176359
6.689000000000005,18.00200000000192,3.581999999997626,10.731999999998536,-3.375624999999947,-1.0587499999998797,-2.3318749999999824
6.709000000000006,18.252999999999457,4.385000000000146,11.173000000001565,-3.1799999999999415,-0.7799999999999415,-2.47058823529419
6.729000000000005,16.23299999999963,4.828999999999904,16.889000000000053,-2.885882352941097,-0.45764705882344087,-2.7552941176471326
6.749000000000005,14.822999999999439,2.5499999999993035,12.253999999998836,-2.2370588235292366,0.11764705882364976,-2.9064705882352886
6.7690000000000055,10.780999999998762,-0.6220000000009263,10.625999999999495,-1.4947058823527462,0.614117647058945,-2.8088235294116912
6.789000000000006,8.30699999999949,-4.040000000001115,4.9889999999977785,-0.7287499999997664,1.152500000000184,-2.356249999999809
6.8090000000000055,5.005999999998792,-6.993000000000627,0.5199999999993551,0.16411764705908577,1.8617647058825617,-1.5847058823527087
6.829000000000005,1.9789999999993086,-8.443000000000284,0.5509999999999453,1.89352941176519,2.6405882352943153,-0.12117647058782821
6.8490000000000055,-0.9590000000008265,-9.06100000000017,0.7830000000001583,2.352727272727373,2.697272727272732,0.29393939393948626
6.869000000000006,-2.763000000000393,-9.805000000000263,1.666000000000258,2.8635294117649392,2.7064705882352906,0.9070588235297634
6.889000000000006,-3.78400000000027,-11.005000000000381,1.9790000000000059,3.394375000000053,2.9025000000001273,1.8893750000001945
6.909000000000005,-4.609000000000204,-12.534000000000377,1.0349999999997264,3.4408823529411685,3.583823529411978,2.5391176470589905
6.929000000000006,-5.71272727272761,-13.806363636363951,0.17272727272707988,3.411470588235286,4.389705882353177,3.168529411764891
6.949000000000006,-6.839000000000299,-14.850000000000293,-0.18600000000008207,3.1241176470587906,4.985294117647196,3.6594117647060482
6.969000000000006,-7.230000000000049,-15.629999999999972,-1.1400000000002615,3.1362500000000795,5.410000000000111,4.262500000000215
6.989000000000005,-7.33,-15.092999999999735,-1.8960000000001194,3.344705882352973,5.562941176470566,5.091176470588453
7.009000000000006,-6.46999999999959,-13.29699999999943,-1.312999999999748,3.2370588235293454,5.1629411764704285,5.889411764706095
7.029000000000006,-3.4399999999986197,-11.11999999999929,-0.43999999999976996,3.029999999999941,4.617058823529252,6.218823529411831
7.049000000000006,1.1500000000010817,-8.50999999999919,-0.1800000000004423,3.2805882352943034,4.437647058823562,5.762352941176272
7.069000000000005,5.380000000001689,-5.7899999999994085,-1.4799999999994458,4.042941176470854,4.4952941176470365,5.058823529411582
7.089000000000006,12.9400000000026,-3.37999999999919,1.8800000000012682,5.058125000000301,4.151874999999812,4.481874999999869
7.109000000000006,22.320000000002022,-0.8099999999996581,5.059999999999477,5.980588235294365,3.3617647058821016,4.235882352941139
7.129000000000006,26.75181818181888,0.30363636363669577,3.5199999999995875,6.800000000000197,2.6299999999998245,4.300000000000048
7.149000000000005,23.881818181817124,1.3627272727275592,4.073636363636596,7.39470588235304,2.035294117646853,4.435294117647068
7.169000000000006,19.63999999999868,3.230000000000305,4.659999999999757,7.674705882352965,1.245882352940933,4.41058823529407
7.189000000000006,14.932999999998435,4.274000000000333,3.752999999999685,7.674999999999967,0.46499999999977076,4.134374999999865
7.209000000000006,9.369999999998427,5.440000000000392,3.229999999999882,7.487058823529344,-0.0017647058824527828,3.6535294117645543
7.229000000000005,4.76999999999904,6.780000000000379,3.060000000000112,7.110588235294014,-0.12647058823531182,3.0794117647057346
7.249000000000006,1.2799999999990612,8.150000000000436,3.630000000000348,6.52176470588219,0.03823529411775456,2.4499999999998336
7.269000000000006,-1.42000000000046,9.34000000000005,4.900000000000373,5.944117647058649,0.43352941176483606,1.8782352941174871
7.289000000000006,-2.7300000000005595,9.049999999999685,5.739999999999926,5.347499999999816,0.6768750000000106,1.4031249999998763
7.3090000000000055,-4.940000000000816,8.159999999999904,5.3999999999998565,4.630588235293906,0.42999999999988714,0.9441176470586907
7.329000000000006,-7.980000000000883,7.910000000000087,4.909999999999888,3.7364705882350195,-0.2523529411766928,0.4264705882351379
7.349000000000006,-10.660000000000709,8.260000000000169,4.549999999999913,2.57764705882319,-1.134117647059041,-0.2170588235296146
7.369000000000006,-12.770000000000323,9.050000000000473,4.790000000000703,1.6011764705880258,-1.7117647058824408,-0.8782352941178465
7.389000000000006,-13.41999999999985,10.750000000000416,7.370000000000597,0.9412499999998372,-1.9081250000000176,-1.6143750000002228
7.409000000000006,-12.25999999999913,11.77999999999983,8.939999999999793,0.3576470588233573,-2.0676470588235913,-2.3947058823531684
7.4290000000000065,-9.079999999998732,10.769999999999346,7.819999999999602,-0.24000000000020216,-2.4770588235295663,-3.2464705882355878
7.449000000000006,-4.539999999998172,8.419999999999135,6.759999999999664,-0.900588235294328,-3.115294117647258,-4.2923529411768095
7.469000000000006,1.6100000000017853,5.659999999999334,5.389999999999568,-1.7194117647061988,-3.771764705882545,-5.582941176471071
7.489000000000006,7.930000000001722,3.629999999999888,3.9399999999998943,-2.5127272727273713,-4.168181818181823,-6.622727272727313
7.509000000000007,13.740000000001691,3.510000000000174,4.110000000000392,-2.852121212121324,-4.186363636363643,-6.762121212121258
7.529000000000006,18.440000000000772,4.280000000000491,5.610000000000827,-3.569411764706122,-2.7029411764700395,-5.924117647058504
7.549000000000006,20.39999999999981,6.580000000000352,9.80000000000154,-3.4129411764705755,-1.3102941176469867,-4.854117647058631
7.569000000000006,20.000000000000007,6.029999999998751,13.509999999998637,-3.365882352941162,-1.0455882352940378,-4.148235294117434
7.589000000000007,18.219999999998418,1.6299999999985513,6.8299999999982655,-3.0699999999998036,-0.9393750000000286,-3.624999999999902
7.609000000000006,13.0399999999979,-2.6600000000013404,2.909999999998432,-2.447058823529226,-1.084705882352993,-3.3823529411764084
7.629000000000006,6.89999999999834,-6.26000000000023,-1.7599999999999627,-1.717647058823309,-1.0541176470587994,-3.0670588235293117
7.649000000000006,1.8072727272715976,-6.5263636363635475,-0.4790909090903145,-0.691176470587966,-0.5417647058821685,-2.382352941176183
7.669000000000007,-1.5690000000008477,-6.101999999999816,1.2040000000005522,0.033529411764842476,0.0041176470589718295,-1.425882352940829
7.689000000000006,-3.630000000000324,-5.604000000000026,3.2560000000006872,0.3443750000000614,0.44125000000013914,-0.3437499999996315
7.709000000000006,-4.5300000000002285,-6.090000000000539,4.7300000000000075,0.5094117647059271,0.8270588235295184,0.6541176470590955
7.729000000000006,-5.086000000000168,-7.889000000000577,4.65,0.7000000000000365,1.0599999999999965,1.5000000000001756
7.749000000000007,-5.7436363636365835,-9.54000000000046,4.748181818181872,0.8017647058823568,1.0464705882352865,2.045294117647199
7.769000000000006,-6.267000000000046,-11.153000000000612,4.754999999999704,0.7676470588234848,1.0900000000000631,2.4947058823530934
7.789000000000006,-6.622000000000182,-13.027000000000495,3.2959999999994087,0.5774999999999292,1.4643750000001663,3.024375000000166
7.809000000000006,-7.026999999999981,-14.469000000000124,1.5439999999996321,0.46705882352940026,2.1670588235296613,3.750000000000261
7.829000000000007,-6.921999999999882,-14.206999999999585,0.7169999999999146,0.5070588235294318,2.6682352941177947,4.597058823529704
7.849000000000006,-6.685999999999316,-12.29099999999889,0.7660000000004995,0.47588235294114695,2.7064705882352866,5.408823529411971
7.869000000000006,-2.8199999999982377,-8.469999999998977,2.135999999999693,0.3994117647058722,2.714705882352965,5.961764705882441
7.8890000000000065,3.098000000001893,-5.74999999999954,-0.3500000000011173,0.39687500000001225,2.76,6.045624999999939
7.909000000000007,9.807000000002807,-4.566999999999783,-2.3049999999997697,0.509411764705934,2.645294117646999,5.559411764705664
7.9290000000000065,16.520000000001286,-3.2899999999998966,-3.219999999999883,0.6811764705882947,2.4405882352940464,4.695882352940868
7.949000000000006,18.54999999999994,-3.6400000000003456,-0.8900000000013609,1.0052941176471952,2.2829411764705734,3.8623529411763085
7.9690000000000065,17.683636363635603,-4.64818181818161,-5.221818181818848,1.48647058823548,2.239411764705871,3.439999999999937
7.989000000000007,15.098999999999139,-3.21199999999929,-7.057000000000309,2.091250000000205,2.169374999999963,3.3468750000000123
8.009000000000007,11.963999999998316,-0.8679999999989214,-7.83,2.6388235294119524,2.053529411764662,3.4058823529412026
8.029000000000007,8.200999999999151,2.0360000000012226,-6.962999999998837,3.031764705882492,1.9264705882352446,3.4388235294117737
8.049000000000007,5.693999999999106,5.96800000000117,-2.891999999999553,3.2123529411764293,1.4276470588228005,3.138823529411295
8.069000000000008,3.2249999999994574,8.46100000000001,-3.966000000001052,3.079090909090846,-0.30272727272761035,2.0036363636361205
8.089000000000008,1.9279999999994117,8.085999999999395,-4.799999999998774,2.9093939393938775,-1.2118181818185145,1.3490909090906695
8.109000000000007,0.4559999999995137,6.4649999999993755,-1.746999999999586,2.44470588235271,-2.7000000000006676,-0.6923529411775047
8.129000000000007,-1.1030000000005455,4.740999999999678,-1.4600000000001314,2.0188235294116526,-2.8435294117646253,-2.125294117647385
8.149000000000008,-2.7140000000007847,4.073000000000108,-1.1489999999993237,1.1018181818178254,-2.4615151515150053,-2.7672727272729603
8.169000000000008,-4.9140000000011765,4.903000000000842,0.691000000000907,0.1474999999996428,-2.0587499999998395,-3.320000000000147
8.189000000000007,-7.556000000000697,6.96200000000067,2.5760000000001706,-0.7929411764709149,-1.8105882352940965,-3.7611764705884094
8.209000000000007,-9.594000000000284,9.038000000000507,2.475999999999867,-1.6147058823532292,-2.027058823529547,-4.327647058823756
8.229000000000008,-9.972222222222241,10.177777777777843,2.651111111111949,-2.3158823529414403,-2.6929411764708746,-4.920588235294345
8.249000000000008,-9.615999999999298,9.85899999999949,5.246000000001553,-3.2541176470592235,-3.748235294118009,-5.282352941176501
8.269000000000007,-7.739090909090261,8.579090909090487,8.676363636364458,-4.263529411765011,-4.429411764705869,-5.244705882352822
8.289000000000007,-5.5329999999991,7.311999999999487,10.406999999999915,-4.659374999999958,-3.566249999999303,-4.664999999999665
8.309000000000008,-2.0899999999979424,5.598181818181099,9.905454545454331,-4.69647058823534,-2.229411764705472,-3.669411764705472
8.329000000000008,3.9711111111136903,3.56111111110996,9.258888888888713,-4.9647058823530585,-2.076470588235321,-2.8482352941173557
8.349000000000007,7.905454545455022,1.2345454545451302,9.337272727273286,-4.867647058823279,-2.658235294117862,-2.511764705882357
8.369000000000007,9.694000000000736,1.3580000000005676,11.62800000000111,-3.994705882352487,-2.949999999999862,-2.53058823529413
8.389000000000008,12.198000000001569,3.234000000000618,16.63000000000334,-2.7974999999996095,-2.600624999999893,-2.46562499999993
8.409000000000008,16.004000000000616,4.023999999999699,20.58899999999682,-1.9941176470585749,-2.362352941176392,-2.063529411764514
8.429000000000007,16.523333333333355,3.4877777777780317,13.544444444443334,-1.2576470588232422,-1.8964705882350923,-1.3388235294114685
8.449000000000007,16.332999999999625,4.431000000000204,8.541999999997318,-0.5958823529409958,-1.3864705882351391,-0.44823529411735014
8.469000000000008,14.579999999999005,5.100000000000249,2.3355555555548553,-0.11235294117627162,-0.9347058823527168,0.31058823529439317
8.489000000000008,12.322222222220997,5.195555555555271,1.5966666666668048,0.35375000000017665,-0.3687499999997676,0.885000000000186
8.509000000000007,9.233999999998765,4.467999999999797,3.362000000001727,0.7341176470589458,0.1711764705884186,1.2741176470589457
8.529000000000009,6.479999999999076,3.6999999999992608,7.630000000001248,0.9788235294118698,0.6370588235296275,1.5564705882354213
8.549000000000008,4.435999999999164,1.767999999999054,9.302000000000321,1.165294117647162,1.2076470588238444,1.922941176470831
8.569000000000008,2.6279999999995627,-0.7180000000009692,9.90199999999993,1.3652941176471032,1.8335294117648608,2.5323529411767494
8.589000000000008,1.389999999999492,-3.0740000000007974,9.163999999999625,1.3568749999999397,2.031874999999977,3.215625000000228
8.609000000000007,0.2279999999995822,-4.9960000000006195,8.281999999999597,1.3152941176470676,2.0941176470588716,3.697647058823682
8.629000000000008,-0.7700000000003517,-6.428000000000344,7.13999999999957,1.4700000000000313,2.469999999999964,4.000000000000005
8.649000000000008,-1.5460000000001797,-7.012000000000008,6.203999999999742,1.5211764705882138,2.3470588235292826,3.9782352941175696
8.669000000000008,-1.78,-6.753999999999898,5.40399999999943,1.5082352941176824,2.068235294117607,3.706470588235139
8.689000000000009,-1.760000000000048,-6.992000000000441,3.733999999999108,1.723125000000167,2.105625000000098,3.277499999999793
8.709000000000009,-1.9400000000001563,-8.084000000000445,1.6359999999989683,2.370000000000368,2.3711764705883707,2.905882352941025
8.729000000000008,-2.4700000000002733,-8.876000000000062,-0.9460000000008832,2.6996969696970576,2.4687878787878987,2.854545454545462
8.749000000000008,-3.0940000000001717,-8.79399999999982,-3.052000000000594,2.9417647058825036,2.4888235294117127,2.8805882352941437
8.769000000000007,-3.6600000000002346,-8.099999999999609,-4.306000000000298,3.2511764705882618,2.3582352941176072,2.9123529411764486
8.789000000000009,-4.252000000000281,-7.0539999999995855,-4.713999999999976,3.2463636363635935,2.13909090909075,2.735454545454403
8.809000000000008,-4.802000000000164,-6.119999999999766,-4.491999999999969,3.149393939393902,1.7815151515150138,2.4142424242423006
8.829000000000008,-5.164000000000055,-5.655999999999828,-4.526000000000023,3.009999999999912,1.1599999999996822,1.7599999999996783
8.849000000000009,-4.861999999999386,-5.2039999999997795,-4.493999999999923,2.7364705882351013,0.23941176470539574,0.8399999999995454
8.869000000000009,-2.9679999999988196,-4.575999999999594,-4.1139999999998205,2.284705882352717,-0.7747058823533238,-0.1423529411768787
8.889000000000008,0.5790909090925342,-3.3990909090904413,-3.5299999999998257,1.7243749999997722,-1.468125000000172,-1.0312500000003069
8.909000000000008,4.96400000000193,-2.26999999999957,-3.2719999999999296,1.066470588235041,-1.6911764705882701,-1.7176470588237565
8.929000000000007,10.062222222224387,-1.2633333333329229,-2.671111111110384,0.3370588235291291,-1.6723529411764526,-2.2070588235295867
8.949000000000009,14.746000000001459,-0.5179999999997598,-0.567999999999298,-0.45823529411800534,-1.6523529411765079,-2.6529411764708395
8.969000000000008,16.798000000000187,0.1780000000003439,0.5880000000005002,-1.238750000000347,-1.7925000000001252,-3.268750000000347
8.989000000000008,16.67999999999949,1.1360000000004533,2.2180000000008127,-1.9200000000002382,-2.1535294117648833,-3.979411764706144
9.00900000000001,14.789999999998848,2.356000000000748,3.6380000000000865,-2.5429411764708805,-2.73823529411795,-4.454705882353115
9.029000000000009,11.852222222220622,3.928888888889594,3.4999999999999054,-3.300588235294488,-3.331176470588506,-4.539411764705888
9.049000000000008,9.055454545453603,5.307272727273243,3.462727272727281,-4.0600000000001755,-3.1235294117643653,-4.089411764705589
9.069000000000008,6.890999999999322,6.541000000000415,3.3889999999998763,-4.424705882353047,-2.46352941176456,-3.4435294117644846
9.089000000000008,5.1019999999993,7.798000000000553,3.090999999999978,-4.658750000000065,-2.4018750000001257,-2.9849999999998884
9.109000000000009,3.1329999999991935,9.329000000000661,3.2820000000002176,-4.49823529411749,-3.353529411765295,-2.9335294117647437
9.129000000000008,1.3759999999991122,10.560000000000361,3.483999999999891,-3.677058823529048,-3.977058823529589,-2.9970588235294344
9.149000000000008,-1.0700000000010925,11.233000000000226,3.1019999999998107,-2.694705882352782,-3.787058823529356,-2.809999999999854
9.16900000000001,-4.20000000000145,12.057000000000535,2.5949999999998643,-2.301764705882216,-3.5529411764703913,-2.3570588235291434
9.189000000000009,-7.162000000001214,12.899000000000118,2.3979999999999637,-1.931874999999787,-2.9599999999996314,-1.7306249999996832
9.209000000000009,-9.903000000001278,12.966999999999992,2.074999999999683,-1.555882352941025,-2.2058823529408413,-1.0770588235291196
9.229000000000008,-12.284000000000422,13.276000000000233,1.4989999999998762,-1.320588235294036,-1.5329411764703336,-0.573529411764524
9.249000000000008,-12.475999999999651,13.71899999999995,1.5180000000001894,-1.0541176470587117,-0.8688235294115667,-0.28235294117642756
9.269000000000009,-10.903999999998623,13.155999999999384,2.677000000001078,-0.7424999999998521,-0.39999999999986346,-0.18874999999998293
9.289000000000009,-6.995999999997844,11.154999999998777,5.153000000000915,-0.42705882352927427,-0.28529411764709056,-0.0347058823528196
9.309000000000008,-0.9649999999964614,8.29099999999861,7.047000000000759,-0.3475757575757752,-0.31393939393939646,0.17424242424249708
9.32900000000001,7.927000000003977,5.079999999998732,9.477000000001713,-0.3900000000000732,-0.31999999999973355,0.3500000000005799
9.349000000000009,15.338000000002964,3.075999999999789,14.066000000003243,-0.5617647058824492,0.2552941176472567,1.6100000000004546
9.369000000000009,20.450000000000784,3.3336363636365776,20.672727272728938,-0.806363636363779,0.5472727272727085,2.635454545455027
9.389000000000008,20.95100000000006,3.7619999999995226,21.812999999998134,-1.1275757575758811,0.5048484848484686,3.7203030303034477
9.409000000000008,20.30999999999898,1.67099999999874,14.962999999996658,-1.3623529411765403,0.45176470588233114,4.360000000000149
9.42900000000001,15.840999999997255,-1.6700000000012682,6.349999999996919,-1.654117647058973,0.08235294117626041,4.411764705882336
9.449000000000009,9.812999999997382,-3.652000000000308,1.7069999999989944,-2.087647058823674,-0.4658823529413155,4.011764705882086
9.469000000000008,5.024999999998593,-3.7839999999998124,0.7890000000003667,-2.3550000000000684,-0.6424999999999431,3.3749999999996585
9.48900000000001,1.959999999998641,-3.7430000000003716,1.7730000000006432,-2.424117647058818,-0.3447058823527125,2.6588235294114333
9.50900000000001,-0.8660000000011052,-5.240000000001178,3.3410000000006073,-2.305294117646978,0.18705882352967135,2.083529411764468
9.529000000000009,-3.3100000000012137,-8.18000000000148,4.2566666666668045,-2.0723529411763546,0.5917647058825244,1.7164705882351392
9.549000000000008,-5.046666666666953,-11.023333333334735,4.483333333333224,-1.8352941176469866,0.530588235293973,1.5611764705882096
9.569000000000008,-5.530909090909355,-13.502727272727743,3.39909090909008,-1.6776470588234764,0.16941176470571861,1.5129411764705794
9.58900000000001,-6.717272727273441,-14.213636363636807,1.2927272727268209,-1.4987499999998963,-0.2500000000001843,1.4606249999999597
9.609000000000009,-8.223333333333965,-15.133333333333432,0.6066666666661535,-1.2747058823528383,-0.5505882352942312,1.3152941176469777
9.629000000000008,-9.07000000000003,-14.743333333332751,-0.8666666666674857,-1.0982352941175835,-0.694117647058869,1.0729411764704881
9.64900000000001,-8.539999999999381,-12.79999999999861,-2.5680000000006387,-1.0305882352941498,-0.72,0.7370588235292513
9.66900000000001,-6.64199999999883,-10.337999999998964,-3.2720000000000287,-1.1541176470589385,-0.7376470588235567,0.3770588235292367
9.689000000000009,-4.12399999999873,-8.405999999999352,-2.8959999999996078,-1.4812500000001958,-0.8037500000000345,-0.015625000000190042
9.709000000000009,-0.3439999999981327,-6.745999999999054,-1.9879999999999318,-1.928235294117858,-0.8223529411764652,-0.4200000000001839
9.729000000000008,4.596000000002549,-4.731999999999429,-2.756000000000375,-2.434117647059024,-0.7258823529411309,-0.8294117647060415
9.74900000000001,10.624000000002647,-3.951999999999789,-2.257999999998868,-3.051764705882631,-0.6417647058823583,-1.2723529411766898
9.769000000000009,15.812000000002115,-3.3619999999996844,0.8320000000013046,-3.66352941176499,-0.6888235294118249,-1.7900000000002791
9.789000000000009,19.87800000000096,-2.9220000000000366,2.2509999999996104,-4.286875000000293,-0.9400000000001844,-2.4575000000003455
9.80900000000001,20.14699999999937,-3.148999999999928,1.100999999999763,-4.854117647059078,-1.538823529412104,-3.1635294117650337
9.82900000000001,18.44333333333192,-2.453333333332692,1.4800000000005626,-5.2611764705884125,-2.254117647059161,-3.7235294117649547
9.849000000000009,15.339999999998312,-0.7633333333322775,2.4766666666669526,-5.4817647058824495,-2.649411764706032,-4.073529411764808
9.869000000000009,11.181999999997936,1.7820000000011764,2.9120000000001958,-5.7200000000001365,-2.9925000000001707,-4.301250000000108
9.889000000000008,6.335999999998073,4.352000000000963,3.4820000000002813,-5.8994117647059054,-3.174117647058819,-4.555294117647167
9.90900000000001,2.3699999999982486,6.3080000000007415,4.2920000000004945,-5.897058823529395,-3.101176470588187,-4.848823529411906
9.92900000000001,-1.064000000001586,7.36600000000029,5.184000000000264,-5.5999999999995715,-2.9800000000001567,-5.1900000000001
9.949000000000009,-4.544000000001245,7.970000000000213,5.702000000000154,-4.696176470587986,-3.2932352941176863,-5.327941176470433
9.96900000000001,-6.990000000001082,8.21600000000004,5.501999999999516,-4.137352941176195,-3.3814705882353375,-4.980882352941006
9.98900000000001,-8.988000000000946,8.412000000000134,4.31599999999932,-3.49812499999966,-3.266874999999833,-4.491874999999695
10.00900000000001,-10.894000000000819,8.720000000000171,3.1719999999996418,-2.8041176470585154,-2.9641176470586994,-3.7629411764702363
10.029000000000009,-12.614000000000562,9.164000000000222,2.615999999999949,-2.2182352941173815,-2.806470588235233,-2.913529411764297
10.049000000000008,-13.295999999999992,9.812000000000324,3.1600000000005117,-1.780588235293973,-2.7088235294117027,-1.9964705882349327
10.06900000000001,-12.631999999999206,10.420000000000103,4.386000000000556,-1.458235294117505,-2.5570588235293297,-1.201176470587896
10.08900000000001,-10.413999999998772,9.929999999999403,4.899999999999872,-1.1662499999998734,-2.392499999999931,-0.47937499999967176
10.109000000000009,-7.113999999998346,7.967999999998952,4.111999999999429,-0.9935294117646518,-2.301764705882326,0.12176470588260177
10.12900000000001,-2.7919999999971976,5.439999999998816,2.9379999999997115,-0.9511764705882241,-2.186470588235233,0.6064705882355179
10.14900000000001,3.586000000003647,3.6819999999994644,2.7480000000002267,-0.9294117647058502,-1.7658823529408612,0.9758823529413155
10.16900000000001,10.610000000002973,3.064000000000058,3.902000000000844,-0.8588235294117319,-1.039999999999628,1.281764705882495
10.189000000000009,15.032000000001348,3.9640000000006053,6.1220000000014325,-0.7918749999999712,-0.2849999999996775,1.658125000000213
10.209000000000009,17.686000000000885,5.522000000000708,10.336000000002251,-0.6782352941175822,0.24294117647078836,2.164117647059067
10.22900000000001,19.282000000000338,6.171999999999361,15.862000000002247,-0.47117647058812906,0.508823529411871,2.768823529412061
10.24900000000001,18.359999999998514,3.2379999999978133,17.181999999998304,-0.13470588235274333,0.577647058823492,3.401176470588481
10.269000000000009,14.777999999998439,-1.850000000002217,10.035999999996154,0.29705882352960866,0.4247058823527935,3.9176470588237424
10.28900000000001,10.514999999997666,-5.715000000000967,2.4299999999975768,0.7268750000002404,0.06999999999978018,4.361250000000234
10.30900000000001,5.933999999997846,-6.672000000000134,-1.45600000000272,1.1017647058825168,-0.1923529411765611,4.678235294117772
10.32900000000001,1.854999999998134,-5.754999999999091,-2.4249999999989154,1.3400000000000576,-0.16999999999977536,4.6499999999998645
10.349000000000009,-1.7250000000014558,-3.8899999999991404,-0.7249999999992673,1.4482352941176417,0.36235294117678074,4.329999999999818
10.369000000000009,-4.070000000000848,-3.045000000000104,0.8500000000006716,1.3724999999998975,1.0237500000002788,3.914999999999795
10.38900000000001,-5.8650000000007525,-4.54000000000127,2.1700000000003126,1.136470588235174,1.5947058823531983,3.466470588235077
10.40900000000001,-7.5150000000007715,-7.3500000000014065,2.1549999999997946,0.9658823529411169,2.085882352941393,3.0347058823527466
10.42900000000001,-8.855000000000498,-10.295000000001476,1.8499999999999022,0.9211764705882243,2.3682352941177576,2.620588235293924
10.44900000000001,-9.104999999999755,-12.235000000000205,1.3899999999995898,1.1105882352942646,2.2505882352939386,2.267647058823376
10.46900000000001,-8.749999999999844,-13.065000000000556,0.7099999999997264,1.3776470588236647,1.892941176470367,1.9817647058821992
10.48900000000001,-8.079999999999453,-13.840000000000098,0.08999999999962877,1.6268750000001093,1.4293749999997638,1.6287499999998043
10.50900000000001,-6.784999999999071,-13.414999999999619,-1.2400000000007425,1.8400000000000918,0.9058823529409331,1.1511764705880028
10.529000000000009,-4.439999999999005,-12.229999999999306,-2.3700000000003376,2.1717647058825245,-0.1976470588241157,-0.08882352941243399
10.54900000000001,-1.8699999999983001,-10.34999999999875,-1.8649999999990134,2.19,-0.5996969696971497,-0.5803030303032529
10.56900000000001,3.510000000003185,-6.8599999999980845,-0.3300000000000781,2.041764705882123,-1.1888235294122897,-1.370000000000744
10.58900000000001,9.935000000003077,-3.8349999999988373,-2.9050000000018077,1.539374999999764,-2.03500000000023,-2.5481250000003053
10.60900000000001,15.450000000002575,-1.1439999999983619,-4.003999999998877,0.9470588235290849,-2.481470588235509,-3.0705882352943474
10.62900000000001,18.823333333333768,1.3555555555563497,-0.2744444444427444,0.3117647058820525,-2.899117647059021,-3.5176470588237407
10.64900000000001,18.52666666666603,1.4411111111105854,-0.02666666666723705,-0.5558823529415882,-3.4705882352945134,-4.018235294117915
10.66900000000001,16.068181818180285,0.39181818181778016,0.7000000000009206,-1.5535294117652694,-4.348235294118063,-4.585294117647299
10.689000000000009,12.014999999998162,-0.17500000000011545,2.415000000000311,-3.710625000001526,-4.3674999999995165,-4.6224999999997465
10.70900000000001,7.8149999999979975,-0.10999999999976551,2.570000000000078,-4.655882352940996,-3.0517647058815527,-4.827647058823865
10.72900000000001,4.164999999998505,0.8850000000006741,3.0250000000002832,-5.2017647058827166,-2.562352941176353,-5.053529411764767
10.74900000000001,1.7749999999991697,2.320000000000723,3.179999999999863,-5.380588235294059,-1.9382352941175507,-4.634705882352653
10.76900000000001,0.5849999999994573,3.710000000000739,2.86499999999985,-5.212352941176327,-1.977058823529757,-3.9605882352936943
10.78900000000001,-0.23000000000029308,4.6850000000003025,2.825000000000049,-4.70999999999956,-2.6687500000004256,-3.1743749999995536
10.80900000000001,-1.0450000000005177,5.130000000000118,2.664999999999756,-3.672941176470028,-3.100588235294236,-2.31647058823487
10.82900000000001,-2.1950000000006744,5.355000000000166,1.7499999999993552,-2.630588235293642,-3.1405882352941124,-1.3964705882348571
10.849000000000009,-3.8150000000008886,5.8400000000003125,0.6099999999995701,-1.7017647058819947,-2.788235294117369,-0.4294117647054867
10.86900000000001,-5.750000000001036,6.680000000000527,-0.11500000000030286,-0.9805882352938226,-2.148235294117278,0.38470588235329767
10.88900000000001,-8.025000000001064,7.835000000000557,-0.7000000000001954,-0.45062499999977546,-1.4112499999996428,0.9681250000002131
10.90900000000001,-9.461818181818503,8.834545454545827,-0.2563636363630907,-0.03529411764688578,-0.71176470588205,1.252352941176557
10.929000000000011,-10.467777777778402,9.563333333333746,1.4666666666680541,0.2500000000000815,-0.12999999999981193,1.2999999999999687
10.94900000000001,-10.553999999999604,9.765999999999845,3.9860000000012223,0.3923529411765153,0.20705882352954602,1.2429411764705627
10.96900000000001,-9.313999999999293,8.845999999999265,5.2840000000002885,0.4462499999999932,0.45500000000013596,1.2437500000000612
10.98900000000001,-7.245999999998762,7.065999999999271,5.530000000000046,0.4282352941176356,0.6917647058824615,1.4352941176471903
11.00900000000001,-2.771999999997155,6.467999999999935,5.9920000000004805,0.48117647058827856,0.9535294117648356,1.8588235294119972
11.02900000000001,5.008000000004824,6.1799999999998345,9.328000000003007,0.6505882352942229,1.1982352941177785,2.48705882352978
11.04900000000001,11.2260000000017,6.498000000000527,15.600000000003133,0.7876470588235915,1.2258823529411267,3.156470588235598
11.06900000000001,13.570000000001212,7.76500000000046,22.67000000000438,0.9758823529413405,1.2094117647059588,3.7117647058825884
11.089000000000011,17.53500000000255,6.774999999997933,27.489999999998382,1.4006250000002816,1.4518750000001854,4.119375000000158
11.10900000000001,19.57090909090921,1.6590909090883064,21.587272727270292,1.748235294117789,1.516470588235249,4.143529411764641
11.12900000000001,18.004999999998585,-2.5500000000014067,15.734999999996198,1.9129411764706552,1.3682352941175688,3.743529411764482
11.14900000000001,13.757777777774988,-3.432222222221696,10.022222222220938,2.322352941176781,1.594705882353107,2.963529411764171
11.16900000000001,8.623999999997867,-1.5079999999989655,9.097999999999796,2.9482352941178767,1.9135294117648043,2.0658823529410615
11.18900000000001,4.759999999998348,0.29200000000073795,9.294000000000649,3.3672727272729097,2.0381818181818283,1.9681818181818653
11.20900000000001,2.837999999999372,0.49399999999954847,9.9459999999999,3.694545454545635,2.0563636363636464,2.05303030303035
11.22900000000001,2.1139999999997596,-0.99200000000085,9.311999999999696,3.8399999999999874,2.0199999999999685,2.210000000000025
11.249000000000011,1.4499999999995044,-2.9760000000011124,8.381999999999307,3.800588235294047,1.9417647058822507,2.2252941176469694
11.26900000000001,0.46799999999937225,-4.894000000000981,6.987999999999207,3.646470588235177,1.7076470588233406,1.9794117647056413
11.28900000000001,-1.0960000000010022,-6.164000000000485,5.855999999999571,3.423124999999869,1.2837499999997115,1.4024999999995877
11.30900000000001,-2.7440000000006375,-6.970000000000369,5.349999999999815,3.187058823529299,0.6411764705878961,0.5435294117642647
11.32900000000001,-3.9900000000005544,-7.634000000000268,4.947999999999797,2.8952941176469147,-0.26235294117691865,-0.43058823529458223
11.34900000000001,-4.868000000000364,-8.416000000000507,4.30999999999956,2.3964705882349553,-1.276470588235716,-1.3576470588239193
11.36900000000001,-5.458000000000253,-9.308000000000474,3.4219999999994712,1.6917647058818859,-1.950588235294345,-2.0435294117650256
11.38900000000001,-5.66600000000006,-10.050000000000297,2.433999999999443,0.6768749999994644,-2.2687500000000806,-2.5768750000002014
11.409000000000011,-5.94000000000022,-10.526000000000176,1.1599999999992292,-0.4947058823535865,-2.3070588235293923,-2.890588235294253
11.429000000000011,-6.42000000000033,-10.487999999999813,-0.3900000000008811,-1.6900000000006707,-2.328235294117667,-3.175294117647223
11.44900000000001,-6.89000000000022,-9.911999999999416,-1.2640000000002092,-2.675294117647404,-2.471764705882468,-3.6811764705885293
11.46900000000001,-6.923999999999791,-8.471999999999223,-1.4920000000000697,-3.2788235294120414,-2.7717647058826174,-4.1658823529413604
11.48900000000001,-5.737999999999196,-6.623999999999021,-1.6040000000000831,-3.845625000000282,-3.3312500000002876,-4.354374999999994
11.509000000000011,-2.637999999997555,-4.383999999998777,-1.804000000000099,-4.442352941176793,-3.702941176470717,-4.028823529411493
11.52900000000001,2.6036363636390587,-2.370909090908196,-2.2045454545457397,-4.880000000000224,-3.429999999999777,-3.233529411764219
11.54900000000001,8.066000000002695,-0.5359999999989158,-3.082000000000766,-4.9847058823528165,-2.857647058823486,-2.2899999999996834
11.569000000000011,12.95800000000251,1.1460000000001211,-4.053999999998502,-4.629411764705531,-2.8141176470588496,-1.7923529411763273
11.589000000000011,15.312000000000628,1.1580000000003083,-2.52000000000011,-3.953749999999602,-2.873750000000041,-1.5768749999999108
11.60900000000001,16.344000000000264,1.3459999999998458,0.29400000000263216,-3.294705882352599,-2.907647058823536,-1.3976470588234262
11.62900000000001,16.335999999999792,0.4099999999992841,3.624000000000705,-2.6335294117643873,-2.6935294117645774,-1.171764705882241
11.64900000000001,14.839999999998938,-0.7440000000004064,3.2099999999995843,-1.9688235294115186,-2.1923529411762352,-0.9382352941175508
11.669000000000011,12.151999999998425,-0.8539999999996586,2.5659999999996255,-1.4523529411762166,-1.6570588235290926,-0.7229411764704645
11.68900000000001,9.549999999998679,0.7400000000013216,1.4559999999993503,-0.9918749999997458,-0.996874999999581,-0.5043749999998832
11.70900000000001,8.000999999999612,3.9370000000017926,1.1680000000002515,-0.5699999999997806,-0.27882352941138394,-0.3076470588234262
11.729000000000012,7.287999999999559,7.403000000001949,1.9870000000005024,-0.2076470588233303,0.23647058823555966,-0.10058823529399816
11.749000000000011,6.240999999999298,9.798000000000986,2.179999999999895,0.13764705882381068,0.49470588235303065,0.1882352941179667
11.76900000000001,4.941999999999329,10.722000000000167,1.9159999999998742,0.5454545454546287,0.6427272727273327,0.6581818181819247
11.78900000000001,3.196999999998858,10.652999999999885,1.8770000000000104,0.6969696969697794,0.7518181818182411,0.8521212121213175
11.80900000000001,0.5689999999985011,10.311999999999854,1.93,1.2470588235297793,1.141764705882613,1.845294117647743
11.829000000000011,-2.310000000001542,10.519000000000297,1.857000000000011,1.390588235294111,0.854705882352665,2.685294117647447
11.84900000000001,-4.714000000001069,11.192000000000377,2.5080000000005658,1.2978787878787341,0.4154545454543035,3.301515151515491
11.86900000000001,-6.5470000000009545,11.902000000000378,3.6850000000005765,1.3041176470589526,0.13823529411769622,3.7829411764706804
11.889000000000012,-8.287000000000992,12.838000000000662,4.8120000000008085,1.5075000000000824,0.28562500000011676,3.829374999999938
11.909000000000011,-8.784999999999725,13.421999999999956,6.636000000001079,1.6900000000001096,0.6123529411766835,3.5835294117645318
11.929000000000011,-7.256999999998962,12.205999999999035,7.404999999999948,2.000000000000213,1.2600000000004075,3.1399999999997554
11.94900000000001,-4.274999999997956,10.092999999998836,7.41700000000022,2.4123529411767324,2.0194117647062786,2.6988235294115794
11.96900000000001,0.4690000000026937,7.811999999998805,7.827000000000115,2.8911764705884813,2.667647058823769,2.3964705882351836
11.989000000000011,6.563000000003623,5.3649999999986235,7.375999999999538,3.3750000000002744,2.9875000000000824,2.2406249999999517
12.009000000000011,11.939000000002379,3.601999999999434,6.78299999999999,3.802352941176683,2.940588235294034,2.21
12.02900000000001,15.968181818183393,3.1809090909091697,8.113636363637328,4.124705882353112,2.64647058823511,2.238235294117667
12.049000000000012,17.02666666666664,4.323333333334563,10.866666666669209,4.381176470588323,2.2147058823526726,2.231176470588199
12.069000000000011,17.78100000000102,5.398999999999963,14.473000000001948,4.483529411764713,1.8005882352939158,2.1335294117646013
12.089000000000011,19.783636363636894,3.2836363636347308,14.1090909090891,4.444999999999945,1.4649999999998353,1.8443749999997732
12.10900000000001,18.627999999998572,-0.20500000000172913,9.423999999997715,4.295294117646962,1.0923529411762447,1.3099999999996708
12.12900000000001,13.782999999996846,-3.03500000000131,4.738999999997558,4.062352941176353,0.473529411764387,0.5876470588231715
12.149000000000012,7.22499999999614,-4.452000000000441,2.5689999999998405,3.612941176470237,-0.457647058824028,-0.221176470588638
12.169000000000011,2.4279999999980504,-5.320000000000629,3.4500000000008386,2.9164705882348447,-1.2905882352944695,-0.9341176470591819
12.18900000000001,-0.5890000000014359,-6.674000000000754,5.138000000000671,2.0649999999995057,-1.7806250000001715,-1.5656250000003367
12.209000000000012,-2.692000000001054,-8.70300000000146,4.888999999999228,1.1688235294111948,-1.9129411764706106,-2.1700000000003823
12.229000000000012,-4.160000000000858,-11.128000000001398,3.200999999998934,0.32176470588188166,-1.750588235293998,-2.8358823529415615
12.249000000000011,-5.335555555556153,-12.932222222223125,1.7666666666659416,-0.501176470588638,-1.1823529411760807,-3.4500000000002173
12.26900000000001,-6.496666666667439,-14.050000000000503,0.5522222222215063,-1.2458823529415934,-0.5176470588232297,-3.8147058823530977
12.28900000000001,-7.7300000000006035,-14.571111111111257,-0.17222222222241235,-1.9356250000003365,0.005000000000274785,-4.037500000000082
12.309000000000012,-7.901999999999829,-14.645999999999976,0.10100000000028192,-2.410000000000228,0.48588235294144444,-4.09
12.329000000000011,-6.935999999999261,-14.295999999999731,0.41,-2.5935294117647785,0.9376470588237793,-3.977058823529333
12.34900000000001,-6.065999999999711,-14.079999999999949,-0.20600000000038118,-1.9085294117644507,1.0741176470585525,-3.3564705882351746
12.369000000000012,-4.945999999999086,-13.95199999999987,-0.4459999999999062,-1.4320588235291343,0.5682352941173524,-3.132941176470458
12.389000000000012,-3.214545454544387,-13.276363636363087,-0.7045454545457188,-0.15749999999876363,-0.1375000000005221,-2.368749999999217
12.409000000000011,0.6360000000028954,-11.421999999998699,-1.5960000000008443,1.0964705882356878,-0.46235294117646414,-1.3882352941172404
12.429000000000011,7.026000000004361,-9.123999999998688,-3.0900000000002934,1.453333333333479,-0.36787878787872497,-0.7357575757572313
12.44900000000001,15.342727272731295,-6.399090909089293,-0.4472727272708763,1.7223529411766239,-0.19058823529383,-0.15588235294101668
12.469000000000012,23.01888888889322,-3.895555555554516,0.47222222222126176,1.9950000000001582,0.40500000000047465,0.07625000000005537
12.489000000000011,26.207000000000782,-2.531999999999185,-0.5939999999999118,2.196470588235382,1.1800000000004598,0.12
12.509000000000011,26.080909090908513,-1.1163636363629281,1.8436363636379371,2.318823529411823,1.9647058823533672,0.08941176470585654
12.529000000000012,23.10399999999763,-0.17399999999950755,4.250000000001055,2.4435294117647897,2.7035294117651785,0.07058823529411003
12.549000000000012,17.659999999996543,1.496000000001196,6.210000000001114,2.5335294117647202,3.3376470588238485,0.24647058823552623
12.569000000000011,11.817777777774001,3.5455555555568843,6.548888888888599,2.5612500000000202,3.8425000000002587,0.7125000000003672
12.589000000000011,6.517999999997022,5.582000000001219,5.703999999999449,2.5976470588235485,4.238823529411936,1.4794117647063445
12.60900000000001,1.7399999999977123,7.688000000001055,4.997999999999761,2.5947058823529283,4.426470588235358,2.4070588235299413
12.629000000000012,-2.3960000000021333,9.846000000001196,5.320000000000469,2.489999999999927,4.349999999999787,3.390000000000527
12.649000000000012,-4.630000000000996,10.932000000000281,6.292000000000457,2.4023529411765154,3.9735294117643924,4.222941176470997
12.669000000000011,-6.578000000001184,10.853999999999917,6.08799999999966,2.558823529411947,3.39352941176438,4.944117647059182
12.689000000000012,-8.976000000001594,11.258000000000434,5.3059999999994805,2.9593750000003114,2.788749999999601,5.547500000000351
12.709000000000012,-11.746000000001548,11.860000000000293,4.353999999999625,3.45117647058855,2.1876470588231545,5.931176470588423
12.729000000000012,-13.266000000000433,12.38000000000035,6.31200000000204,3.9547058823532266,1.7405882352938853,5.961764705882333
12.749000000000011,-12.959999999999413,12.998000000000188,10.402000000002158,4.614705882353356,1.7117647058824679,5.6105882352938306
12.76900000000001,-10.889999999998713,11.875999999999042,11.712000000000042,5.368823529412169,1.8741176470588496,5.070588235293805
12.789000000000012,-8.535999999998735,9.43599999999844,10.367999999998897,6.034375000000375,1.7874999999998404,4.546249999999697
12.809000000000012,-6.559999999998769,6.693999999998394,8.007999999998487,6.477058823529619,1.5088235294115973,4.181176470588061
12.829000000000011,-3.4779999999977846,4.535999999999027,5.263999999998336,6.6535294117647785,1.2523529411763326,3.988235294117555
12.849000000000013,2.4480000000043005,3.617999999999589,3.2419999999990816,6.542941176470432,1.0876470588234775,3.899411764705838
12.869000000000012,10.690000000004924,2.873999999999625,3.018000000000305,6.267647058823321,1.0088235294117216,3.8323529411764348
12.889000000000012,16.692000000002682,3.6520000000009847,4.788000000001594,5.871874999999746,0.9081249999999245,3.7549999999999453
12.909000000000011,20.69000000000211,5.916000000001372,10.13000000000375,5.373529411764421,0.6994117647057468,3.612941176470498
12.929000000000011,24.040000000002287,7.430000000000117,18.45200000000503,4.8464705882349985,0.3299999999997764,3.3823529411763325
12.949000000000012,24.119999999998708,2.933999999996342,13.945999999993633,4.375294117646828,-0.18058823529441514,3.024705882352666
12.969000000000012,20.921999999997233,-3.8720000000038572,5.277999999995732,4.02999999999981,-0.6300000000002531,2.5399999999996203
12.989000000000011,12.83444444443922,-8.256666666668504,-0.7455555555580804,3.650588235293854,-1.035882352941413,1.551764705881562
13.009000000000013,5.4309999999957075,-9.13,-4.024000000002283,3.3678787878786705,-1.1996969696969886,0.8139393939391468
13.029000000000012,0.3254545454518838,-7.628181818180754,-1.62363636363443,3.1799999999994295,-1.2299999999998683,0.41999999999896864
13.049000000000012,-3.406000000001637,-6.047999999999341,0.5750000000006253,2.3241176470585114,-1.0411764705881992,-1.1135294117652135
13.069000000000011,-4.759000000000459,-5.65200000000009,1.4240000000006265,1.818235294117367,-1.017647058823562,-1.9158823529415934
13.089000000000011,-5.95200000000076,-6.8740000000008505,2.3720000000003134,1.3093749999997184,-1.179375000000158,-2.673125000000419
13.109000000000012,-6.744000000000467,-9.086000000001478,2.1489999999997536,0.8547058823526712,-1.616470588235624,-3.383529411765141
13.129000000000012,-7.898000000000705,-11.020000000001023,1.7489999999997838,0.4782352941174413,-2.3129411764710066,-4.047058823529784
13.149000000000012,-8.396000000000045,-12.111000000000326,1.5119999999998657,0.04470588235270466,-3.0376470588238105,-4.67764705882381
13.169000000000013,-8.894000000000595,-12.615000000000585,0.6509999999989496,-0.4011764705885377,-3.5094117647061167,-5.14235294117669
13.189000000000012,-9.311000000000377,-12.765999999999922,-0.6770000000009466,-0.9637500000004309,-3.8000000000001277,-5.3862500000000795
13.209000000000012,-9.524999999999944,-11.971999999999294,-1.8260000000005003,-1.62058823529453,-3.6941176470586514,-5.361176470588168
13.229000000000012,-8.336999999999138,-10.170999999998982,-2.2070000000001455,-2.180000000000161,-2.85999999999929,-5.0299999999997
13.249000000000011,-5.870999999997862,-7.993999999998724,-0.9699999999987688,-2.422941176470671,-1.7964705882349552,-4.552941176470346
13.269000000000013,2.4290000000062375,-5.321999999998418,0.8830000000004798,-2.537058823529427,-1.303529411764585,-4.141176470588023
13.289000000000012,10.661000000004655,-3.7539999999990403,-1.8600000000022043,-2.4206249999998164,-1.1549999999999363,-3.8531249999998485
13.309000000000012,17.595454545458235,-2.2918181818173573,-2.209999999999186,-1.9988235294114833,-1.043529411764639,-3.6017647058822053
13.329000000000013,21.02090909091009,-0.6763636363628566,0.13727272727388484,-1.4576470588231711,-0.8976470588234303,-3.2111764705879606
13.349000000000013,21.558000000000025,0.0040000000002074765,-0.023000000000220455,-0.9752941176468283,-0.6176470588232245,-2.524705882352413
13.369000000000012,18.46899999999703,-0.28800000000028525,0.8950000000007132,-0.6317647058821731,-0.10352941176434635,-1.6647058823523802
13.389000000000012,12.544444444440682,0.01111111111154861,1.7144444444448443,-0.4137499999999313,0.4225000000002473,-0.7156249999994573
13.409000000000011,7.284999999997369,1.5840000000010743,0.8939999999991718,-0.41588235294121517,0.7100000000001097,0.19588235294165401
13.429000000000013,4.182999999998405,3.613000000001258,-0.7680000000009336,-0.5523529411765697,0.77823529411767,0.9817647058828484
13.449000000000012,2.5839999999990404,5.159000000000921,-1.571000000000376,-0.724117647058883,0.7482352941176397,1.6511764705885774
13.469000000000012,0.6559999999988139,6.344000000000627,-1.4059999999997088,-0.7749999999999684,0.7775000000000791,2.1537500000002607
13.489000000000013,-1.4810000000014134,7.351000000000636,-0.49599999999940353,-0.685294117646973,0.9811764705884227,2.507058823529607
13.509000000000013,-3.894000000001504,8.258000000000544,0.1050000000003242,-0.5099999999998726,1.3017647058825705,2.8241176470590337
13.529000000000012,-5.332000000000752,8.926000000000442,0.7820000000004927,-0.22529411764686064,1.6052941176472495,3.3700000000003887
13.549000000000012,-6.246000000000387,9.771000000000443,1.7300000000005684,0.14294117647080584,1.604705882352796,4.145882352941611
13.569000000000011,-6.991000000000437,10.326000000000269,2.8850000000007276,0.521250000000238,1.2374999999996328,4.902500000000476
13.589000000000013,-7.309999999999683,10.509999999999875,4.6400000000014465,0.7723529411765111,0.8441176470587535,5.331176470588224
13.609000000000012,-6.525999999999273,10.084999999999546,7.306000000001998,0.8370588235294529,0.7323529411763994,5.313529411764694
13.629000000000012,-5.889999999999887,8.903636363635757,9.480909090909986,1.3864705882356723,0.9170588235295578,4.444117647058213
13.649000000000013,-4.963999999999171,7.675999999999144,10.955000000000842,1.982727272727662,1.2572727272728417,3.56999999999958
13.669000000000013,-2.2799999999980476,5.879999999998794,11.940000000000422,2.600909090909477,1.4390909090910227,2.9033333333329168
13.689000000000012,0.5900000000016289,4.289999999999938,12.850000000001492,3.1923529411768246,1.5476470588235516,2.4405882352939554
13.709000000000012,3.770000000002773,4.510000000000472,15.610000000001778,3.650000000000255,1.5523529411764632,2.3117647058823154
13.729000000000012,8.172727272729729,5.262727272727694,17.785454545455387,3.852352941176557,1.587647058823556,2.281176470588222
13.749000000000013,13.800000000002388,5.740000000000249,16.52999999999939,3.7711764705880717,1.6076470588234775,2.211764705882234
13.769000000000013,16.256363636364327,6.003636363636446,16.094545454545525,3.4770588235291697,1.4511764705880237,1.9494117647056026
13.789000000000012,15.629999999999352,5.766999999999779,15.94999999999987,3.061874999999705,0.9268749999995133,1.3443749999994814
13.809000000000013,14.01099999999882,5.313999999999689,16.589000000000404,2.5482352941172906,-0.07411764705956692,0.3641176470581188
13.829000000000013,12.569999999999224,4.86090909090895,16.91818181818223,1.8658823529407118,-1.2035294117654374,-0.7629411764713274
13.849000000000013,12.12000000000018,4.7299999999994355,17.29999999999867,1.102941176470179,-1.7882352941176396,-1.8105882352946678
13.869000000000012,12.309999999999865,3.7399999999994464,15.139999999999379,0.4770588235290594,-1.684705882352747,-2.631764705882784
13.889000000000012,11.991999999999754,2.7819999999994183,13.797999999999016,-0.1100000000003297,-1.4031249999998696,-3.2956250000003364
13.909000000000013,10.999999999999222,1.577999999999118,10.976999999997965,-0.6182352941179394,-1.3429411764706107,-3.838823529412087
13.929000000000013,10.159999999998856,0.5099999999996891,7.829999999998707,-1.0017647058825891,-1.698235294117929,-4.410588235294499
13.949000000000012,8.159999999998545,-0.07000000000069634,6.6000000000000245,-1.3917647058826133,-2.6170588235300736,-5.086470588235659
13.969000000000014,5.699999999998167,-1.3900000000010373,6.359999999999645,-1.8776470588239906,-3.6711764705889847,-5.581764705882567
13.989000000000013,3.2099999999989306,-2.80000000000092,5.869999999999378,-2.6900000000006385,-4.670625000000583,-5.727499999999968
14.009000000000013,1.7899999999992415,-4.310000000000907,4.699999999999304,-3.6670588235300263,-4.8982352941175575,-5.365882352940839
14.029000000000012,0.33999999999899283,-5.61000000000061,3.8999999999999875,-4.310000000000131,-3.649999999999115,-4.449999999999371
14.049000000000012,-1.1600000000008206,-6.510000000000323,3.7999999999994776,-4.504117647058882,-2.3711764705879523,-3.471764705881867
14.069000000000013,-2.2200000000000997,-7.210000000000709,2.38999999999862,-4.47823529411745,-2.0711764705882807,-2.7576470588231814
14.089000000000013,-2.6100000000006838,-8.23000000000046,0.2399999999989182,-3.983749999999537,-2.149375000000056,-2.2743749999997367
14.109000000000012,-3.8000000000008454,-8.860000000000136,-1.2500000000004725,-3.1870588235288793,-2.111176470588168,-1.9388235294115772
14.129000000000014,-5.030000000000483,-9.050000000000285,-1.83000000000027,-2.2999999999994145,-1.799999999999649,-1.6299999999997323
14.149000000000013,-5.7200000000001845,-9.560000000000569,-2.2100000000002984,-1.4076470588227188,-1.2582352941171338,-1.1547058823522867
14.169000000000013,-5.940000000000038,-10.470000000000685,-2.840000000000746,-0.4336363636362013,-0.6518181818181006,-0.34272727272708714
14.189000000000012,-5.959999999999838,-11.420000000000261,-4.320000000001045,-0.1790909090907481,-0.524545454545374,-0.051818181817997855
14.209000000000012,-5.369999999999416,-11.579999999999416,-5.530000000000062,0.3994117647063623,-0.18176470588206045,0.7458823529418588
14.229000000000013,-4.209999999997773,-10.289999999998562,-5.399999999999243,0.7700000000001421,0.10000000000020481,1.3500000000003638
14.249000000000013,-0.7199999999964561,-8.54999999999913,-4.4199999999993285,0.9700000000001339,0.38823529411783986,1.8617647058826954
14.269000000000013,5.580000000004489,-7.32999999999913,-3.389999999999142,1.1850000000001584,0.7887500000004193,2.4525000000004904
14.289000000000014,12.97363636364012,-5.968181818181244,-1.6427272727260749,1.362941176470664,1.3552941176473956,3.2517647058829424
14.309000000000013,18.10000000000249,-5.289999999999716,-0.4700000000008384,1.2241176470586452,1.5047058823529258,3.9682352941180805
14.329000000000013,21.310000000001256,-4.63999999999893,-1.499999999999055,0.9158823529409708,1.3399999999998706,4.495294117647378
14.349000000000013,22.4199999999988,-2.57999999999837,0.8600000000016994,0.9200000000001265,1.301176470588198,4.807647058823604
14.369000000000012,20.329999999998506,-0.23999999999852029,2.890000000001517,1.1164705882354091,1.1999999999998778,4.837058823529304
14.389000000000014,17.57363636363422,2.1609090909104762,5.6445454545466145,1.3268750000001515,1.0168749999998963,4.526249999999697
14.409000000000013,14.209999999997713,4.380000000001554,6.709999999999726,1.6929411764708657,0.9829411764706107,3.947058823529007
14.429000000000013,10.54299999999825,6.902000000001094,6.154999999999465,2.222352941176829,1.0558823529412298,3.311764705881941
14.449000000000014,7.591999999997839,8.489000000000807,5.011999999998933,2.8183333333337046,1.111666666666722,2.8116666666664853
14.469000000000014,4.196999999997497,9.775000000001162,3.5469999999994117,3.3131250000002725,1.2043750000000908,2.604374999999959
14.489000000000013,0.5439999999977294,11.69600000000145,2.9109999999996035,3.6018750000000876,1.3925000000001595,2.581250000000016
14.509000000000013,-2.280000000001768,13.660000000001078,2.189999999999199,3.5735294117646306,1.6864705882354967,2.5670588235293894
14.529000000000012,-5.217000000002106,14.709999999999882,1.0949999999997027,3.259999999999722,1.9399999999999853,2.3799999999997072
14.549000000000014,-8.858000000002434,14.454999999999933,0.8059999999999453,2.812941176470273,1.8599999999997179,1.8670588235288808
14.569000000000013,-12.087000000001463,14.363999999999917,0.8110000000005608,2.3623529411761757,1.3223529411759187,1.036470588234644
14.589000000000013,-13.42599999999981,14.189999999999864,2.554000000002619,1.8737499999996647,0.304374999999226,-0.04875000000075003
14.609000000000014,-12.52399999999814,14.015999999999671,6.481000000001928,1.2999999999995642,-0.815882352941954,-1.1252941176478022
14.629000000000014,-9.11599999999721,13.223999999998824,8.051999999999481,0.6247058823524878,-1.5947058823534022,-1.9982352941181927
14.649000000000013,-5.220999999997141,11.124999999998016,7.360999999999877,-0.15470588235342458,-1.88,-2.605294117647334
14.669000000000013,-0.44899999999620643,7.971999999997597,7.348999999999581,-0.896250000000435,-1.831249999999897,-3.0262500000002452
14.689000000000012,4.85300000000313,4.540999999998346,6.4069999999997265,-1.5105882352944568,-1.6617647058822425,-3.425882352941435
14.709000000000014,10.776000000004732,2.481000000000287,6.880000000001915,-2.0058823529415184,-1.6305882352941519,-3.9370588235298216
14.729000000000013,17.173000000003324,4.795000000003898,13.138000000011326,-2.3729411764708113,-1.9788235294120413,-4.586470588235732
14.749000000000013,19.337000000003652,4.420999999992217,21.252999999989374,-2.728823529412055,-2.798235294118272,-5.111764705882487
14.769000000000014,24.05199999999989,-0.4040000000001915,13.12800000000394,-3.251176470588726,-3.7229411764711564,-5.217647058823426
14.789000000000014,21.904999999996786,-0.6800000000017782,17.882999999991153,-3.9575000000005454,-4.217500000000109,-4.875624999999572
14.809000000000013,17.279999999994665,-3.5100000000015945,4.779999999994868,-4.434117647059041,-2.97764705882222,-3.584117647057724
14.829000000000013,9.998999999995473,-5.251000000000834,1.299999999999453,-4.533939393939421,-2.512121212121158,-3.041515151514986
14.849000000000013,4.040999999997394,-6.431000000000607,-0.25499999999958345,-4.453529411764215,-2.547647058823983,-2.7847058823527924
14.869000000000014,-0.10000000000246202,-7.470000000000684,1.587000000001737,-3.691176470587725,-3.117058823529568,-2.6129411764705717
14.889000000000014,-3.1445454545463454,-8.5281818181826,3.7254545454551113,-2.970909090908633,-3.1636363636362543,-2.553636363636297
14.909000000000013,-4.469000000000944,-9.985000000001163,3.9909999999994668,-2.261818181817728,-2.9939393939392853,-2.450606060605995
14.929000000000014,-5.724444444445196,-11.625555555556737,3.2433333333328265,-1.6599999999997408,-2.45999999999949,-2.1499999999996238
14.949000000000014,-6.844444444445594,-13.24555555555672,2.3722222222214353,-1.3111764705880486,-1.7229411764699776,-1.6011764705877602
14.969000000000014,-8.286363636364143,-14.471818181818458,1.4809090909087659,-1.0212499999997384,-0.8412499999993053,-0.9299999999994948
14.989000000000013,-8.555999999999644,-14.767999999999855,0.8259999999993822,-0.6399999999997346,-0.018823529411311934,-0.2976470588231547
15.009000000000013,-8.096666666666348,-14.131111111110037,0.13777777777774752,-0.2782352941174296,0.3729411764707382,0.20588235294147642
15.029000000000014,-7.613999999999374,-12.463999999998572,0.3180000000002768,0.025294117647275488,0.3164705882351988,0.6200000000002946
15.049000000000014,-6.135999999998396,-10.537999999998934,0.7340000000002892,0.3188235294119473,-0.012352941176669734,0.9623529411766698
15.069000000000013,-2.8499999999963195,-9.101999999999027,0.9219999999996188,0.5670588235295554,-0.23117647058828067,1.248235294117836
15.089000000000015,3.4860000000051925,-7.521999999998895,-0.810000000002462,0.8137500000001999,-0.07874999999969096,1.6912500000004544
15.109000000000014,10.784000000005783,-5.793999999998135,-2.5879999999983103,1.0629411764707593,0.49823529411812556,2.5064705882359606
15.129000000000014,17.937777777781562,-3.0777777777755686,0.6722222222242953,1.09117647058822,0.8370588235295808,3.499411764706543
15.149000000000013,21.46600000000145,-0.5179999999988784,1.747999999999836,0.743529411764468,0.4917647058821075,4.57941176470647
15.169000000000013,23.442727272726966,0.9972727272731619,2.4818181818188396,0.3712499999997706,0.15624999999986555,5.395000000000349
15.189000000000014,20.73090909090535,1.490909090909318,2.424545454544092,0.007647058823268382,-0.06176470588251293,5.717058823529479
15.209000000000014,14.705999999995832,2.0640000000007492,0.07199999999856715,-0.36470588235321455,-0.1552941176470759,5.551176470588013
15.229000000000013,8.571999999996333,3.4660000000012223,-1.5580000000005128,-0.6941176470590309,0.06588235294136086,4.944117647058378
15.249000000000015,3.527999999996926,5.4200000000014175,-1.8039999999992837,-0.8211764705881929,0.6794117647064082,4.029411764705255
15.269000000000014,-0.3960000000027306,7.172000000000985,-0.7499999999991047,-0.7482352941175696,1.3594117647062953,3.208235294117131
15.289000000000014,-3.7200000000017748,8.230000000000263,0.40200000000060465,-0.6337499999999091,1.7656250000001545,2.6062499999996547
15.309000000000013,-5.960000000001052,8.323999999999764,0.9820000000000131,-0.5058823529410913,1.7558823529410912,2.2717647058821826
15.329000000000013,-7.578000000001236,8.014000000000026,1.094000000000355,-0.39529411764699024,1.4947058823527506,2.1164705882352104
15.349000000000014,-9.542000000001657,8.214000000000478,1.7280000000003581,-0.30117647058819286,1.2047058823527714,2.034117647058747
15.369000000000014,-11.818000000001236,9.140000000000787,2.156000000000565,-0.2741176470588565,0.9694117647057177,1.8894117647057176
15.389000000000014,-13.240000000000329,10.380000000000855,3.67800000000163,-0.42375000000017554,0.7556249999998803,1.3212499999993776
15.409000000000015,-12.963999999998984,11.392000000000388,6.180000000001641,-0.5429411764706139,0.7741176470589175,0.7620588235291682
15.429000000000014,-11.329999999998284,11.639999999999702,7.97200000000091,-0.578235294117673,0.9035294117648013,0.4267647058821059
15.449000000000014,-8.427999999997436,10.685999999998588,9.19200000000067,-0.9458823529415412,1.26764705882347,-0.7947058823533483
15.469000000000014,-4.505999999995833,8.651999999998699,10.066000000001157,-1.5018181818186598,1.1990909090908832,-1.3354545454548898
15.489000000000013,4.354000000007913,6.451999999997976,12.558000000001893,-2.1745454545458927,1.162727272727249,-1.820303030303346
15.509000000000015,14.082000000003596,3.625999999998702,14.572000000000463,-2.8458823529416635,1.1882352941176897,-2.2500000000002904
15.529000000000014,18.138000000001952,2.7140000000006115,15.692000000001036,-3.6200000000005894,1.1905882352941088,-2.659411764706186
15.549000000000014,20.74200000000212,3.704000000000158,17.488000000002156,-4.437058823529868,1.0335294117644405,-3.1305882352944496
15.569000000000015,22.989999999999554,2.5879999999972245,19.29999999999821,-5.045294117647437,0.5617647058818452,-3.5729411764708634
15.589000000000015,21.099999999997316,-1.7320000000035214,15.10999999999515,-5.543750000000346,-0.09562500000044538,-3.909375000000209
15.609000000000014,16.957999999996197,-5.8300000000019665,8.433999999995878,-6.00823529411798,-0.7152941176475116,-4.155294117647221
15.629000000000014,11.403999999996214,-7.614000000000158,4.635999999999185,-6.561176470588611,-1.6776470588242132,-4.435294117647251
15.649000000000013,5.9163636363611545,-7.088181818180833,3.266363636363451,-6.768235294117639,-2.578235294118019,-4.782941176470811
15.669000000000015,2.4539999999983886,-5.2249999999987775,4.044000000001122,-6.731764705882284,-3.1029411764708636,-5.139411764706149
15.689000000000014,0.5459999999988777,-4.061999999999913,5.05299999999987,-6.544999999999782,-3.3493750000000637,-5.480625000000227
15.709000000000014,-0.6666666666672483,-4.447777777778568,5.018888888889083,-6.149411764705557,-3.3188235294116963,-5.704705882353069
15.729000000000015,-1.6530000000010214,-5.860000000001151,4.809999999999569,-5.702352941176138,-3.2623529411764354,-5.7588235294117815
15.749000000000015,-3.1820000000012088,-7.4580000000010935,4.412999999999871,-5.208235294117206,-3.2511764705881925,-5.65529411764694
15.769000000000014,-4.83600000000118,-8.95500000000108,4.029999999999425,-4.568235294117131,-3.1676470588234262,-5.462352941176281
15.789000000000014,-6.31900000000105,-10.589000000001338,3.0889999999993236,-3.825624999999427,-2.9887499999998366,-5.145624999999718
15.809000000000013,-8.029000000001288,-12.463000000001122,2.1669999999992933,-3.045294117646548,-2.74941176470572,-4.688823529411439
15.829000000000015,-9.447000000000417,-13.374999999999783,1.486999999999698,-2.278235294117084,-2.6152941176469806,-4.119411764705449
15.849000000000014,-9.73299999999987,-12.605999999998877,0.9619999999996259,-1.5399999999995673,-2.6841176470588914,-3.3752941176465074
15.869000000000014,-8.933999999998532,-10.093999999997237,0.9400000000008634,-0.9964705882350059,-2.746470588235286,-2.6105882352935823
15.889000000000015,-4.762999999994388,-6.036999999997015,2.6350000000007037,-0.6349999999997819,-2.666874999999882,-1.8468749999994456
15.909000000000015,2.685000000005108,-2.9709999999983743,1.4749999999971943,-0.4152941176469307,-2.579411764705848,-1.1441176470583365
15.929000000000014,9.103000000004187,-0.4779999999980719,-2.117000000000705,-0.370588235294109,-2.66411764705891,-0.4641176470583208
15.949000000000014,14.236000000001209,0.7719999999997961,0.6740000000024324,-0.4900000000001442,-2.7035294117645785,0.2670588235298783
15.969000000000014,15.512000000001393,0.2059999999991193,0.5999999999989484,-0.7288235294119954,-2.463529411764434,0.8788235294121354
15.989000000000015,16.913999999999685,-1.0380000000008058,0.5370000000012806,-1.0956250000003,-1.946249999999509,1.3725000000003271
16.009000000000015,15.12799999999785,-1.846000000000179,2.1060000000006265,-1.4235294117648918,-1.2358823529406964,1.7900000000002634
16.029000000000014,12.394999999998129,-1.6499999999993074,2.2339999999992797,-1.6117647058824598,-0.6288235294113913,2.1994117647061495
16.049000000000014,9.717999999998142,-0.2569999999987392,1.1179999999993904,-1.061470588235061,-0.0299999999998558,3.2788235294120955
16.069000000000013,6.779999999997645,1.9190000000018428,0.4799999999997229,-0.7379411764703516,0.17000000000014628,3.7376470588238653
16.089000000000013,3.7889999999983788,4.537000000001788,0.057999999999528914,0.09812500000099034,0.45437500000026243,4.912500000001389
16.109000000000012,1.6409999999990563,6.883000000001035,-0.5830000000002388,1.0076470588239193,0.3682352941174296,6.0811764705886775
16.129000000000012,0.2969999999994202,8.439000000000716,-0.5909999999997385,1.6293939393943089,0.16909090909081217,6.409090909091049
16.149000000000015,-0.7720000000008057,9.506000000000627,-0.11899999999974635,2.2288235294120957,0.04058823529416854,6.565882352940965
16.169000000000015,-1.9180000000009847,10.376000000000776,0.12200000000020891,2.6135294117648606,0.1182352941177159,6.162352941175989
16.189000000000014,-3.1460000000007207,11.539000000000872,0.5570000000005404,2.814375000000127,0.31062500000021165,5.372499999999357
16.209000000000014,-4.3030000000008455,12.807000000000818,1.6350000000010392,3.0100000000001272,0.7335294117650133,4.382352941175825
16.229000000000013,-4.8059999999997505,13.656000000000166,3.562000000001718,3.0899999999999666,1.0500000000000251,3.3899999999994317
16.249000000000013,-4.208999999999349,13.53599999999961,6.096000000001691,3.0429411764705554,1.0870588235294443,2.6111764705877807
16.269000000000013,-3.126999999999016,12.655999999999057,8.206000000001136,2.9782352941175882,1.1694117647059736,1.9841176470585173
16.289000000000012,-1.2959999999987382,11.12799999999917,9.80800000000099,2.8581249999999176,1.3500000000001198,1.4606249999997076
16.309000000000015,1.7660000000031184,9.447999999998462,11.860000000001717,2.695294117646915,1.465882352941234,1.037647058823213
16.329000000000015,6.030000000003269,7.189999999997916,13.533333333333918,2.518823529411619,1.4235294117646475,0.649411764705562
16.349000000000014,9.146363636364786,4.977272727271882,14.6127272727287,2.445294117647084,1.2170588235291573,0.10941176470539887
16.369000000000014,11.224545454547396,4.193636363636085,18.40363636364001,2.4805882352941437,0.7688235294112742,-0.6317647058830155
16.389000000000014,14.20400000000205,3.7309999999994043,22.232000000000056,2.415624999999873,-0.09500000000074493,-1.6137500000007279
16.409000000000013,16.67545454545573,2.5209090909081424,20.891818181817634,1.9599999999996176,-1.2064705882360065,-2.586470588235879
16.429000000000013,18.044999999999792,0.5029999999980741,18.497999999995095,1.0776470588229121,-1.9100000000003887,-3.3064705882357286
16.449000000000012,16.32727272727091,-1.862727272727864,10.458181818178193,-0.07294117647121467,-1.8052941176468607,-3.7458823529413428
16.469000000000012,12.965999999997976,-2.400999999999966,5.497999999998136,-1.208235294118253,-1.5076470588234512,-4.04823529411781
16.48900000000001,9.361999999998158,-1.9879999999996818,3.169999999999204,-2.220625000000547,-1.5368750000001423,-4.406875000000262
16.509000000000015,6.073999999997329,-1.7900000000002239,2.1679999999995823,-2.945294117647482,-2.0023529411768703,-4.934705882353333
16.529000000000014,2.541999999997508,-2.5300000000009697,1.5979999999996568,-3.512352941176829,-2.8070588235299683,-5.567647058823948
16.549000000000014,-0.718000000001944,-4.1040000000012915,1.1059999999996035,-4.179411764706408,-3.895294117647661,-6.117647058823759
16.569000000000013,-3.4120000000015733,-6.3500000000014065,0.5539999999996291,-4.881250000000439,-4.348749999999699,-6.3212499999999565
16.589000000000013,-5.832000000001573,-8.376000000001202,-0.10200000000035814,-5.394117647059067,-3.435882352940306,-6.148823529411588
16.609000000000012,-8.420000000001663,-10.208000000001112,-0.3419999999999105,-5.828235294117939,-2.0705882352932554,-5.667647058823154
16.629000000000012,-10.556000000000727,-11.958000000000933,-0.06599999999976125,-5.429999999999768,-1.0500000000001348,-4.729999999999947
16.649000000000015,-11.290000000000148,-13.074000000000238,0.21800000000002984,-4.994705882352627,-1.3029411764707706,-4.629999999999928
16.669000000000015,-11.009999999999403,-12.697999999999059,0.24200000000004476,-3.9887499999982357,-1.5962500000002926,-4.3087499999993675
16.689000000000014,-9.71599999999827,-10.677999999998164,0.796000000000955,-2.2494117647050835,-1.6547058823527518,-3.5429411764701024
16.709000000000014,-6.0139999999958365,-8.467999999998836,2.0100000000005225,-1.2841176470582687,-1.4873529411763995,-2.6614705882346676
16.729000000000013,0.46600000000465536,-7.559999999999744,1.6939999999990536,-0.41352941176414215,-1.3755882352940454,-1.679117647058187
16.749000000000013,7.710000000004476,-7.183999999999629,-0.41000000000159875,0.16764705882374847,-1.5511764705883326,-0.5817647058816714
16.769000000000013,14.898000000004503,-6.239999999998976,-2.274000000000716,0.42176470588241155,-1.597058823529314,0.35352941176515545
16.789000000000012,21.02400000000291,-3.6239999999980785,-2.774000000000125,0.5025000000000299,-1.2862499999997152,1.0587500000003447
16.80900000000001,24.55600000000073,-0.13999999999806723,-3.133999999999841,0.5047058823529262,-0.7682352941173022,1.4588235294119596
16.829000000000015,24.727999999999284,2.720000000001492,-1.349999999997687,0.4152941176469714,-0.2552941176466412,1.6329411764707047
16.849000000000014,21.73599999999588,3.8640000000003134,1.2500000000010445,0.32470588235291575,0.16117647058848128,1.7058823529412528
16.869000000000014,14.94799999999421,4.428000000000552,1.9280000000000297,0.3352941176471449,0.544705882353294,1.8717647058825766
16.889000000000014,7.676363636359937,5.550909090910015,1.739090909090798,0.5462500000002202,1.0125000000003048,2.3268750000004315
16.909000000000013,2.41272727272435,7.310909090910423,1.7527272727273344,0.820588235294275,1.0399999999998726,2.9247058823533085
16.929000000000013,-2.036000000002737,9.75600000000184,2.208000000000665,1.161764705882589,0.6705882352938509,3.510588235294499
16.949000000000012,-5.8300000000019185,12.184000000000973,3.12000000000032,1.7664705882356073,0.5958823529412339,4.076470588235498
16.969000000000015,-8.66000000000209,12.96600000000006,2.973999999999418,2.2758823529414345,0.6382352941175696,4.364705882353001
16.989000000000015,-11.092222222223846,12.647777777777076,2.0755555555547684,2.5600000000001555,0.5518749999999514,4.314374999999835
17.009000000000015,-12.88000000000091,11.494999999999191,1.7050000000004975,2.7600000000001357,0.8129411764708839,3.911176470587892
17.029000000000014,-13.349999999999847,10.743333333332922,3.4377777777800014,2.79058823529411,1.4647058823533985,3.2641176470583817
17.049000000000014,-12.49999999999892,10.329999999999659,5.7500000000009095,2.7370588235294457,2.2229411764709868,2.531764705881929
17.069000000000013,-10.48499999999842,9.804999999999566,6.16000000000005,2.7805882352941436,2.638235294117716,2.0070588235291367
17.089000000000013,-7.3799999999977866,8.91999999999928,6.36,2.788749999999983,2.6224999999998984,1.7099999999998645
17.109000000000012,-3.3499999999970154,7.459999999999005,5.684999999999292,2.7570588235293894,2.4476470588234096,1.5788235294117048
17.129000000000012,2.270000000003979,5.959999999999154,4.8449999999999385,2.70294117647055,2.1935294117645308,1.4752941176469903
17.149000000000015,8.765000000004973,5.004999999999696,5.870000000001631,2.71,1.7894117647055432,1.274117647058603
17.169000000000015,13.920000000002984,5.420000000001194,8.284000000002253,2.702941176470571,1.315294117646706,0.8941176470584191
17.189000000000014,16.518000000001,7.494000000001432,12.238000000003685,2.6618749999999576,0.7687499999995768,0.22437499999944976
17.209000000000014,17.58000000000156,8.980000000000654,15.575000000000696,2.5176470588234094,-0.008235294118194347,-0.6641176470594159
17.229000000000013,19.334999999999866,7.949999999998184,12.764999999995684,2.1223529411761812,-0.9329411764711979,-1.6029411764711978
17.249000000000013,17.209999999997436,3.1899999999965183,4.8699999999952,1.4029411764700042,-1.650000000000276,-2.3911764705886087
17.269000000000013,11.639999999995922,-1.2400000000019895,-0.08000000000114399,0.31588235294026445,-2.0041176470589606,-2.9358823529414826
17.289000000000016,5.569999999995908,-3.345000000000943,-1.3999999999995523,-0.7700000000003036,-2.22181818181832,-3.3109090909092105
17.309000000000015,1.4749999999975858,-4.390000000000896,0.39500000000187047,-1.170000000000323,-2.4036363636365103,-3.4684848484849757
17.329000000000015,-1.0000000000017053,-6.0550000000016055,2.155000000000782,-2.3700000000011556,-3.3717647058833147,-4.1776470588242285
17.349000000000014,-3.490000000001677,-8.520000000001762,2.6549999999999576,-3.2158823529418297,-3.990000000000144,-4.372352941176386
17.369000000000014,-5.675000000001578,-11.070000000001933,1.964999999999133,-4.100588235294729,-3.9076470588229872,-4.152352941176135
17.389000000000014,-7.97000000000179,-13.670000000001536,0.8749999999993321,-4.841250000000423,-2.836249999999001,-3.601874999999551
17.409000000000013,-9.920000000000845,-15.135000000000609,-0.05500000000048494,-5.197647058823664,-1.6394117647052149,-3.0641176470585236
17.429000000000013,-10.595000000000063,-15.239999999999204,-0.9150000000005845,-5.16470588235288,-1.2135294117645306,-2.8194117647057606
17.449000000000012,-10.804999999999765,-14.834999999999813,-2.6150000000011566,-4.781764705882034,-1.4358823529413425,-2.825294117647078
17.469000000000015,-10.074999999998864,-13.519999999998177,-4.380000000001215,-4.129999999999415,-1.6605882352941435,-2.842941176470571
17.489000000000015,-8.019999999997868,-11.374999999998536,-5.375000000000213,-3.268124999999271,-1.5731249999998154,-2.7624999999998834
17.509000000000015,-3.8849999999962623,-9.509999999998778,-4.944999999999048,-2.404705882352382,-1.3294117647057146,-2.5494117647057144
17.529000000000014,3.145000000005727,-7.509999999998437,-2.8149999999984794,-1.6282352941171516,-1.1576470588234302,-2.1235294117644012
17.549000000000014,10.345000000005129,-5.8699999999993455,-1.6099999999990622,-0.9488235294113745,-0.9999999999998558,-1.5164705882348446
17.569000000000013,18.920000000005473,-4.739999999998981,3.4900000000052973,-0.4464705882349929,-0.7788235294115667,-0.8964705882348467
17.589000000000013,25.87500000000285,-3.279999999999304,9.695000000000983,-0.0287499999997122,-0.5062499999998138,-0.2899999999995937
17.609000000000016,28.385000000000304,-2.494999999999089,9.040000000000063,0.380000000000326,-0.33352941176461,0.202941176470943
17.629000000000016,25.089999999994724,-0.5899999999983374,10.050000000000129,0.8000000000002425,-0.33000000000003343,0.6000000000002257
17.649000000000015,16.724999999992374,1.5100000000016947,7.904999999997426,1.1411764705884813,-0.34529411764694007,0.9123529411766742
17.669000000000015,7.597999999994107,4.016000000001969,6.522000000000188,1.5112500000003302,-0.07624999999961307,1.2600000000003775
17.689000000000014,1.4619999999965845,6.2840000000013365,5.783999999998839,1.8947058823531717,0.3976470588238342,1.8688235294122673
17.709000000000014,-2.1360000000016335,7.7780000000007155,4.655999999999743,2.01,0.5958823529412215,2.617058823529899
17.729000000000013,-4.120000000001148,8.418000000000108,4.523999999999919,1.7182352941174108,0.6947058823530097,3.325294117647508
17.749000000000013,-5.412000000000702,7.947999999999433,3.7999999999991227,1.4241176470587504,1.1100000000002759,3.8794117647061097
17.769000000000013,-6.594000000000833,7.359999999999819,2.321999999999118,1.3076470588234512,1.4217647058824114,4.1382352941177
17.789000000000016,-8.330000000001641,7.608000000000516,1.6219999999998749,1.2074999999999612,1.4856250000000097,4.116874999999873
17.809000000000015,-10.940000000002422,8.358000000000672,1.375999999999703,1.396470588235553,1.581764705882468,3.853529411764447
17.829000000000015,-13.992000000002141,9.51600000000111,1.1760000000002502,1.8929411764710349,1.8264705882355177,3.498235294117346
17.849000000000014,-14.919999999999527,10.702000000000567,3.018000000001998,2.7617647058836594,2.229411764706264,3.320000000000144
17.869000000000014,-13.363999999998569,10.943999999999852,5.978000000001728,4.160909090909401,2.5799999999999526,3.5054545454546533
17.889000000000014,-10.423999999997555,9.745999999998595,7.430000000000338,4.597272727273012,2.51333333333329,3.656969696969796
17.909000000000013,-7.385999999998191,7.007999999997948,6.6619999999989465,5.575882352941987,2.2988235294115773,4.023529411765013
17.929000000000016,-3.7499999999957367,4.273999999998107,5.395999999999335,6.059999999999989,2.0899999999996237,4.119999999999629
17.949000000000016,4.418000000008488,2.763999999998968,5.280000000000391,6.048235294117638,1.6664705882349578,3.702352941176139
17.969000000000015,12.986363636367242,2.3300000000005943,5.357272727272349,5.994117647058712,1.253529411764422,3.1947058823524164
17.989000000000015,16.390000000001592,4.280000000002132,6.3500000000022165,5.803124999999815,0.9218749999997959,2.4512499999993977
18.009000000000015,18.230000000001446,6.745000000001066,10.61500000000388,5.5441176470586395,0.6541176470586397,1.7670588235289801
18.029000000000014,19.88800000000004,5.677999999997745,15.798000000002471,5.254705882352751,0.2611764705879609,1.2164705882349511
18.049000000000014,18.207777777775767,0.5077777777729,14.83333333332899,4.902352941176241,-0.18117647058848127,0.6858823529408202
18.069000000000013,13.903999999996476,-5.224000000002821,7.357999999995652,4.5988235294115665,-0.5329411764708636,0.18470588235256255
18.089000000000013,7.933999999995802,-7.602000000000702,2.9939999999985014,4.309374999999789,-0.9987500000003894,-0.37562500000041477
18.109000000000016,2.345999999996264,-7.641999999999484,1.471999999998468,3.9552941176467518,-1.544117647059255,-1.002941176471106
18.129000000000016,-1.7020000000028452,-6.663999999999125,1.3600000000004688,3.55999999999967,-1.8947058823531937,-1.7323529411770922
18.149000000000015,-4.22000000000125,-5.775999999999703,2.3580000000009846,3.147647058823182,-1.9323529411763858,-2.5847058823534925
18.169000000000015,-5.618000000001141,-6.3100000000009375,3.348000000000516,2.6088235294112745,-1.8076470588234261,-3.3035294117651537
18.189000000000014,-7.308000000001256,-7.962000000001309,3.331999999999622,1.8856249999994668,-1.645624999999873,-3.8256250000002794
18.209000000000014,-9.000000000000945,-9.860000000001216,2.5339999999994465,1.1358823529407116,-1.4347058823527987,-4.0388235294118315
18.229000000000013,-9.930000000000474,-11.760000000001515,1.6166666666658298,0.40647058823482163,-1.1923529411763105,-3.9282352941175405
18.249000000000017,-10.440000000000511,-13.25600000000082,0.45899999999909613,-0.24882352941216263,-0.8117647058820162,-3.5158823529407477
18.269000000000016,-10.541999999999591,-13.283999999999523,-0.07200000000010232,-0.6547058823531476,-0.4517647058821378,-3.0217647058819916
18.289000000000016,-9.52799999999904,-11.59099999999815,0.32300000000056805,-0.888750000000136,-0.1887499999998251,-2.5474999999996504
18.309000000000015,-6.82599999999642,-8.245999999996812,2.0820000000019854,-0.95,0.088823529412014,-2.152941176470291
18.329000000000015,1.2120000000069333,-4.415999999997786,3.3109999999994613,-0.7805882352939428,0.5358823529415746,-1.8258823529409143
18.349000000000014,11.332727272734381,-1.3781818181793943,1.061818181816995,-0.5488235294116629,0.9464705882354214,-1.5111764705880488
18.369000000000014,20.918000000003957,3.0560000000028484,4.428000000004293,-0.3935294117645682,1.0876470588235725,-1.2664705882351392
18.389000000000014,21.329999999999057,4.647999999999163,7.752000000000904,-0.11562499999973755,1.215625000000144,-1.043124999999839
18.409000000000013,20.93599999999954,0.86999999999649,8.001999999999082,0.35647058823562405,1.4888235294119596,-0.7994117647057248
18.429000000000016,16.895454545450246,-3.268181818183844,4.773636363633765,0.8458823529415747,1.8041176470590858,-0.5052941176468063
18.449000000000016,10.76999999999531,-4.233333333333033,2.376666666665451,1.2305882352943127,2.170000000000288,-0.09294117647026591
18.469000000000015,5.643999999996825,-2.6849999999984706,0.8449999999989075,1.4694117647060028,2.5664705882355783,0.371764705882723
18.489000000000015,2.278999999997917,-0.26699999999812085,0.2579999999999126,1.5374999999999612,2.9431250000002818,1.2575000000010492
18.509000000000015,-0.5380000000019518,2.3350000000018207,-0.26100000000062634,1.4741176470587756,3.146470588235374,2.204117647059319
18.529000000000014,-2.7230000000014423,4.157000000001034,-0.8650000000002185,1.4309090909090663,3.271818181818268,3.0336363636369432
18.549000000000014,-4.376000000000918,5.2590000000006345,-0.7249999999997975,1.4,3.3905882352941683,3.8870588235300225
18.569000000000017,-5.533000000000835,6.393000000001177,-0.6029999999999829,1.3894117647058501,3.4082352941175507,4.684705882353562
