timestamp,acc_x,acc_y,acc_z
0.022,-0.584,-4.435,4.165
0.041999999999999996,-0.6126666666666667,-3.772666666666667,4.620666666666667
0.06199999999999999,-1.0336999999999996,-2.212100000000001,4.6596
0.08199999999999999,-2.626999999999999,-0.036200000000001065,4.057
0.10199999999999998,-4.645545454545455,1.7449090909090894,2.7428181818181834
0.12199999999999997,-3.8606000000000016,2.3526000000000002,1.2338000000000016
0.142,-2.723800000000001,2.0868,0.6224000000000002
0.16199999999999998,-1.7204000000000006,1.8564000000000005,0.827999999999999
0.18199999999999997,-1.106200000000001,1.2512000000000008,1.2755999999999998
0.20199999999999996,0.8585999999999965,0.21460000000000162,1.6927999999999988
0.22199999999999995,1.8605999999999994,-0.14320000000000044,2.2853999999999988
0.24199999999999997,1.6030000000000006,0.49533333333333174,2.5933333333333333
0.26199999999999996,1.4064,1.2036999999999984,2.4195000000000007
0.282,1.352000000000001,1.8432999999999982,2.2470000000000003
0.302,0.9224,2.4993333333333334,2.070333333333333
0.32199999999999995,0.9355999999999997,2.7286,1.8892000000000009
0.34199999999999997,1.0833333333333333,2.4930000000000008,1.5800000000000007
0.362,1.1178,2.1186,1.2548
0.38199999999999995,1.144,1.9300000000000002,1.1560000000000001
0.40199999999999997,1.6499999999999992,1.7180909090909096,0.9685454545454546
0.42199999999999993,2.01,1.3444000000000007,1.1355999999999988
0.44199999999999995,1.7600000000000011,1.0652500000000011,1.5844999999999982
0.46199999999999997,1.6804,0.9363999999999996,2.2953999999999977
0.48199999999999993,1.52357142857143,1.0540000000000003,2.871857142857142
0.5019999999999999,1.3700769230769232,0.987641025641026,2.9713589743589743
0.5219999999999999,1.3516153846153847,0.9271282051282055,2.951871794871795
0.5419999999999999,1.6982222222222219,-0.3258888888888862,2.1396666666666686
0.5619999999999999,1.82575,-1.2127499999999993,1.8145000000000002
0.582,1.757,-2.573,1.464
0.602,1.755,-2.8129999999999997,1.4765000000000001
0.6219999999999999,1.753,-3.0529999999999986,1.489
0.6419999999999999,0.48045454545454896,-2.5448181818181888,2.2052727272727255
0.6619999999999999,0.043999999999999775,-0.8630000000000088,2.6403999999999974
0.6819999999999999,0.19949999999999887,-0.051625000000002697,2.896624999999999
0.702,0.7262500000000001,-0.06025,2.525
0.7219999999999999,0.9043749999999997,-0.5807499999999944,1.5948750000000078
0.7419999999999999,0.7330000000000019,-1.5063333333333269,0.4730000000000071
0.7619999999999999,0.3506363636363663,-2.7089090909090845,-0.5413636363636328
0.7819999999999999,-0.14899999999999722,-3.6409999999999956,-1.0129999999999977
0.8019999999999999,-1.1719999999999948,-3.7750000000000035,-1.041333333333335
0.8219999999999998,-2.2213999999999956,-2.803600000000006,-0.5322000000000027
0.8419999999999999,-2.7941111111111083,-1.9637777777777812,-0.19188888888889027
0.8619999999999999,-3.240799999999998,-1.3668000000000033,0.16479999999999778
0.8819999999999999,-3.469529411764706,-0.9518235294117654,0.3968235294117644
0.9019999999999999,-3.5644545454545447,-0.8315454545454545,0.3156363636363656
0.9219999999999999,-3.7585999999999986,-0.8407999999999995,-0.1093999999999975
0.9419999999999998,-4.014181818181817,-0.9236363636363626,-0.5286363636363615
0.9619999999999999,-4.265399999999999,-1.229799999999998,-0.9857999999999973
0.9819999999999999,-4.37764705882353,-1.4631764705882349,-1.3862352941176461
1.0019999999999998,-4.405874999999998,-1.5466250000000001,-1.6039375
1.0219999999999998,-4.7273333333333305,-1.4906666666666673,-1.5820000000000003
1.0419999999999998,-4.9338,-1.616599999999996,-1.575199999999999
1.0619999999999998,-4.858636363636365,-2.0414545454545414,-1.718454545454544
1.0819999999999999,-4.603739130434784,-2.600956521739128,-1.912260869565217
1.1019999999999999,-4.2442500000000045,-3.3737499999999927,-1.8985000000000043
1.1219999999999999,-3.9028000000000014,-3.6298000000000004,-1.2889000000000053
1.142,-3.3745000000000047,-3.5260000000000002,-0.39500000000000324
1.162,-2.3714,-3.691,-0.07279999999999999
1.182,-1.245153846153846,-4.268538461538461,-0.15307692307692308
1.2019999999999997,-0.6959230769230831,-4.6862307692307645,-0.2484615384615374
1.2219999999999998,0.17277777777779288,-4.822555555555569,0.8369999999999879
1.2419999999999998,-0.48739999999999345,-4.404200000000004,1.127400000000001
1.2619999999999998,-1.4001818181818106,-3.2286363636363786,1.0782727272727264
1.2819999999999998,-1.8154074074074091,-1.3609259259259332,1.2742962962962954
1.3019999999999998,-1.6524444444444453,-0.6705555555555599,1.3557777777777773
1.3219999999999998,0.4424444444444346,0.29944444444444307,0.8571111111111127
1.3419999999999999,1.3987999999999905,0.29320000000000207,0.9233999999999978
1.3619999999999999,2.0883999999999943,-0.012999999999995557,1.0303999999999995
1.382,2.3724000000000003,-0.3993714285714285,0.9960571428571429
1.402,2.4044,-0.5462285714285708,0.9263428571428574
1.4219999999999997,2.428833333333342,-0.6075000000000181,0.8414999999999896
1.4419999999999997,1.8501818181818277,0.3472727272727153,1.3351818181818125
1.4619999999999997,1.181666666666673,1.142999999999993,1.7169999999999976
1.4819999999999998,0.630000000000003,1.7563333333333284,1.8476666666666672
1.5019999999999998,0.4820000000000001,2.0604999999999993,1.6485000000000039
1.5219999999999998,0.6058181818181798,2.0748181818181823,1.2575454545454576
1.5419999999999998,0.9992727272727234,1.9068181818181833,0.9798181818181827
1.5619999999999998,1.640727272727267,1.6384545454545485,0.8537272727272743
1.5819999999999999,2.344312499999998,1.3501250000000002,0.6761875000000007
1.6019999999999999,2.7192307692307693,1.3297692307692315,0.5573076923076921
1.6219999999999997,2.669142857142859,1.1855714285714325,0.6658571428571393
1.6419999999999997,2.726999999999997,1.3379999999999947,1.385999999999989
1.6619999999999997,2.9391818181818135,1.57381818181818,1.8977272727272687
1.6819999999999997,3.500384615384606,1.5746153846153863,2.2167692307692266
1.7019999999999997,4.498499999999982,1.3575000000000041,2.980999999999983
1.7219999999999998,5.38824999999999,1.052500000000005,4.054166666666651
1.7419999999999998,5.853499999999997,0.43450000000001426,4.888999999999994
1.7619999999999998,6.000666666666665,-0.6086666666666534,4.8800000000000034
1.7819999999999998,5.9326250000000025,-2.0302499999999974,4.458375
1.8019999999999998,4.976272727272735,-2.153636363636366,4.185454545454547
1.8219999999999998,3.923888888888899,-1.391444444444456,4.0488888888888885
1.8419999999999996,2.8707777777777976,-0.10911111111113608,4.034333333333336
1.8619999999999997,2.282500000000003,0.6899999999999935,3.846500000000003
1.8819999999999997,2.263749999999999,0.6976250000000033,3.7523750000000002
1.9019999999999997,2.387999999999984,0.05100000000010191,3.7170000000000076
1.9219999999999997,2.3615000000000035,-1.6504999999999739,2.974500000000015
1.9419999999999997,1.9611111111111221,-3.3508888888888615,1.8947777777777959
1.9619999999999997,1.0332500000000098,-4.693249999999994,0.8197500000000073
1.9819999999999998,-0.3099999999999936,-5.2274,-0.11319999999999647
2.002,-1.305,-5.025,-0.613
2.022,-2.4654999999999907,-3.678000000000015,-0.6320000000000037
2.0419999999999994,-3.1384999999999845,-2.4895000000000334,-0.23500000000001442
2.0619999999999994,-3.3334117647058785,-1.9383529411764844,-0.00523529411765257
2.0819999999999994,-3.1547647058823576,-1.5870588235294156,0.11488235294117576
2.1019999999999994,-3.1786666666666665,-1.3826666666666685,0.06766666666667015
2.1219999999999994,-3.088904761904765,-1.459047619047616,-0.23042857142856493
2.1419999999999995,-3.0151249999999954,-1.7231249999999958,-0.9697499999999826
2.1619999999999995,-3.2289999999999957,-1.8919999999999968,-1.5929999999999893
2.1819999999999995,-3.614999999999995,-1.9335000000000009,-1.9664999999999973
2.2019999999999995,-4.465210526315785,-1.6941052631578954,-2.1242105263157907
2.2219999999999995,-4.64611111111111,-1.6733333333333331,-2.093777777777778
2.2419999999999995,-4.706555555555554,-1.6786666666666665,-2.088888888888889
2.2619999999999996,-4.7669999999999995,-1.6839999999999997,-2.084
2.2819999999999996,-4.843527272727274,-3.3208363636363623,-3.0685272727272723
2.3019999999999996,-4.788618181818182,-3.4502909090909073,-3.113618181818181
2.3219999999999996,-4.733709090909091,-3.5797454545454523,-3.15870909090909
2.3419999999999996,-4.586500000000055,-3.5086666666666337,-2.8948333333333474
2.3619999999999997,-3.3734736842105457,-4.354368421052617,-2.6003157894736884
2.3819999999999992,-2.137222222222228,-5.284444444444448,-2.1403333333333414
2.4019999999999992,-1.9147954545454562,-5.031931818181819,-1.8591363636363647
2.4219999999999993,-1.8579772727272743,-4.9796590909090925,-1.8236818181818193
2.4419999999999993,-1.795000000000006,-4.830500000000066,-1.76000000000002
2.4619999999999993,-1.4439090909091339,-0.9897272727273015,-0.2557272727272971
2.4819999999999993,-0.3548750000000092,-0.7001562499999994,0.21434374999999584
2.5019999999999993,-0.022375000000009193,-0.7207812499999994,0.36371874999999587
2.5219999999999994,1.465363636363601,-0.9025454545454363,1.1074545454545375
2.5419999999999994,2.358999999999982,-1.4639999999999893,1.2869999999999946
2.5619999999999994,2.8219999999999903,-1.5480000000000058,1.612499999999988
2.5819999999999994,3.082827586206895,-1.118275862068975,1.9957931034482739
2.6019999999999994,3.1255862068965508,-0.8258620689655256,2.0551034482758603
2.6219999999999994,3.2744444444444465,0.7048888888888662,1.5403333333333389
2.6419999999999995,3.0362727272727352,1.4930909090908935,1.395909090909095
2.6619999999999995,2.785250000000004,1.876187499999995,1.2631250000000018
2.6819999999999995,2.5185714285714296,2.025571428571429,1.3248571428571396
2.7019999999999995,2.472857142857144,2.019857142857143,1.4362857142857113
2.7219999999999995,2.7779999999999956,1.744500000000006,1.9479999999999962
2.7419999999999995,2.933199999999996,1.4834000000000076,2.043999999999998
2.7619999999999996,3.2859999999999947,1.1970000000000023,2.217499999999998
2.7819999999999996,3.720448275862067,1.0867931034482752,2.352551724137931
2.801999999999999,3.8452758620689593,1.12610344827586,2.3477241379310345
2.821999999999999,4.302499999999988,1.6824999999999866,2.3394999999999913
2.841999999999999,4.876799999999965,1.9941999999999906,2.4967999999999972
2.861999999999999,5.7439999999999705,2.0388000000000055,2.5298
2.8819999999999992,6.147290322580643,1.7773548387096827,2.5098387096774206
2.9019999999999992,6.2324516129032235,1.594774193548393,2.469193548387098
2.9219999999999993,5.769666666666688,0.21044444444447413,2.435222222222218
2.9419999999999993,5.299000000000017,-0.8345999999999487,2.4989999999999952
2.9619999999999993,4.791461538461562,-1.5819999999999936,2.6507692307692188
2.9819999999999993,3.9650000000000065,-1.4600000000000084,3.141531249999995
3.0019999999999993,3.7850000000000072,-1.2400000000000087,3.265906249999995
3.0219999999999994,3.098999999999996,1.3717272727272412,3.9818181818181744
3.0419999999999994,3.3525999999999914,1.8192,4.0836
3.0619999999999994,3.8243846153846013,1.4826153846154,3.9663846153846243
3.0819999999999994,4.3146666666666595,0.7033333333333527,3.368666666666685
3.1019999999999994,4.474137931034485,-0.41189655172412326,2.4446896551724224
3.1219999999999994,4.410689655172415,-0.9594827586206771,2.1274482758620765
3.1419999999999995,2.485333333333375,-3.0962222222222056,1.2675555555555589
3.1619999999999995,1.0018000000000369,-3.272400000000007,1.1890000000000007
3.1819999999999995,-0.17741666666663886,-2.7220833333333547,1.1145833333333346
3.2019999999999995,-1.1559285714285619,-1.813285714285726,1.1371428571428563
3.221999999999999,-1.442357142857127,-1.4675714285714478,1.1642857142857128
3.241999999999999,-2.063818181818173,-0.6090909090909182,0.9932727272727407
3.261999999999999,-2.1166000000000005,-0.6347999999999926,0.47820000000002383
3.281999999999999,-2.089846153846155,-0.8736923076922948,-0.06307692307689954
3.301999999999999,-2.1314999999999973,-1.2072499999999948,-0.6889999999999895
3.321999999999999,-2.3683999999999665,-1.547399999999987,-1.4405999999999417
3.341999999999999,-2.6957999999999926,-1.5819999999999996,-1.9421999999999875
3.361999999999999,-2.9094999999999915,-1.5675000000000041,-2.2839999999999896
3.3819999999999992,-3.0881999999999983,-1.3858000000000035,-2.610399999999988
3.4019999999999992,-3.099999999999997,-1.4773999999999932,-2.9473999999999836
3.4219999999999993,-3.1853636363636344,-1.644484848484845,-3.2789999999999964
3.4419999999999993,-3.2508181818181794,-1.7584242424242378,-3.398999999999995
3.4619999999999993,-3.899090909090895,-3.077181818181796,-3.719818181818184
3.4819999999999993,-4.247285714285708,-3.3465714285714294,-3.5955714285714335
3.5019999999999993,-4.179705882352947,-3.3488823529411738,-3.3960000000000026
3.5219999999999994,-3.978529411764713,-3.4324117647058796,-3.2960000000000034
3.5419999999999994,-2.303200000000007,-5.105399999999988,-2.895400000000003
3.5619999999999994,-2.310999999999999,-5.127400000000004,-2.7404000000000046
3.5819999999999994,-2.4879999999999907,-4.432000000000037,-2.4365000000000143
3.6019999999999994,-2.643954545454549,-2.9126818181818503,-1.8491363636363773
3.6219999999999994,-1.9050000000000331,-1.1670000000000278,-0.7995000000000267
3.6419999999999995,-0.394000000000041,-0.5192000000000098,0.1947999999999748
3.661999999999999,0.8769166666666321,-0.13216666666667898,0.9776666666666475
3.681999999999999,1.9989999999999364,-0.0009999999999882603,1.078666666666682
3.701999999999999,2.5961999999999903,-0.27579999999998994,0.6040000000000274
3.721999999999999,2.494444444444451,-0.2721111111111137,0.19844444444445336
3.741999999999999,2.3692592592592643,-0.22248148148148345,0.026592592592599384
3.761999999999999,1.7365454545454706,0.38727272727270873,-0.31563636363637143
3.781999999999999,1.2757272727272866,0.9667272727272509,0.06954545454543559
3.801999999999999,1.114545454545456,1.3554545454545355,0.5208181818181628
3.821999999999999,1.1203437499999993,1.5541874999999967,0.8782187499999953
3.841999999999999,1.1384687499999993,1.6404374999999967,0.9988437499999953
3.861999999999999,1.233,1.6205000000000036,1.503999999999991
3.8819999999999992,1.3359999999999945,1.3430000000000129,1.7466666666666608
3.9019999999999992,1.5419999999999925,0.9160000000000152,1.931181818181811
3.9219999999999993,1.7226111111111062,0.617111111111117,2.067611111111109
3.9419999999999993,2.1047499999999832,0.4535833333333325,2.162333333333329
3.9619999999999993,2.5094999999999943,0.5739545454545398,2.304590909090904
3.9819999999999993,2.719499999999992,0.7730454545454469,2.476409090909084
4.002,3.4123333333333297,1.600333333333332,3.2766666666666637
4.021999999999999,3.583449999999997,1.6117000000000006,3.418149999999997
4.042,3.700449999999999,1.5937000000000001,3.5171499999999996
4.061999999999999,4.98599999999999,0.6658333333333412,4.015500000000002
4.082,5.565899999999994,-0.20659999999998785,3.912800000000001
4.101999999999999,5.990454545454543,-1.7094545454545218,3.896727272727269
4.122,5.958181818181818,-1.957636363636365,4.308499999999999
4.1419999999999995,5.922500000000004,-1.073000000000027,4.826499999999997
4.162,5.424000000000007,0.6373846153845947,4.861846153846154
4.1819999999999995,4.9492500000000055,2.2712499999999736,4.63133333333334
4.202,4.9277,2.715500000000001,4.226100000000003
4.2219999999999995,4.812000000000003,2.2997407407407473,3.808703703703708
4.242,4.366,1.333,3.079
4.262,3.5418181818181935,-0.6607272727272446,1.8251818181818324
4.282,2.672100000000009,-2.0597999999999894,1.4017000000000013
4.302,1.5636000000000103,-2.748299999999997,1.4992999999999979
4.321999999999999,0.6288235294117934,-2.535529411764726,1.7291764705882313
4.342,-0.33049999999999335,-1.6614000000000075,1.735400000000001
4.361999999999999,-0.8731999999999802,-0.80580000000004,1.6308000000000027
4.382,-1.197272727272721,-0.30318181818182527,1.7040909090909073
4.401999999999999,-1.4698181818181724,-0.1933636363636329,1.600454545454557
4.422,-1.5476818181818182,-0.25577272727272715,1.347863636363637
4.441999999999999,-1.6596666666666644,-0.8434444444444287,0.3665555555555755
4.462,-1.8634999999999935,-1.0609999999999966,-0.07349999999999138
4.481999999999999,-2.2136666666666525,-1.1569999999999974,-0.5469999999999816
4.502,-2.4840909090909085,-1.115636363636364,-0.7305454545454544
4.521999999999999,-2.6911599999999973,-1.0652399999999997,-0.7123199999999996
4.542,-3.059428571428568,-1.1622857142857115,-0.911999999999996
4.561999999999999,-3.3070999999999966,-1.5561999999999843,-1.5654999999999764
4.582,-3.3298,-2.2324000000000064,-2.1966000000000054
4.601999999999999,-3.4571999999999914,-2.850099999999978,-2.71329999999998
4.622,-3.597181818181818,-3.077272727272727,-2.9154999999999998
4.6419999999999995,-3.641444444444452,-3.3245555555555497,-2.7950000000000084
4.662,-3.2178461538461614,-3.9133846153846026,-2.4376153846153894
4.6819999999999995,-2.521636363636369,-5.130818181818168,-1.980363636363645
4.702,-2.6829411764705875,-5.151941176470589,-1.5370000000000013
4.7219999999999995,-2.6793,-4.729400000000005,-1.1591000000000027
4.741999999999999,-3.074399999999973,-2.930700000000134,-0.765500000000025
4.762,-2.845000000000021,-0.47640000000006477,-0.31540000000001156
4.781999999999999,-1.5950000000000746,1.399399999999937,-0.14749999999999522
4.802,-0.6710000000000145,1.8622222222222165,-0.32249999999999673
4.821999999999999,0.5761739130434566,1.9434347826086966,-0.49469565217391115
4.842,1.76779999999998,1.3546000000000242,-0.4769999999999952
4.861999999999999,2.335399999999981,0.13890000000006425,-0.7829999999999862
4.882,2.3032500000000105,-0.9279999999999626,-0.8275000000000041
4.901999999999999,1.9260000000000193,-1.397999999999994,-0.6038571428571572
4.922,1.2385000000000062,-0.956500000000007,-0.1914000000000035
4.941999999999999,0.69475000000001,-0.10558333333335518,0.2909999999999846
4.962,0.5771999999999969,0.6931999999999812,1.0795999999999761
4.981999999999999,0.8702499999999844,1.2787499999999805,1.8342499999999797
5.002,1.1776999999999975,1.5389999999999988,1.8987000000000014
5.021999999999999,1.3250909090909047,1.5608636363636361,1.7544545454545506
5.042,1.6001428571428569,1.5775714285714284,1.4990000000000006
5.061999999999999,1.6959999999999882,1.3853333333333548,1.342666666666675
5.082,1.9990999999999972,0.9922000000000024,1.2675000000000003
5.101999999999999,2.2187999999999923,0.8937000000000015,1.3608999999999931
5.122,2.3065,0.8809166666666667,1.4854583333333338
5.1419999999999995,2.70566666666666,1.0046666666666633,2.1596666666666584
5.161999999999999,3.0584999999999836,1.2220999999999944,2.3964
5.1819999999999995,3.520666666666655,1.0160000000000056,2.206000000000004
5.201999999999999,4.30637499999995,0.7453750000000161,2.481624999999952
5.2219999999999995,4.735649999999997,0.5822500000000013,3.1453499999999948
5.241999999999999,5.3632999999999775,0.21730000000002356,4.692999999999958
5.262,5.868090909090899,-0.7398181818181562,5.151909090909084
5.281999999999999,5.961000000000009,-1.6383333333333194,5.863999999999951
5.302,5.791666666666669,-1.377000000000009,6.710999999999988
5.321999999999999,5.67341666666667,-0.9907500000000096,6.931999999999997
5.342,4.854181818181821,0.9264545454545408,6.526090909090911
5.361999999999999,4.584227272727277,1.607227272727264,6.067045454545467
5.382,4.357600000000006,1.6878000000000062,5.2212000000000165
5.401999999999999,3.938400000000035,1.003600000000065,4.08960000000008
5.422,3.3770000000000215,-0.06179999999995894,3.0816000000000314
5.441999999999999,2.7055000000000957,-1.3804999999998273,2.393500000000061
5.462,1.4606363636363884,-2.704090909090892,1.9987272727272776
5.481999999999999,0.22976923076926642,-3.1297692307692304,1.8440769230769267
5.502,-0.8780000000000069,-2.751999999999995,1.7908
5.521999999999999,-1.1473999999999962,-2.433200000000005,1.8059999999999996
5.542,-1.630454545454544,-1.110000000000012,1.7829090909090912
5.561999999999999,-1.5393636363636445,-0.7851818181818228,1.8015454545454566
5.581999999999999,-1.4002000000000014,-0.7770000000000021,1.3876000000000233
5.601999999999999,-1.3697500000000062,-0.867999999999974,0.7480000000000853
5.621999999999999,-1.4152758620689596,-1.0711724137930965,0.09668965517243544
5.6419999999999995,-2.2777777777777626,-1.2536666666666656,-1.1026666666666467
5.661999999999999,-2.6168181818181684,-1.250000000000001,-1.580909090909079
5.6819999999999995,-2.9441999999999897,-1.2227999999999999,-1.7547999999999933
5.701999999999999,-3.1859999999999853,-1.3745999999999896,-1.8979999999999935
5.7219999999999995,-3.2954516129032245,-1.4730967741935468,-1.934096774193548
5.741999999999999,-3.5054999999999983,-2.1374999999999775,-2.2799999999999865
5.762,-3.432100000000001,-2.8314999999999935,-2.6008999999999975
5.781999999999999,-3.57979999999999,-3.187799999999997,-2.814599999999994
5.802,-3.747777777777776,-2.949333333333346,-2.81366666666667
5.821999999999999,-3.7293142857142874,-2.8149714285714347,-2.7536285714285746
5.842,-3.2435000000000294,-3.0867499999999524,-2.1392500000000294
5.861999999999999,-2.607000000000019,-4.15799999999997,-1.8493333333333326
5.882,-2.417181818181819,-4.196545454545454,-1.9579090909090902
5.901999999999999,-2.559599999999979,-3.600300000000048,-2.243299999999988
5.922,-2.821687499999994,-3.0024375000000134,-2.3331562499999987
5.941999999999999,-2.757000000000043,-0.8541428571429048,-1.7224285714286216
5.962,-1.767600000000025,-0.5128000000000018,-0.7294000000000244
5.981999999999999,-0.7114000000000384,-0.5525999999999981,0.13719999999997134
6.001999999999999,0.44199999999994555,-0.659333333333326,0.7045555555555396
6.021999999999999,0.91035294117646,-0.7976470588235256,0.745
6.041999999999999,2.1189999999999776,-1.4669999999999774,0.5160000000000045
6.061999999999999,2.1058000000000083,-1.2708000000000192,0.605799999999995
6.081999999999999,1.718444444444466,-0.47344444444448647,0.6739999999999977
6.101999999999999,1.3016666666666787,0.5973333333332975,0.7092222222222211
6.121999999999999,1.1491428571428621,1.0400714285714139,0.7168571428571426
6.1419999999999995,1.275599999999986,1.8343999999999927,0.8803999999999959
6.161999999999999,1.678249999999987,1.9562499999999956,1.061999999999994
6.1819999999999995,1.9358888888888839,1.8552222222222317,1.1983333333333297
6.201999999999999,1.9954000000000005,1.4486000000000159,1.3341999999999938
6.2219999999999995,1.9922,1.3032000000000012,1.4055499999999994
6.241999999999999,1.9902,1.1912000000000036,1.4650499999999982
6.262,2.8944444444444226,0.2601111111111126,2.368111111111097
6.281999999999999,3.4517777777777576,0.3644444444444375,2.7555555555555418
6.302,4.079799999999981,0.7291999999999875,2.9415999999999967
6.321999999999999,4.376181818181808,0.9483636363636287,2.9773636363636355
6.342,6.016714285714238,1.7402857142857038,3.4714285714285538
6.361999999999999,7.234199999999963,1.8342000000000047,4.125599999999977
6.382,7.842499999999993,1.590500000000006,4.515499999999996
6.401999999999999,8.044400000000001,0.9382000000000186,4.553400000000003
6.421999999999999,7.808000000000014,-0.6402499999999179,4.390250000000007
6.441999999999999,7.187888888888914,-1.875111111111089,4.318999999999999
6.461999999999999,6.899125000000013,-1.94775,4.350812499999998
6.481999999999999,5.770571428571481,-0.6052857142858011,4.672571428571417
6.501999999999999,4.742250000000049,1.2222499999999068,4.824999999999996
6.521999999999999,4.494500000000003,1.6849999999999938,4.813000000000001
6.541999999999999,3.950000000000042,2.0550000000000397,4.282000000000064
6.561999999999999,3.526909090909105,1.3333636363636756,3.5676363636363932
6.581999999999999,3.2006000000000103,0.11000000000004906,2.9194000000000195
6.601999999999999,2.7097500000000267,-1.3012499999999392,2.3715000000000237
6.621999999999999,2.3731428571428688,-1.8825714285714104,2.125785714285722
6.6419999999999995,1.1458000000000141,-2.7895999999999996,1.5131000000000034
6.661999999999999,0.6095000000000521,-2.4225000000000594,1.627999999999974
6.6819999999999995,0.08300000000001348,-1.569200000000028,2.054399999999987
6.701999999999999,-0.30011111111108757,-0.8713333333333716,2.23311111111111
6.7219999999999995,-0.4726785714285676,-0.7100714285714318,2.1865000000000014
6.741999999999999,-1.271399999999983,-0.5769999999999996,1.4596000000000244
6.762,-1.6215999999999917,-0.7853999999999923,0.636000000000023
6.781999999999999,-1.8948888888888697,-1.0632222222222059,-0.17033333333328396
6.802,-2.2249999999999934,-1.3017999999999965,-0.9786999999999864
6.821999999999999,-2.4139999999999917,-1.3461999999999985,-1.1848333333333252
6.842,-3.0389999999999904,-1.5143999999999997,-1.820799999999989
6.861999999999999,-3.386818181818172,-1.5234545454545447,-2.1571818181818103
6.881999999999999,-3.6785999999999843,-1.7201999999999817,-2.3988999999999865
6.901999999999999,-3.793799999999991,-2.045399999999971,-2.529199999999992
6.921999999999999,-3.91273333333333,-2.401666666666658,-2.6267999999999976
6.941999999999999,-4.163571428571416,-3.036142857142852,-2.86828571428571
6.961999999999999,-4.482818181818162,-2.776090909090933,-2.814181818181829
6.981999999999999,-4.436454545454553,-2.465363636363644,-2.5470909090909193
7.001999999999999,-3.6435454545454937,-2.74299999999998,-2.0416363636363806
7.021999999999999,-3.0956153846154018,-3.081692307692297,-1.8906153846153888
7.041999999999999,-1.669363636363647,-3.86663636363637,-2.3395454545454353
7.061999999999999,-1.425500000000004,-3.686800000000003,-2.675699999999997
7.081999999999999,-1.5459999999999887,-2.806300000000076,-2.3597000000000308
7.101999999999999,-1.3645555555555655,-1.4318888888889387,-1.6486666666666947
7.121999999999999,-1.2166129032258122,-0.8954516129032445,-1.3054838709677545
7.1419999999999995,0.14549999999996086,-0.34249999999999314,-0.41600000000001797
7.161999999999999,0.8353636363636197,-0.5531818181818118,0.03881818181817015
7.1819999999999995,1.5504999999999867,-0.9212999999999916,0.32089999999999713
7.201999999999999,1.9988888888888747,-1.4349999999999727,0.5125555555555384
7.2219999999999995,1.9820000000000009,-1.4884999999999993,0.656499999999997
7.241999999999999,1.8570000000000852,-1.3950000000001102,1.1069999999997149
7.262,1.3502727272727362,0.3960909090908752,1.9669999999999943
7.281999999999999,1.1960909090909153,1.3993636363635908,2.042363636363638
7.301999999999999,1.181285714285709,1.8441428571428258,1.8411428571428858
7.321999999999999,1.2511290322580615,1.9609999999999963,1.7134838709677465
7.341999999999999,1.7315714285713988,1.7152857142857438,1.2430000000000216
7.361999999999999,1.9149999999999945,1.4070000000000153,1.2009999999999978
7.381999999999999,1.972090909090908,1.0803636363636548,1.418454545454529
7.401999999999999,1.9744,0.6946000000000073,1.8509999999999915
7.421999999999999,2.0270967741935455,0.5397741935483951,2.064999999999989
7.441999999999999,2.524249999999994,0.44999999999999263,3.196124999999986
7.461999999999999,3.093799999999955,0.7799999999999838,3.84509999999996
7.481999999999999,3.681999999999991,1.1511999999999918,4.328799999999994
7.501999999999999,4.332666666666496,1.5019999999999443,4.441999999999988
7.521999999999999,4.752499999999989,1.5804687499999988,4.490593749999999
7.541999999999999,6.5439999999998975,1.790285714285701,5.1918571428571
7.561999999999999,7.795999999999952,1.7730000000000048,5.505999999999992
7.581999999999999,8.405099999999967,1.1047000000000617,5.397000000000011
7.601999999999999,8.493750000000007,-0.264249999999914,5.138750000000017
7.621999999999999,8.30630303030304,-0.7838787878787713,5.0572424242424265
7.6419999999999995,6.785000000000027,-1.2674285714285796,4.729428571428577
7.661999999999999,5.50700000000006,-0.1840000000000629,4.778999999999994
7.6819999999999995,4.896250000000009,0.7970624999999807,4.963749999999996
7.701999999999999,4.588875000000003,1.4683749999999922,5.064500000000002
7.721999999999999,4.555933333333334,1.380266666666678,4.911400000000013
7.741999999999999,4.3619354838709725,0.8689032258064604,4.482870967741944
7.761999999999999,3.511000000000086,-0.8269999999998374,3.284000000000091
7.781999999999999,2.7090000000000374,-1.885999999999954,2.7250000000000276
7.801999999999999,1.7717000000000656,-2.5186999999999684,2.2982000000000213
7.821999999999999,1.2364000000000306,-2.6047999999999965,1.8573000000000266
7.841999999999999,-0.11399999999995025,-2.0169000000000397,1.8534000000000044
7.861999999999999,-0.7994999999999601,-1.3657000000000368,1.9469999999999987
7.881999999999999,-1.3704999999999707,-0.8631000000000237,1.9233000000000053
7.901999999999999,-1.6729999999999954,-0.6877000000000028,1.645800000000006
7.921999999999999,-1.9029999999999785,-0.5970000000000026,0.9530000000001195
7.941999999999999,-1.925499999999998,-0.8343333333333227,0.2553333333333542
7.961999999999999,-2.0654999999999935,-1.0258999999999887,-0.37269999999995734
7.981999999999999,-2.23799999999999,-1.1329999999999962,-1.0559999999999699
8.001999999999999,-2.436999999999961,-1.2742499999999835,-1.4947499999999443
8.021999999999998,-2.605863636363623,-1.3183636363636335,-1.6477727272727172
8.042,-3.2309999999999883,-1.4271666666666665,-1.907333333333331
8.062,-3.5416666666666603,-1.5058333333333311,-2.0191666666666634
8.081999999999999,-3.726999999999988,-1.5869999999999946,-2.1689999999999845
8.101999999999999,-3.7398750000000023,-1.7336249999999809,-2.319749999999988
8.122,-3.55,-2.169,-2.392
8.142,-3.3456666666666703,-2.489833333333327,-2.236500000000005
8.161999999999999,-3.4,-2.2970000000000295,-2.0760000000000134
8.181999999999999,-2.740000000000076,-2.608999999999943,-1.944000000000009
8.201999999999998,-1.8110000000000774,-3.838999999999892,-2.049999999999987
8.222,-1.606000000000023,-4.210499999999969,-2.237499999999923
8.241999999999999,-1.6984999999999795,-4.167000000000016,-2.800399999999972
8.261999999999999,-2.3299999999999312,-3.0590000000001414,-2.6990000000000434
8.281999999999998,-2.5491818181818195,-1.7340000000000788,-1.8744545454546069
8.302,-1.527,-0.973,-0.502
8.322,-0.219,-0.71,0.414
8.341999999999999,1.1354999999999074,-0.4436000000000194,0.7697999999999812
8.361999999999998,2.5929090909090107,-0.45663636363635546,0.8479090909090907
8.382,3.167250000000006,-0.5123749999999994,0.7937499999999988
8.402,2.898,-0.558,0.773
8.421999999999999,2.2010000000000707,-0.3500000000000355,0.5360000000000298
8.441999999999998,1.7327777777778024,0.3461111111110579,0.38844444444444615
8.462,1.972,1.08,0.841
8.482,2.234,1.537,1.41
8.501999999999999,2.5008999999999784,1.6929999999999952,1.6429999999999876
8.521999999999998,2.6209999999999996,1.766999999999992,1.9389999999999719
8.542,2.673555555555553,1.6930000000000027,2.259444444444437
8.562,3.089,1.506,2.956
8.581999999999999,3.6359999999999566,1.3340000000000165,3.7059999999999356
8.601999999999999,4.0169999999999675,1.1930000000000136,4.256999999999957
8.621999999999998,4.324999999999976,1.273999999999978,4.508999999999982
8.642,4.597,1.58,4.441
8.661999999999999,4.96036363636362,1.8519999999999974,4.214636363636367
8.681999999999999,5.625999999999929,1.887000000000001,4.17
8.701999999999998,6.5439999999999126,1.68700000000002,4.306999999999986
8.722,7.137,1.532,4.293
8.741999999999999,7.356799999999998,1.320400000000007,4.03900000000001
8.761999999999999,7.230000000000002,0.7511818181818504,3.453181818181825
8.781999999999998,7.0420000000000265,-0.24899999999991085,3.422999999999988
8.802,6.454,-0.431,3.962
8.822,6.142,0.023,4.485
8.841999999999999,5.631454545454569,0.9206363636363205,4.8603636363636245
8.861999999999998,4.7690000000000685,2.462999999999881,4.95700000000002
8.882,4.464,2.517,4.558
8.902,4.485699999999998,1.9989000000000283,3.9910000000000245
8.921999999999999,4.527999999999998,0.8360000000001107,2.9480000000001017
8.941999999999998,4.5539411764705875,-0.10952941176467101,2.037647058823562
8.962,4.559823529411765,-0.5265882352941242,1.6529411764705824
8.982,3.6233333333333584,-3.26091666666666,1.0874166666666534
9.001999999999999,2.632000000000103,-3.240000000000028,1.8179999999999046
9.021999999999998,1.5650000000001132,-2.52800000000008,2.415999999999947
9.041999999999998,0.7084285714286374,-1.8656666666667148,2.768666666666646
9.062,-0.6629090909090745,-0.8385454545454659,2.742727272727277
9.081999999999999,-1.265749999999989,-0.4919166666666679,2.5240833333333366
9.101999999999999,-1.6959999999999558,-0.5159999999999907,2.317000000000028
9.121999999999998,-2.0600909090908726,-0.8165454545453968,1.6240909090910016
9.142,-2.3870454545454494,-1.3506818181818134,0.7035000000000093
9.161999999999999,-2.5679545454545343,-1.5243181818181712,0.37350000000002
9.181999999999999,-3.0671666666666533,-1.9786666666666675,-0.5861666666666489
9.201999999999998,-3.5793636363635906,-1.8411818181818518,-1.1992727272726995
9.222,-3.9396666666666573,-1.608000000000005,-1.3511666666666649
9.241999999999999,-4.1349090909090895,-1.5362727272727277,-1.469181818181817
9.261999999999999,-4.322333333333328,-1.4958333333333347,-1.571999999999999
9.281999999999998,-4.498999999999987,-1.5239999999999898,-1.5969999999999993
9.302,-4.413636363636366,-2.088636363636354,-1.5596363636363628
9.322,-4.262100000000007,-2.387,-1.5863999999999998
9.341999999999999,-3.801818181818194,-2.4881818181818134,-1.5717727272727287
9.361999999999998,-3.358181818181845,-2.651818181818172,-1.5272272727272753
9.382,-2.276,-3.531,-1.245
9.402,-1.9285454545454743,-3.8380909090909143,-0.8239090909090987
9.421999999999999,-1.4490000000000154,-3.404000000000032,-0.6938333333333341
9.441999999999998,-1.6798076923076761,-2.047153846153901,-0.7548076923076904
9.461999999999998,-2.026500000000073,0.14199999999990992,-0.3714000000000707
9.482,-1.0443636363636806,0.554181818181822,0.17809090909090064
9.501999999999999,0.38045454545451546,0.31481818181819293,0.25318181818182517
9.521999999999998,1.2533636363635632,-0.07836363636357224,0.007090909090920189
9.541999999999998,1.6703333333333172,-0.5312592592592302,-0.032740740740742326
9.562,1.7616363636363719,-1.6894545454545356,0.30609090909090125
9.581999999999999,1.3560909090909161,-1.8920909090909257,0.6963636363636226
9.601999999999999,1.1949000000000025,-1.0911000000001359,1.1531999999999534
9.621999999999998,1.1174000000000244,0.09829999999986537,1.49169999999998
9.642,0.9705357142857187,0.8272857142856966,1.5723571428571428
9.661999999999999,0.8996923076922893,1.8036153846153766,1.2815384615384728
9.681999999999999,1.4397499999999834,1.8505833333333355,1.0515000000000043
9.701999999999998,2.1739999999998982,1.7403000000000224,0.8597000000000191
9.722,3.0998999999999794,1.5345000000000066,0.7544999999999982
9.741999999999999,3.7111153846153813,1.324500000000002,0.8873076923076895
9.761999999999999,3.8334230769230717,1.254500000000003,0.9934615384615342
9.781999999999998,3.8950909090909,0.9769999999999978,1.6821818181817634
9.802,4.04141666666666,0.9925000000000033,2.2470833333333173
9.822,4.38839999999997,0.8915000000000056,2.829399999999961
9.841999999999999,4.741749999999993,1.032124999999995,3.306874999999992
9.861999999999998,4.926749999999989,1.1596249999999921,3.519374999999987
9.881999999999998,6.483999999999932,1.4051818181818425,4.692454545454522
9.902,7.032099999999988,1.1589000000000118,4.740100000000009
9.921999999999999,7.472099999999992,0.6169000000000209,4.366000000000007
9.941999999999998,7.79224999999999,-0.19866666666661925,4.237291666666659
9.961999999999998,7.877249999999991,-0.6119999999999587,4.303124999999993
9.982,7.128545454545474,-0.7181818181818355,4.809727272727266
10.001999999999999,6.350000000000031,-0.02345454545458263,5.038999999999994
10.021999999999998,5.421818181818241,1.2656363636362715,5.1471818181818145
10.041999999999998,5.121259259259292,1.8753333333332662,5.131703703703706
10.062,4.531545454545451,3.2787272727272807,3.8362727272727453
10.081999999999999,4.7062,2.574500000000034,3.107300000000014
10.101999999999999,4.5780000000000545,1.1842222222224061,2.5435555555556477
10.121999999999998,4.154000000000033,-0.2769999999998841,1.724000000000071
10.142,3.6892000000000134,-1.4101999999999706,1.2994000000000059
10.161999999999999,2.5208000000000217,-2.8761000000000037,1.5212999999999886
10.181999999999999,1.781300000000019,-2.494800000000026,1.9658999999999858
10.201999999999998,1.2125000000000843,-1.6861000000001014,2.3886999999999405
10.222,0.44855555555558124,-0.8238888888889114,2.917999999999986
10.241999999999999,-0.02687499999998577,-0.42975000000000996,3.1324999999999976
10.261999999999999,-0.23999999999998103,-0.28100000000001324,3.1699999999999964
10.281999999999998,-1.2279999999999935,-0.6033333333333,1.5678333333333863
10.301999999999998,-1.434454545454505,-1.2306363636363258,0.6574545454546313
10.322,-1.674799999999998,-1.5105999999999826,-0.08199999999995737
10.341999999999999,-1.7150588235294084,-1.6889999999999936,-0.5311764705882185
10.361999999999998,-1.7568235294117596,-1.7689999999999904,-0.7464705882352682
10.381999999999998,-2.6079090909090294,-1.8560909090909103,-1.5444545454545269
10.402,-3.0991999999999824,-1.7718000000000045,-1.6681999999999961
10.421999999999999,-3.2515789473684187,-1.7851052631578894,-1.7209999999999972
10.441999999999998,-3.2745806451612895,-1.897741935483867,-1.739161290322579
10.461999999999998,-3.338999999999904,-2.0389999999998385,-1.7749999999999733
10.482,-3.6990999999999925,-2.246199999999999,-1.8628000000000022
10.501999999999999,-3.9397272727272683,-2.3059090909090916,-1.7572727272727309
10.521999999999998,-4.022750000000019,-2.2152083333333352,-1.626208333333342
10.541999999999998,-3.8577500000000167,-2.1993750000000016,-1.5503750000000074
10.562,-2.1984000000000137,-3.1072999999999853,-1.664799999999982
10.581999999999999,-1.9537272727272716,-3.413272727272728,-2.3888181818181624
10.601999999999999,-2.028133333333313,-3.4506666666666717,-2.956466666666634
10.621999999999998,-2.467727272727192,-3.050000000000122,-3.189000000000025
10.642,-2.9456249999999975,-2.2593750000000052,-2.9818125000000024
10.661999999999999,-3.1868749999999917,-1.7581250000000166,-2.7874375000000065
10.681999999999999,-1.3870000000000873,0.8483999999999934,-0.23760000000001727
10.701999999999998,0.02199999999992397,0.7004000000000324,-0.18739999999997198
10.721999999999998,0.8759999999999052,0.24688888888896732,-0.4829999999999858
10.741999999999999,1.3055384615384502,-0.14107692307691044,-0.5380769230769223
10.761999999999999,1.4881025641025505,-0.3462051282051128,-0.549871794871794
10.781999999999998,2.9016999999999795,-1.7510000000000137,0.18899999999991224
10.801999999999998,2.9468888888888913,-1.3988888888889957,0.9447777777776907
10.822,2.852,-0.545,1.507
10.841999999999999,2.7493142857142865,0.1594857142857031,1.7462857142857116
10.861999999999998,2.7298857142857154,0.43491428571426755,1.8177142857142812
10.881999999999998,2.9298888888888297,1.7042222222221932,2.613999999999941
10.902,3.4769090909090625,1.8619090909090925,2.979454545454537
10.921999999999999,4.098090909090884,1.7372727272727415,3.1414545454545415
10.941999999999998,4.25106896551724,1.6037931034482815,3.15696551724138
10.961999999999998,3.8944545454545767,1.2530000000000232,2.8918181818182007
10.982,3.6210000000000067,1.0114545454545505,2.7307272727272753
11.001999999999999,3.621199999999987,0.9020000000000006,2.8041999999999825
11.021999999999998,3.8659999999999783,0.9889999999999866,3.143999999999969
11.041999999999998,4.112393939393928,1.1981212121212026,3.3730606060605974
11.062,4.231181818181817,1.3023636363636355,3.4651818181818177
11.081999999999999,4.995199999999977,1.4658000000000093,3.5492000000000075
11.101999999999999,5.420599999999974,1.2556000000000205,3.4498000000000073
11.121999999999998,5.901249999999974,0.8692500000000272,3.3347499999999997
11.141999999999998,6.098466666666652,0.6253000000000224,3.359733333333329
11.161999999999999,6.461999999999561,-0.016999999999186444,3.44399999999992
11.181999999999999,7.034399999999996,-1.124000000000009,3.8321999999999807
11.201999999999998,7.059181818181829,-0.7639090909091497,4.170727272727258
11.221999999999998,6.829187500000037,0.1293124999998878,4.35962499999998
11.241999999999999,6.221714285714295,1.5492857142856926,4.605428571428568
11.261999999999999,5.751545454545463,2.9879999999999836,4.811818181818177
11.281999999999998,5.612400000000005,2.8504000000000493,4.727400000000014
11.301999999999998,5.391666666666769,1.7437777777779702,4.410444444444519
11.322,4.750333333333348,0.575333333333359,3.743333333333354
11.341999999999999,4.107333333333355,-0.6829999999999675,2.985333333333348
11.361999999999998,3.857076923076949,-1.0491538461538086,2.819692307692325
11.381999999999998,1.21511111111126,-2.6704444444444673,1.852555555555559
11.402,0.1984000000000387,-2.2034000000000424,1.9089999999999898
11.421999999999999,-0.41899999999998294,-1.3810000000000473,2.129399999999995
11.441999999999998,-0.5589999999999985,-0.880612903225825,2.1557741935483885
11.461999999999998,-0.5899999999999644,-0.10600000000046539,2.09000000000008
11.482,-0.7125454545454549,0.11709090909090919,1.5580000000000045
11.501999999999999,-0.645400000000002,0.0902000000000047,0.9232000000000424
11.521999999999998,-0.66079999999999,-0.06779999999999052,0.15360000000003965
11.541999999999998,-0.795294117647051,-0.17429411764705421,-0.23682352941175258
11.561999999999998,-0.8941176470588117,-0.23311764705881644,-0.39152941176468725
11.581999999999999,-1.632090909090891,-0.6162727272727228,-0.9165454545454514
11.601999999999999,-1.856285714285707,-0.7961428571428342,-0.9352857142857154
11.621999999999998,-2.1392222222221915,-1.1765555555555451,-0.8877777777777803
11.641999999999998,-2.3866285714285618,-1.3059714285714186,-0.8941714285714254
11.661999999999999,-2.4860571428571396,-1.4105428571428538,-0.9267428571428561
11.681999999999999,-3.2809999999999797,-2.1676666666666518,-1.2861111111110926
11.701999999999998,-3.5533999999999906,-2.309599999999983,-1.52619999999999
11.721999999999998,-3.614800000000019,-2.4960000000000155,-1.6281999999999968
11.741999999999999,-3.473058823529419,-2.4548235294117644,-1.6620588235294098
11.761999999999999,-3.3248235294117703,-2.4595294117647057,-1.7038235294117632
11.781999999999998,-2.1152222222222328,-3.125444444444442,-2.2618888888888846
11.801999999999998,-1.871636363636378,-3.2500000000000098,-2.4082727272727036
11.822,-1.9344999999999737,-2.6795000000001017,-2.5928000000000058
11.841999999999999,-2.133633333333323,-1.8896333333333757,-2.4840666666666773
11.861999999999998,-2.0772727272727955,0.12409090909085622,-1.4956363636364225
11.881999999999998,-0.8393000000001053,0.6721999999999881,-0.6304000000000467
11.902,0.364,0.6465000000000001,-0.28375
11.921999999999999,1.4659090909090216,0.3102727272727664,-0.07063636363637593
11.941999999999998,2.0389999999999757,-0.06785714285712219,0.034285714285709555
11.961999999999998,2.754249999999994,-0.9504999999999714,0.3734999999999808
11.981999999999998,2.6558000000000392,-1.1373000000000189,0.6013999999999748
12.001999999999999,2.238454545454575,-0.7005454545455023,0.7803636363636343
12.021999999999998,1.8240000000000218,0.024199999999957804,0.7213999999999982
12.041999999999998,1.59200000000001,0.49522222222219936,0.7847777777777704
12.061999999999998,1.5299999999999758,1.3119999999999585,1.438999999999951
12.081999999999999,1.7837999999999752,1.6719999999999835,1.906999999999976
12.101999999999999,2.283333333333304,1.864111111111108,2.232666666666658
12.121999999999998,2.6307499999999626,1.9334999999999833,2.346500000000008
12.141999999999998,2.8082333333333227,1.9738666666666689,2.277366666666675
12.161999999999999,3.116399999999992,1.6052000000000148,1.9752000000000014
12.181999999999999,3.277333333333315,1.371444444444462,2.1158888888888585
12.201999999999998,3.6581111111110967,1.0940000000000047,2.712555555555527
12.221999999999998,4.048294117647041,1.0531176470588242,3.532882352941146
12.241999999999999,4.35576923076922,0.9816923076923111,3.987769230769218
12.261999999999999,4.610589743589739,0.8742051282051303,4.219641025641023
12.281999999999998,4.686487179487174,0.8362564102564128,4.276051282051278
12.301999999999998,5.074099999999995,0.5664000000000147,4.615699999999999
12.322,5.082272727272723,0.35036363636364837,4.541181818181824
12.341999999999999,5.230370370370358,0.0702592592592797,4.462518518518522
12.361999999999998,5.813666666666659,-1.1046666666666567,4.468666666666645
12.381999999999998,5.859600000000007,-0.9987000000000417,4.787999999999971
12.401999999999997,5.628428571428638,-0.18185714285729937,5.088142857142828
12.421999999999999,5.181181818181837,0.7760909090908745,5.208636363636364
12.441999999999998,4.163777777777801,2.488555555555537,4.9094444444444765
12.461999999999998,3.8355000000000077,2.502815789473695,4.358026315789489
12.481999999999998,3.74550000000001,2.3749210526315934,4.1648684210526525
12.501999999999999,2.893500000000033,0.7677000000000833,3.0070000000000463
12.521999999999998,2.582000000000023,-0.13899999999992596,2.5970000000000284
12.541999999999998,2.1538000000000226,-0.8241999999999746,2.4186000000000076
12.561999999999998,1.140000000000078,-1.6192499999999896,2.1367500000000126
12.581999999999999,0.6098000000000252,-1.4392000000000256,2.097599999999997
12.601999999999999,0.18618181818184038,-0.724090909090988,2.2644545454545213
12.621999999999998,0.06781250000000555,-0.13918750000004354,2.4939999999999793
12.641999999999998,-0.028230769230762877,0.3256923076922898,2.7658461538461436
12.661999999999999,-0.32536363636362264,0.6824545454545515,2.4647272727273237
12.681999999999999,-0.5137999999999878,0.4594000000000243,1.6170000000000704
12.701999999999998,-0.602499999999996,0.15070000000002415,0.7168000000000758
12.721999999999998,-0.6779999999999922,-0.10599999999997937,-0.039999999999941915
12.741999999999999,-0.8602777777777737,-0.32549999999999674,-0.5482222222222142
12.761999999999999,-1.0387499999999865,-0.6187499999999889,-0.8242500000000028
12.781999999999998,-1.21959999999999,-0.7909999999999793,-0.7568000000000055
12.801999999999998,-1.3159285714285607,-1.0944285714285424,-0.766071428571426
12.821999999999997,-1.4679999999999742,-1.4696363636363037,-0.8448181818181635
12.841999999999999,-1.7616249999999856,-2.1248749999999768,-1.1641249999999872
12.861999999999998,-2.225545454545403,-2.782727272727222,-1.4674545454545156
12.881999999999998,-2.9452727272726733,-2.986363636363665,-1.8700909090908757
12.901999999999997,-3.0706666666667273,-2.739333333333315,-2.1179999999999835
12.921999999999999,-2.5001333333333644,-3.0194666666666485,-2.2458666666666605
12.941999999999998,-1.707444444444488,-3.70011111111107,-2.0871111111111227
12.961999999999998,-1.4443999999999524,-4.6382999999999805,-1.8694999999999993
12.981999999999998,-2.14136363636353,-4.540545454545546,-2.0508181818181392
13.001999999999999,-3.2110909090908732,-3.092818181818259,-2.3896363636363565
13.021999999999998,-3.7939999999999823,-1.4221333333333972,-2.420800000000002
13.041999999999998,-3.61627272727276,0.2100454545453864,-2.0167272727273042
13.061999999999998,-1.8358181818183597,0.9381818181818322,-0.9776363636364014
13.081999999999999,0.22329999999984956,0.7718000000000182,-0.7141999999999945
13.101999999999999,1.9471999999998735,0.3716000000000673,-1.0503999999999296
13.121999999999998,2.42640000000004,-0.31599999999992967,-1.7753999999999253
13.141999999999998,2.008652173913092,-0.6911304347825804,-2.134521739130411
13.161999999999999,0.7047272727272992,-1.1705454545454612,-2.0210909090909404
13.181999999999999,0.13027272727275085,-0.5999090909091748,-1.0098181818182836
13.201999999999998,0.16899999999996485,0.2270999999999429,0.07099999999991208
13.221999999999998,0.5370666666666276,0.7681999999999469,0.919666666666582
13.241999999999999,0.9971874999999987,1.1654374999999995,1.584968749999999
13.261999999999999,1.885714285714264,1.4922857142857096,2.0934285714285563
13.281999999999998,2.3105454545454207,1.5450909090909066,2.32763636363635
13.301999999999998,2.7583999999999462,1.573199999999995,2.520799999999972
13.321999999999997,3.248444444444358,1.6522222222222158,2.7593333333333074
13.341999999999999,3.5970833333333174,1.6870416666666646,2.8882499999999927
13.361999999999998,4.054199999999977,1.7431999999999983,3.3535999999999597
13.381999999999998,4.1536,1.7819999999999916,3.7001999999999704
13.401999999999997,4.155399999999998,1.757600000000012,3.8413999999999913
13.421999999999999,4.174727272727269,1.554727272727287,3.948090909090904
13.441999999999998,4.2397499999999955,1.3021666666666805,4.02395833333333
13.461999999999998,4.5935999999999675,0.6450000000000352,4.119999999999988
13.481999999999998,4.882999999999969,0.42400000000002325,4.199090909090911
13.501999999999999,4.9136666666666775,0.23000000000001658,4.084000000000012
13.521999999999998,5.004333333333311,-0.3723333333332449,3.909000000000007
13.541999999999998,5.0622000000000025,-0.7811333333333166,3.909266666666663
13.561999999999998,5.044399999999982,-0.3600000000000906,4.249999999999984
13.581999999999999,4.916800000000006,0.8695999999999751,4.3632
13.601999999999999,4.842999999999988,1.9707499999999343,4.167000000000037
13.621999999999998,5.003499999999968,2.5502499999999904,3.7743750000000413
13.641999999999998,5.140388888888885,2.4933333333333447,3.611138888888893
13.661999999999999,5.194833333333333,2.3600000000000008,3.5605833333333337
13.681999999999999,4.840900000000038,0.3497000000001089,2.8870000000000413
13.701999999999998,4.1518000000000965,-1.11879999999986,2.4850000000000043
13.721999999999998,3.2224444444445877,-2.0271111111110405,2.6357777777777343
13.741999999999997,2.630906250000029,-2.248437499999996,2.797468749999994
13.761999999999999,1.8080000000009397,-2.1770000000002008,2.932999999999872
13.781999999999998,0.27180000000008697,-0.8856000000000877,2.7996000000000256
13.801999999999998,-0.41124999999990774,-0.23625000000008492,2.5505000000000524
13.821999999999997,-0.8767777777777277,0.13911111111107985,2.2146666666667367
13.841999999999999,-1.0364074074074026,0.20914814814814858,1.893962962962981
13.861999999999998,-1.2639999999999798,-0.13599999999997406,0.6900000000000778
13.881999999999998,-1.4513999999999796,-0.3645999999999661,-0.17379999999990686
13.901999999999997,-1.7441999999999642,-0.6625999999999789,-0.9835999999999288
13.921999999999999,-2.000749999999993,-0.7123750000000004,-1.3537499999999918
13.941999999999998,-2.1712499999999904,-0.6402500000000064,-1.4686250000000032
13.961999999999998,-2.4919999999999587,-0.6489090909090734,-1.5063636363636284
13.981999999999998,-2.756727272727257,-0.9451818181817682,-1.6073636363636283
14.001999999999999,-2.8893999999999993,-1.3955999999999902,-1.6699999999999988
14.021999999999998,-2.883333333333335,-1.8420666666666432,-1.7516666666666616
14.041999999999998,-2.8127619047619095,-2.398523809523772,-1.9051428571428457
14.061999999999998,-2.891400000000001,-2.530800000000044,-2.01820000000001
14.081999999999999,-2.5727272727272967,-2.4905454545454346,-1.88027272727273
14.101999999999999,-2.007777777777804,-3.2057777777777248,-1.8965555555555451
14.121999999999998,-1.9266666666666372,-3.6969999999999894,-2.0466666666666526
14.141999999999998,-2.0344736842105244,-3.7827368421052543,-2.1389473684210447
14.161999999999997,-2.046578947368419,-3.8537894736841993,-2.203157894736832
14.181999999999999,-2.8304999999999825,-1.693000000000082,-2.4245000000000196
14.201999999999998,-2.6706000000000962,-0.28620000000009316,-1.6988000000001189
14.221999999999998,-1.934500000000071,0.11669999999997857,-0.9363000000000652
14.241999999999997,-0.7304888888889234,0.18382222222222452,-0.1864000000000115
14.261999999999999,-0.3589333333333421,0.15893333333333393,-0.06240000000000295
14.281999999999998,2.8105454545454123,-0.862999999999968,-0.51172727272724
14.301999999999998,2.9584000000000414,-1.0866000000000087,-0.847399999999989
14.321999999999997,2.661000000000023,-0.9460000000000146,-0.8490000000000036
14.341999999999999,2.515074074074078,-0.47814814814816675,-0.5449259259259379
14.361999999999998,2.196090909090928,1.0604545454544843,0.43927272727268013
14.381999999999998,2.124909090909071,1.829636363636294,1.1798181818180937
14.401999999999997,2.392124999999963,2.277999999999968,1.777999999999948
14.421999999999999,2.631187499999988,2.409562499999996,2.0364374999999892
14.441999999999998,2.803428571428568,2.4392500000000004,2.122821428571427
14.461999999999998,2.80700000000001,2.045000000000055,2.1710000000000043
14.481999999999998,2.8329999999999913,1.634666666666716,2.2079999999999873
14.501999999999999,3.0110909090909,1.1141818181818326,2.5960909090908917
14.521999999999998,3.2339999999999933,0.7866250000000092,3.032624999999987
14.541999999999998,3.5011428571428445,0.6442857142857132,3.6032857142856876
14.561999999999998,3.838499999999986,0.9444999999999523,4.368999999999953
14.581999999999997,3.820749999999995,1.3008333333332853,4.510583333333331
14.601999999999999,4.0739090909090585,1.4182727272727382,4.509181818181819
14.621999999999998,4.419999999999973,1.279000000000012,4.627999999999985
14.641999999999998,4.778916666666648,1.0313333333333483,4.850999999999993
14.661999999999997,5.443636363636308,0.44754545454552014,4.586545454545501
14.681999999999999,5.94679999999995,-0.24419999999991623,4.216400000000027
14.701999999999998,6.170222222222245,-0.8572222222222067,4.193111111111077
14.721999999999998,5.982375000000028,-0.6790625000000422,4.452624999999963
14.741999999999997,5.936000000000006,-0.3584285714285951,4.583571428571426
14.761999999999999,5.8960000000000035,-0.20300000000001384,4.598999999999998
14.781999999999998,4.715200000000046,2.6097999999999013,4.531800000000007
14.801999999999998,4.414363636363648,3.0526363636363762,4.318909090909127
14.821999999999997,4.4307272727272595,2.4716363636364784,3.777000000000092
14.841999999999999,4.4626875,1.917625000000013,3.3306875000000105
14.861999999999998,4.330857142857163,0.06942857142881483,1.9375714285715666
14.881999999999998,3.8505000000000846,-1.5207857142856067,1.208428571428596
14.901999999999997,2.732181818181938,-2.479636363636309,1.3139999999999563
14.921999999999999,1.8660909090909517,-2.5352727272727615,1.7858181818181538
14.941999999999998,1.1197272727273129,-1.7580909090909518,1.9487272727272802
14.961999999999998,0.7047777777778059,-1.318444444444474,1.9010000000000018
14.981999999999998,-0.3634999999999198,-0.27900000000005865,2.141999999999954
15.001999999999997,-0.8144999999999614,0.034499999999984814,2.3125000000000155
15.021999999999998,-1.0953636363636219,0.03318181818182455,1.8859090909091147
15.041999999999998,-1.2855757575757507,-0.16569696969695372,1.346969696969731
15.061999999999998,-1.335878787878781,-0.2844848484848319,1.09484848484852
15.081999999999997,-1.799499999999969,-0.8714999999999778,-0.20699999999989235
15.101999999999999,-2.089249999999971,-0.9467499999999968,-0.7759999999999774
15.121999999999998,-2.3124999999999805,-1.075499999999981,-1.044499999999955
15.141999999999998,-2.487166666666619,-1.115999999999974,-1.3921666666665669
15.161999999999997,-2.6838181818181654,-1.3553636363635992,-1.9859090909090247
15.181999999999999,-2.8864999999999905,-1.6469999999999863,-2.4874999999999776
15.201999999999998,-3.101499999999971,-1.9064999999999948,-2.903999999999972
15.221999999999998,-3.3934999999999746,-1.9609999999999852,-3.094499999999986
15.241999999999997,-3.4624000000000095,-2.07439999999999,-3.1044000000000134
15.261999999999999,-3.2767500000000074,-2.1789999999999963,-2.8936250000000086
15.281999999999998,-2.158454545454623,-3.0043636363635486,-2.1391818181818487
15.301999999999998,-1.7000000000000064,-3.754399999999974,-2.0455999999999968
15.321999999999997,-1.621500000000034,-3.793999999999981,-2.0954999999999835
15.341999999999999,-1.3961666666666641,-3.8176666666667005,-2.1505000000000094
15.361999999999998,-1.689538461538445,-2.2608461538462277,-1.5532307692308038
15.381999999999998,-1.9789090909091018,-0.1392727272729024,-0.5080000000000903
15.401999999999997,-1.4123636363637715,1.0709999999999322,0.13599999999995882
15.421999999999997,0.4426363636360955,1.2207272727272975,0.00045454545461545703
15.441999999999998,2.0300769230768756,1.0363846153846277,-0.6683846153845827
15.461999999999998,2.9089999999999674,0.47450000000005965,-1.5574999999999504
15.481999999999998,3.123500000000006,-0.4834999999998554,-1.9814999999999694
15.501999999999997,2.8937272727273102,-1.2736363636363037,-1.798363636363694
15.521999999999998,2.5042000000000506,-1.3928000000000453,-0.9796000000001122
15.541999999999998,1.9920000000000448,-0.5985000000001266,0.12499999999986039
15.561999999999998,1.8140000000000016,0.2829999999999603,1.248315789473627
15.581999999999997,1.8048181818181737,1.2116363636362795,2.438909090909018
15.601999999999999,2.065857142857123,1.6114285714285674,2.828714285714272
15.621999999999998,2.3674545454545313,1.7231818181818028,2.9993636363636327
15.641999999999998,2.504899999999991,1.7565000000000084,2.924500000000011
15.661999999999997,2.694444444444418,1.5382222222222417,2.7712222222222267
15.681999999999999,2.899499999999991,1.4740000000000049,2.7879999999999985
15.701999999999998,3.0176363636363654,1.3137272727272822,2.7894545454545425
15.721999999999998,2.9312727272727366,1.2329090909090912,2.951818181818164
15.741999999999997,2.9084285714285616,1.2661428571428575,3.069714285714282
15.761999999999999,3.097333333333327,1.347666666666664,3.176666666666661
15.781999999999998,3.2021818181818094,1.4534545454545436,3.34963636363635
15.801999999999998,3.4566666666666226,1.2092222222222802,3.4148888888888838
15.821999999999997,3.7846666666666127,0.6812222222223187,3.386777777777788
15.841999999999997,4.051727272727255,0.19463636363639833,3.409818181818159
15.861999999999998,4.434333333333275,-0.1724444444444205,3.919444444444357
15.881999999999998,4.871599999999966,-0.4697999999999677,4.455399999999977
15.901999999999997,5.178999999999977,-0.9029999999999727,4.822999999999915
15.921999999999997,5.359727272727219,-0.6396363636364324,5.475999999999903
15.941999999999998,5.6361249999999945,-0.07012500000002436,5.900437499999992
15.961999999999998,5.620724137931043,0.928931034482724,6.275689655172406
15.981999999999998,5.513137931034493,1.3820344827585775,6.384655172413782
16.001999999999995,5.062454545454597,2.9943636363635986,6.125636363636537
16.022,4.798000000000023,2.5565454545455033,5.184909090909165
16.041999999999994,4.491652173913086,1.8184347826088458,4.220652173913193
16.061999999999998,4.3446956521739315,1.307130434782672,3.7136956521739757
16.081999999999997,4.097894736842134,-0.5895263157893587,2.3215789473684865
16.101999999999997,3.638260869565257,-1.8320434782607726,2.0823478260869543
16.121999999999996,2.4630000000001644,-3.056000000000001,2.57849999999995
16.141999999999996,1.5352000000001718,-2.6808000000001204,2.905399999999924
16.161999999999995,0.9525000000000409,-2.071928571428635,3.1557857142856993
16.181999999999995,0.7375000000000627,-1.7383571428572402,3.2350714285714055
16.201999999999995,-0.5151999999997857,-0.5148000000001176,2.4640000000001847
16.221999999999998,-1.060999999999943,-0.2725000000000133,1.877500000000095
16.241999999999997,-1.2887692307692173,-0.32853846153843963,1.2290769230769898
16.261999999999997,-1.343729729729731,-0.5548648648648496,0.6397567567567901
16.281999999999996,-1.3361621621621633,-0.6510810810810663,0.42894594594597835
16.301999999999996,-1.8729999999998743,-1.3715999999999675,-0.8023999999999045
16.321999999999996,-2.4184999999998342,-1.5184999999999718,-1.1844999999999195
16.341999999999995,-2.96466666666659,-1.4683333333333568,-1.4399999999999726
16.361999999999995,-3.3255714285714135,-1.397285714285714,-1.5874285714285599
16.381999999999994,-3.37080952380951,-1.398238095238095,-1.6221904761904655
16.401999999999997,-3.2747142857143094,-1.8139999999999417,-1.9402857142856829
16.421999999999997,-3.2511818181818084,-2.066727272727251,-2.1675454545454222
16.441999999999997,-3.3703999999999965,-1.9584000000000665,-2.36659999999997
16.461999999999996,-3.2776216216216425,-1.8137297297297255,-2.3145135135135324
16.481999999999996,-3.1841081081081284,-1.8326486486486446,-2.2285675675675862
16.501999999999995,-1.6261818181820102,-2.9301818181816324,-1.3728181818182223
16.521999999999995,-1.2223333333333208,-3.2498888888889517,-1.4535555555554747
16.541999999999994,-1.1725000000000563,-3.1329999999999787,-2.0084999999998363
16.561999999999998,-1.0622812499999952,-2.981375000000013,-2.5314062499999954
16.581999999999997,-1.1554062499999933,-2.718875000000019,-2.6170312499999935
16.601999999999997,-1.4032000000001357,0.4293999999996956,-1.498600000000234
16.621999999999996,-0.6605714285715323,1.2681428571428226,-0.5508571428572308
16.641999999999996,0.5676666666664459,1.121333333333413,-0.15299999999998934
16.661999999999995,1.4748181818179982,0.765181818181914,-0.4892727272726023
16.681999999999995,2.04951724137926,0.2440000000000789,-1.007241379310277
16.701999999999995,2.2281379310344294,-0.03599999999991599,-1.2479310344826864
16.721999999999994,1.8740000000000947,-1.2688888888887906,-1.2850000000001611
16.741999999999997,1.586437500000026,-1.2685625000000436,-0.43200000000008953
16.761999999999997,1.3813333333333395,-0.6248333333333831,0.30349999999997246
16.781999999999996,1.3457777777777862,-0.3442777777778442,0.45849999999996327
16.801999999999996,1.4161999999999422,1.3073999999998882,1.34489999999995
16.821999999999996,1.7719090909089998,1.6781818181817583,1.453999999999995
16.841999999999995,2.1605384615383962,1.815461538461534,1.3986153846153881
16.861999999999995,2.4578333333332987,1.779233333333345,1.566799999999968
16.881999999999994,2.5744999999999587,1.739900000000014,1.6747999999999617
16.901999999999997,3.188999999999949,1.3180000000000298,2.2553999999999723
16.921999999999997,3.7393333333332164,1.0220000000000509,2.6006666666666036
16.941999999999997,4.240705882352893,0.8172352941176632,2.975941176470532
16.961999999999996,4.652970588235279,0.7457352941176479,3.5474117647058616
16.981999999999996,4.770029411764679,0.7392647058823544,3.7085882352940818
17.001999999999995,5.265090909090884,1.1478181818181326,4.184818181818159
17.021999999999995,5.458909090909017,1.3544545454545163,4.349909090909027
17.041999999999994,5.794499999999939,1.2750000000000312,4.434999999999995
17.061999999999998,5.965093749999998,1.1257500000000058,4.396437500000004
17.081999999999997,5.988218749999997,1.070750000000007,4.357687500000005
17.101999999999997,6.468199999999979,-0.32349999999981927,3.7792000000000043
17.121999999999996,6.436545454545492,-0.9511818181817815,3.915363636363594
17.141999999999996,6.355299999999979,-0.8016000000000734,4.315399999999896
17.161999999999995,6.28518750000003,-0.3755625000000513,4.581937499999989
17.181999999999995,6.105812500000034,-0.06743750000005816,4.645062499999987
17.201999999999995,5.037400000000051,2.712799999999649,4.864999999999989
17.221999999999994,4.947399999999952,3.3129999999999526,5.0117999999998695
17.241999999999997,5.0070769230769345,2.7849230769231825,5.234307692307687
17.261999999999997,4.749090909090931,1.8438181818182304,4.920818181818205
17.281999999999996,4.563636363636396,1.4347272727273455,4.731727272727306
17.301999999999996,3.470181818181949,-1.5514545454543276,3.062727272727412
17.321999999999996,2.7525833333335163,-2.314333333333201,2.3795833333334806
17.341999999999995,2.0596153846155043,-2.4485384615385075,1.9423076923077358
17.361999999999995,1.4574594594595123,-2.0625405405405917,1.9034864864864605
17.381999999999994,1.2644864864865384,-1.8755135135135639,1.9991621621621367
17.401999999999997,0.0950909090909402,-0.6063636363636672,2.5306363636363716
17.421999999999997,-0.25845454545452506,-0.37436363636364456,2.139545454545501
17.441999999999997,-0.45779999999998955,-0.3699999999999929,1.4921333333333862
17.461999999999996,-0.6156764705882238,-0.5237647058823429,0.8062352941176806
17.481999999999996,-0.703323529411745,-0.6002352941176299,0.5497647058824106
17.501999999999995,-1.2390909090908409,-1.150727272727249,-0.6840909090908136
17.521999999999995,-1.6740999999998964,-1.1892999999999962,-1.0109999999999362
17.541999999999994,-2.091999999999913,-1.216500000000002,-1.2694999999999297
17.561999999999994,-2.5345151515151114,-1.174000000000006,-1.555878787878754
17.581999999999997,-2.670272727272703,-1.1540000000000035,-1.6698181818181617
17.601999999999997,-3.2148181818181363,-1.562909090909039,-2.15145454545449
17.621999999999996,-3.319199999999999,-1.9391999999998946,-2.443599999999925
17.641999999999996,-3.3063999999999867,-2.4766666666665986,-2.800333333333283
17.661999999999995,-3.588366666666622,-2.5001000000000495,-3.048266666666659
17.681999999999995,-3.763699999999966,-2.306100000000038,-3.077599999999994
17.701999999999995,-2.1478000000004056,-2.569999999999821,-1.9198000000002011
17.721999999999994,-1.2780000000001246,-3.25415384615368,-1.8618461538460835
17.741999999999997,-1.3639166666666513,-3.600166666666652,-2.357416666666615
17.761999999999997,-1.3505999999999592,-3.5465000000000595,-2.7032999999999654
17.781999999999996,-1.8401538461538107,-2.758730769230835,-2.7185000000000072
17.801999999999996,-2.6009999999999227,-0.9527500000005842,-2.1345000000003718
17.821999999999996,-2.0253636363639105,0.6123636363634302,-0.5343636363639779
17.841999999999995,-0.6749230769234069,0.9806153846153842,0.2975384615383867
17.861999999999995,0.6020967741934252,0.9400000000000107,0.22432258064519953
17.881999999999994,1.0595161290321429,0.9000000000000101,0.08238709677422931
17.901999999999997,2.54499999999999,-0.13609090909086108,-1.104272727272677
17.921999999999997,2.3204000000000664,-0.7319999999999169,-1.424
17.941999999999997,1.8290833333333865,-0.9711666666666663,-0.9940833333334101
17.961999999999996,1.4539545454545644,-0.651818181818227,-0.42313636363639495
17.981999999999996,1.246142857142874,0.24171428571404166,0.11142857142844419
18.001999999999995,1.189363636363646,0.8966363636362689,0.5490909090908214
18.021999999999995,1.290799999999947,1.2562999999999533,0.8161999999999804
18.041999999999994,1.6186363636362908,1.4383636363635903,0.850454545454506
18.061999999999994,1.9696764705881897,1.4975000000000191,0.9531176470587986
18.081999999999997,2.1373235294117507,1.427500000000006,1.0448823529411688
18.101999999999997,3.0013636363635836,1.0519090909091244,1.8509999999999225
18.121999999999996,3.338454545454483,0.9300000000000155,2.194818181818156
18.141999999999996,3.705999999999932,0.95199999999999,2.2609999999999855
18.161999999999995,4.114333333333292,1.0321111111110988,2.515518518518478
18.181999999999995,4.28099999999997,1.0809999999999913,2.676999999999971
18.201999999999995,5.391399999999742,1.4035999999999909,3.4275999999998543
18.221999999999994,6.409699999999682,1.2441000000000926,3.816899999999901
18.241999999999997,7.202181818181761,0.9537272727273085,4.169454545454523
18.261999999999997,7.565479999999997,0.7347200000000086,4.296319999999992
18.281999999999996,7.548000000000135,0.5690000000003943,4.354999999999976
18.301999999999996,7.06011111111118,-0.31988888888871664,3.5546666666667783
18.321999999999996,6.707000000000079,-0.9229999999999537,3.304000000000009
18.341999999999995,6.541600000000002,-0.8016000000000741,3.3735999999999375
18.361999999999995,6.290000000000094,0.11439999999971345,3.9246999999998806
18.381999999999994,5.830500000000544,1.346749999998758,4.21174999999997
18.401999999999994,5.447241379310399,2.3129655172412154,4.131620689655215
18.421999999999997,5.11730000000001,3.3058999999999847,4.167400000000057
18.441999999999997,5.1755999999999895,2.9400000000001136,3.909600000000037
18.461999999999996,5.2040624999999965,2.0831875000001583,3.571812500000062
18.481999999999996,4.9310000000001,0.3778181818184503,2.8140000000001164
18.501999999999995,4.332200000000121,-1.1793999999996667,2.227000000000102
18.521999999999995,3.4085555555559153,-2.3502222222219684,2.0157777777778065
18.541999999999994,2.401300000000338,-2.5876000000000285,2.173199999999922
18.561999999999994,1.5031000000002814,-2.206800000000193,2.432899999999847
18.581999999999997,1.140000000000038,-1.9090666666667007,2.6216999999999806
18.601999999999997,-0.04007692307680483,-0.9459230769231541,2.908923076923097
18.621999999999996,-0.7194545454544616,-0.5682727272727615,2.789090909090945
18.641999999999996,-1.0553636363636032,-0.56390909090907,2.19581818181833
18.661999999999995,-1.1853999999999756,-0.8025999999999249,1.2370000000002757
18.681999999999995,-1.2213913043478168,-0.9534347826086529,0.8316521739131493
18.701999999999995,-1.393222222222146,-1.3544444444443806,-0.2941111111108835
18.721999999999994,-1.650333333333291,-1.5029999999999681,-0.8489999999998945
18.741999999999997,-1.8633999999999693,-1.6131999999999875,-1.4343999999999366
18.761999999999997,-2.1323749999999286,-1.8217499999999331,-1.6906249999999394
18.781999999999996,-2.3422380952380517,-1.9642857142856887,-1.7967142857142688
18.801999999999996,-2.789285714285677,-2.2375714285713997,-2.203714285714232
18.821999999999996,-3.17518181818174,-2.399181818181794,-2.6419999999999377
18.841999999999995,-3.639999999999915,-2.474909090909086,-2.9095454545454205
18.861999999999995,-4.1135999999999076,-2.4300000000000215,-2.9774000000000034
18.881999999999994,-4.308818181818139,-2.2867272727273154,-2.925545454545471
18.901999999999994,-3.6848000000003434,-2.4381999999998216,-2.5886000000000444
18.921999999999997,-2.4056000000001796,-3.0050999999999384,-2.613699999999977
18.941999999999997,-1.8800000000000503,-2.9758181818182137,-3.0941818181817045
18.961999999999996,-1.5049090909091178,-3.0986363636363428,-3.849727272727196
18.981999999999996,-1.5577999999999768,-2.975500000000044,-4.0313999999999615
19.001999999999995,-2.4573999999998275,-1.3192000000004298,-3.091200000000322
19.021999999999995,-2.192600000000221,-0.03360000000031438,-1.6612000000004012
19.041999999999994,-0.98420000000037,0.7437999999998317,-0.7084000000001717
19.061999999999994,0.40859999999960384,0.651600000000104,-0.689399999999933
19.081999999999997,0.9086428571428165,0.5397857142857228,-0.7798571428571353
19.101999999999997,2.5484999999998514,-0.2417499999998849,-1.1487499999999558
19.121999999999996,3.1695999999999325,-0.8771999999999207,-1.2530000000000028
19.141999999999996,3.2582727272727623,-1.1372727272727159,-1.1139090909091167
19.161999999999995,2.926818181818266,-0.9578181818182756,-1.0147272727273045
19.181999999999995,2.4486000000001154,-0.14580000000023818,-0.8146000000000359
19.201999999999995,2.23740000000001,0.5587999999998318,-0.6186000000000671
19.221999999999994,2.3165454545454107,1.0584545454544088,0.07627272727242429
19.241999999999994,2.577333333333267,1.3616666666666097,1.0306666666664337
19.261999999999997,2.7654736842105088,1.43926315789474,1.5488421052631374
19.281999999999996,3.0059999999999905,1.3945555555555622,1.6883333333333421
19.301999999999996,2.8258181818182333,1.2544545454545797,1.4242727272727975
19.321999999999996,2.685200000000023,1.0576000000000414,1.0640000000000596
19.341999999999995,2.8007499999999546,0.9845000000000124,1.1739999999999657
19.361999999999995,3.177499999999843,0.9232500000000226,1.5877499999998221
19.381999999999994,3.4241052631578417,0.8837894736842192,1.8988947368420368
19.401999999999994,3.9557499999999073,0.7287500000000136,2.467749999999933
19.421999999999997,4.284599999999958,0.6836000000000065,2.6623999999999723
19.441999999999997,4.547699999999952,0.5533000000000388,2.8726999999999867
19.461999999999996,4.667333333333329,0.3923333333333509,2.891999999999994
19.481999999999996,4.6263333333333785,0.10000000000018061,3.1673333333331124
19.501999999999995,4.584699999999991,-0.47279999999983635,3.5843999999999268
19.521999999999995,4.857799999999917,-1.4637999999997464,4.051599999999862
19.541999999999994,5.115222222222105,-1.6182222222222704,4.482666666666556
19.561999999999994,5.297199999999952,-1.342800000000087,4.661299999999952
19.581999999999997,4.9579473684211015,0.09189473684197957,4.896736842105248
19.601999999999997,4.366888888888895,2.702777777777588,4.7393333333333585
19.621999999999996,4.690999999999928,3.496599999999951,4.919399999999962
19.641999999999996,5.235999999999935,3.36000000000004,4.568800000000087
19.661999999999995,5.511999999999931,2.5852500000003764,3.8050000000002906
19.681999999999995,5.469600000000019,2.0408000000001114,3.410400000000079
19.701999999999995,4.644333333333503,-0.3004444444439484,1.6283333333336452
19.721999999999994,3.7770000000002555,-1.560444444444205,1.4727777777777056
19.741999999999994,2.913818181818402,-1.9838181818181075,2.0067272727271215
19.761999999999997,2.005000000000306,-1.9122857142858116,2.6698571428569
19.781999999999996,1.586913043478352,-1.632434782608763,2.8931739130434337
19.801999999999996,0.4327142857143643,-0.8349285714286211,3.036214285714251
19.821999999999996,-0.2515714285711957,-0.4958571428572178,3.166142857142905
19.841999999999995,-0.6949999999999286,-0.4510909090908956,2.6312727272729064
19.861999999999995,-0.7477999999999937,-0.7101999999999068,1.6486000000003087
19.881999999999994,-0.8371578947368186,-0.9457368421052084,1.0094736842106697
19.901999999999994,-1.1685454545454164,-1.338999999999938,-0.11381818181798267
19.921999999999997,-1.5797999999999657,-1.5172999999999934,-1.004599999999951
19.941999999999997,-1.8617999999999437,-1.6291999999999731,-1.4214999999999285
19.961999999999996,-2.186636363636314,-1.6215454545454682,-1.8660909090908486
19.981999999999996,-2.3376956521738967,-1.6172608695652164,-2.0836086956521487
20.001999999999995,-2.5496363636363077,-1.8882727272726814,-2.7815454545453684
20.021999999999995,-2.939999999999911,-2.13299999999996,-2.9717499999999744
20.041999999999994,-3.232636363636326,-2.451545454545358,-3.0381818181818128
20.061999999999994,-3.4315454545454007,-2.5819090909091,-3.091636363636344
20.081999999999994,-3.427400000000007,-2.494400000000028,-3.125899999999991
20.101999999999997,-2.052000000000199,-2.857999999999935,-2.739750000000091
20.121999999999996,-1.0590909090909906,-3.1412727272727032,-2.1723636363636833
20.141999999999996,-0.6904545454545759,-2.9756363636363994,-1.989181818181834
20.161999999999995,-0.7265555555554729,-2.986777777777767,-2.049666666666613
20.181999999999995,-1.0757692307691424,-2.8596538461538805,-2.1910769230768885
20.201999999999995,-2.5988333333331903,-0.7840000000004145,-1.924000000000166
20.221999999999994,-2.38190909090929,0.4550909090906547,-1.0457272727275204
20.241999999999994,-1.376181818182008,0.8452727272726995,-0.4647272727273247
20.261999999999997,-0.6425000000001778,0.8102000000000379,-0.6125999999999427
20.281999999999996,-0.38170000000004295,0.705733333333352,-0.6794666666666561
20.301999999999996,0.7669999999998991,-0.18639999999988688,-1.1501999999999422
20.321999999999996,1.451299999999863,-0.8897999999998745,-1.522599999999915
20.341999999999995,1.5992000000000057,-1.2096999999999525,-1.7073999999999971
20.361999999999995,1.1760000000001491,-0.983100000000095,-1.2900000000001393
20.381999999999994,0.9515666666667272,-0.8164333333333793,-1.08023333333339
20.401999999999994,0.6477777777777626,0.3634444444442713,-0.13666666666681193
20.421999999999997,0.667727272727266,0.8309999999999509,0.5341818181817306
20.441999999999997,0.9817999999999112,1.126499999999956,1.2678999999998564
20.461999999999996,1.4112727272726797,1.277909090909074,1.812454545454475
20.481999999999996,1.5795384615384416,1.2833846153846165,2.0608461538461245
20.501999999999995,2.1333636363635753,1.0662727272727384,2.3674545454545384
20.521999999999995,2.5084545454543963,0.7643636363637603,2.276545454545493
20.541999999999994,2.9297999999999242,0.2510000000001045,2.2513999999999723
20.561999999999994,3.109999999999944,0.20383333333331508,2.4996666666665885
20.581999999999994,3.239159999999967,0.27983999999997905,2.695199999999949
20.601999999999997,3.6354999999999422,0.9050999999998943,3.5741999999998857
20.621999999999996,3.8960909090908507,1.4168181818180634,3.9219090909090135
20.641999999999996,4.1021538461538105,1.6359999999999877,4.202615384615334
20.661999999999995,4.54009090909078,1.5608181818182416,4.451272727272671
20.681999999999995,5.0703333333325915,1.2173333333338938,4.506999999999923
20.701999999999995,5.985499999999857,0.4987500000001254,4.511750000000021
20.721999999999994,6.742545454545312,-0.3663636363634444,4.351090909090919
20.741999999999994,7.124909090909032,-1.1953636363634348,4.802363636363447
20.761999999999997,6.8081000000001115,-1.0518000000001053,5.52569999999986
20.781999999999996,6.546913043478322,-0.7522608695652893,5.679913043478229
20.801999999999996,5.179900000000221,1.568999999999603,5.451800000000101
20.821999999999996,4.59400000000011,2.782909090908835,5.017181818181929
20.841999999999995,4.566999999999977,3.1609999999999956,4.75600000000003
20.861999999999995,5.1686999999998,2.6101000000002244,4.541900000000075
20.881999999999994,5.886999999998259,1.2240000000052011,3.788000000003311
20.901999999999994,5.668500000000116,-0.3483999999995792,2.6934000000002807
20.921999999999997,4.787000000000174,-1.8869999999997182,2.199000000000053
20.941999999999997,3.7066363636365205,-2.7999999999999043,2.235454545454524
20.961999999999996,2.2730000000002515,-2.873000000000042,2.5239999999999374
20.981999999999996,1.7288333333334625,-2.6488333333333864,2.5814999999999864
21.001999999999995,0.0717000000002157,-1.4038000000001838,2.391600000000049
21.021999999999995,-0.5649999999998608,-0.9655000000000725,1.9530000000001273
21.041999999999994,-0.8937692307691825,-0.7801538461538693,1.323000000000198
21.061999999999994,-0.9761999999999463,-0.7543999999999871,0.47120000000041884
21.081999999999994,-1.0506499999999839,-0.8377499999999796,-0.018649999999897637
21.101999999999997,-1.4596999999998879,-1.1935999999999705,-1.4237999999997866
21.121999999999996,-1.9419999999999096,-1.283272727272715,-2.256272727272557
21.141999999999996,-2.335181818181764,-1.356999999999987,-2.773272727272677
21.161999999999995,-2.690249999999837,-1.4147499999999589,-2.945749999999937
21.181999999999995,-2.853468749999965,-1.4572499999999908,-3.003343749999988
21.201999999999995,-3.284714285714259,-1.7291428571427667,-3.139857142857152
21.221999999999994,-3.285499999999999,-1.9299999999999362,-2.8487500000001296
21.241999999999994,-3.3876666666666244,-2.403666666666547,-2.5453333333333816
21.261999999999997,-3.5869999999999864,-2.8099999999999397,-2.337000000000035
21.281999999999996,-3.5609393939394,-2.8203030303030276,-2.2691212121212283
21.301999999999996,-3.3750000000000413,-2.2480000000001645,-2.043285714285738
21.321999999999996,-2.988000000000095,-2.389999999999914,-2.1599999999999566
21.341999999999995,-2.1770000000001444,-3.458999999999789,-2.444999999999941
21.361999999999995,-1.8100000000000551,-3.596000000000017,-2.7449999999999495
21.381999999999994,-1.602500000000049,-3.656833333333319,-2.896666666666631
21.401999999999994,-1.1349999999999085,-3.3980000000003137,-3.3319999999999697
21.421999999999993,-1.8699999999997095,-1.8710000000005924,-2.8020000000002674
21.441999999999997,-2.311999999999963,-0.6845000000001371,-1.9460000000001172
21.461999999999996,-1.7740000000001677,0.18799999999995168,-0.7430000000001418
21.481999999999996,-1.3688148148149109,0.18725925925925943,-0.5548518518518963
21.501999999999995,0.6295999999996702,-0.2044999999998961,-0.45439999999994646
21.521999999999995,2.3089999999997204,-1.1369999999998344,-0.9339999999998967
21.541999999999994,3.09799999999973,-1.6779999999997715,-1.3229999999999005
21.561999999999994,2.83800000000051,-1.9079999999999004,-1.022000000000453
21.581999999999994,2.5462758620690744,-1.8383448275862329,-0.7571724137932024
21.601999999999997,1.03000000000015,-0.6720000000001642,0.5339999999998629
21.621999999999996,0.6510000000000483,0.20299999999984833,1.400999999999832
21.641999999999996,0.73699999999996,0.8094999999999386,2.052833333333253
21.661999999999995,1.326999999999745,1.3039999999997842,2.5119999999998712
21.681999999999995,1.6096086956521214,1.4300869565217158,2.507652173913044
21.701999999999995,2.169473684210478,1.587421052631602,2.342052631578948
21.721999999999994,2.428849999999956,1.4019000000000388,2.379249999999998
21.741999999999994,2.9419999999997852,1.0240000000001341,2.2730000000000534
21.761999999999997,3.3550999999999034,0.6658000000000961,2.4513999999999325
21.781999999999996,3.778599999999901,0.26820000000007943,2.952599999999855
21.801999999999996,4.137269230769194,0.11300000000000944,3.412923076923037
21.821999999999996,4.771818181818066,0.23254545454543393,4.27736363636353
21.841999999999995,5.231714285714165,0.38321428571423194,4.718714285714171
21.861999999999995,5.754999999999871,0.6049999999999482,5.347999999999811
21.881999999999994,6.038636363636281,0.7440909090908687,5.627090909090828
21.901999999999994,7.308799999999826,0.8355000000000025,5.762900000000014
21.921999999999993,7.65318181818178,0.6042727272728061,5.805818181818152
21.941999999999997,7.633000000000032,-0.2179999999998394,5.305000000000097
21.961999999999996,7.183000000000245,-0.5449999999999778,5.008000000000111
21.981999999999996,6.976913043478299,-0.4189130434782843,4.960173913043487
22.001999999999995,6.341000000000099,0.4279999999998251,5.303999999999872
22.021999999999995,5.903000000000074,1.6219999999997818,5.821999999999916
22.041999999999994,5.4350000000002225,2.7099999999995674,5.865000000000045
22.061999999999994,5.219000000000136,2.9609999999999563,5.262000000000452
22.081999999999994,5.083000000000306,2.4000000000004675,4.858000000000083
22.101999999999997,4.780000000000038,1.498000000000122,4.325000000000137
22.121999999999996,4.311200000000237,0.05210000000047621,3.972299999999992
22.141999999999996,2.3550000000002935,-1.6749999999997047,3.2980000000001515
22.161999999999995,1.5640000000001386,-2.6409999999998637,2.2260000000002558
22.181999999999995,1.6469999999996874,-3.2669999999990442,1.5420000000009202
22.201999999999995,2.0566363636363656,-2.9630000000001395,1.528727272727251
22.221999999999994,1.7890000000001876,-2.396000000000232,1.57999999999999
22.241999999999994,1.233000000000212,-1.8050000000001847,1.299000000000132
22.261999999999993,0.583852941176531,-1.4678235294117719,0.8935000000000268
22.281999999999996,0.3809117647059258,-1.4442941176470638,0.8035000000000193
22.301999999999996,-1.2840833333332549,-1.5619166666666338,0.1935000000000533
22.321999999999996,-2.0339999999998475,-1.8019999999999656,-0.4029999999998623
22.341999999999995,-2.8799999999997508,-2.0069999999999397,-1.0769999999998283
22.361999999999995,-3.6188181818180376,-2.0276363636363657,-1.502454545454473
22.381999999999994,-4.136090909090779,-2.0367272727272665,-1.7506363636363036
22.401999999999994,-4.534806451612849,-2.0762580645161277,-2.087677419354798
22.421999999999993,-4.746419354838658,-2.080774193548386,-2.2470322580644777
22.441999999999997,-4.6440000000001,-2.199999999999933,-2.1350000000000096
22.461999999999996,-4.274100000000074,-2.47099999999994,-2.480699999999897
22.481999999999996,-3.960800000000048,-2.4404400000000033,-2.8448799999999945
22.501999999999995,-3.796800000000042,-2.4292400000000027,-2.8624799999999957
22.521999999999995,-3.2245000000000856,-2.250249999999916,-2.6082499999999627
22.541999999999994,-2.74100000000018,-2.85372727272703,-2.752636363636319
22.561999999999994,-2.106916666666697,-3.6653333333332365,-2.8935833333332885
22.581999999999994,-2.083500000000044,-3.6605714285714894,-3.0384999999999733
22.601999999999997,-1.8905833333333082,-3.33525000000008,-3.133583333333353
22.621999999999996,-2.2464615384615176,-2.310153846153954,-2.725461538461601
22.641999999999996,-2.3019090909091324,-1.265909090909174,-2.024363636363731
22.661999999999995,-1.764000000000134,-0.8230000000000433,-1.2930000000001296
22.681999999999995,-0.9280000000001477,-0.9395000000000199,-0.9379000000000176
22.701999999999995,-0.5721200000000582,-0.924719999999992,-0.9157199999999973
22.721999999999994,0.04259999999992994,-1.2687999999999044,-0.8956000000000689
22.741999999999994,0.19741666666664362,-1.47699999999997,-0.5977500000000893
22.761999999999993,0.24227999999998556,-1.4548800000000102,-0.39608000000006605
22.781999999999996,0.7821666666666379,-0.8672500000000586,0.24149999999997987
22.801999999999996,0.9914999999999702,-0.4365000000000626,0.3914999999999777
22.821999999999996,1.4782727272725744,0.3328181818180782,0.7018181818181305
22.841999999999995,1.9700909090907983,0.6055454545454088,0.8490909090908805
22.861999999999995,2.6789999999998764,0.6699999999999876,1.1159999999999362
22.881999999999994,3.227999999999811,0.6569999999999994,1.5939999999998111
22.901999999999994,3.422611111111092,0.7359999999999906,2.1093333333332307
22.921999999999993,3.638666666666633,0.6544166666667413,2.9004166666665814
22.941999999999997,3.7767272727272476,0.331909090909117,3.2604545454545057
22.961999999999996,4.032363636363594,0.2983636363636225,3.575999999999987
22.981999999999996,4.344749999999934,0.3526249999999997,3.6147500000000052
23.001999999999995,4.856904761904701,0.414952380952353,3.6227619047618784
23.021999999999995,5.672636363636197,0.8889090909090043,4.270999999999849
23.041999999999994,6.267181818181669,1.1652727272726655,4.749181818181713
23.061999999999994,6.7839999999998755,1.3699999999999581,5.262999999999843
23.081999999999994,6.858217391304352,1.3191304347826314,5.317782608695695
23.101999999999993,6.842565217391309,1.241739130434806,5.173434782608739
23.121999999999996,6.6989999999999945,0.6790000000001017,4.693000000000027
23.141999999999996,6.838444444444433,-0.3664444444443297,4.830111111111061
23.161999999999995,6.670363636363751,-0.9481818181818055,5.306363636363471
23.181999999999995,6.397200000000038,-0.985999999999992,5.671599999999959
23.201999999999995,5.175181818182066,-0.366545454545711,6.267181818181728
23.221999999999994,4.133600000000196,0.9182999999996176,6.614399999999979
23.241999999999994,3.6703000000000765,1.9347999999998322,6.544600000000106
23.261999999999993,3.515200000000023,2.2027000000000743,5.997200000000234
23.281999999999996,3.5034285714285605,1.8304285714286312,5.226857142857204
23.301999999999996,3.5414000000000287,1.0846000000001104,4.525700000000098
23.321999999999996,3.2198333333334244,0.1394166666669287,3.6302500000002405
23.341999999999995,2.68800000000014,-0.9009999999997916,2.7350000000001677
23.361999999999995,1.7478000000002114,-1.9085999999999113,1.9546000000001957
23.381999999999994,1.2596666666666272,-1.9144000000001102,1.4242666666666948
23.401999999999994,1.4599999999999431,-1.2071818181819882,1.479181818181735
23.421999999999993,1.652,-0.5747692307693941,1.8712307692306296
23.441999999999997,1.5591818181818269,-0.07500000000007234,2.1945454545454353
23.461999999999996,1.3822727272727742,0.2556363636363509,2.154090909090988
23.481999999999996,1.1837368421053458,0.06842105263164606,1.6032631578948744
23.501999999999995,0.6347000000001438,-0.41589999999986416,0.6522000000002489
23.521999999999995,0.065272727272851,-0.7922727272726611,-0.039363636363608415
23.541999999999994,-0.5249999999997779,-1.098999999999887,-0.041000000000034884
23.561999999999994,-1.4984999999996649,-1.3803999999999614,-0.01129999999996195
23.581999999999994,-2.439909090908882,-1.5043636363635877,-0.19854545454531766
23.601999999999993,-3.2467999999997152,-1.7311999999999093,-0.9149999999996716
23.621999999999996,-3.8543999999999494,-1.925099999999955,-1.7406999999998938
23.641999999999996,-4.167999999999958,-2.275999999999939,-2.5219999999998715
23.661999999999995,-4.04933333333345,-2.6441111111109685,-2.971333333333248
23.681999999999995,-3.561200000000107,-3.0246999999999846,-3.157400000000015
23.701999999999995,-3.3787241379310395,-2.9636551724138265,-3.0835517241379504
23.721999999999994,-3.1364000000001364,-2.7406999999998205,-2.7261000000000117
23.741999999999994,-2.625363636363744,-3.4192727272726464,-2.6858181818181928
23.761999999999993,-2.4985999999998816,-3.3948000000001404,-2.6862999999999317
23.781999999999996,-2.779999999999966,-3.167000000000006,-2.9819999999999376
23.801999999999996,-2.923599999999922,-3.1112000000001783,-3.275600000000037
23.821999999999996,-3.265399999999967,-1.9344000000003105,-2.7134000000002527
23.841999999999995,-3.174500000000179,-0.8039000000001768,-1.4113000000004077
23.861999999999995,-2.3051818181820485,-0.44327272727271083,-0.19918181818190367
23.881999999999994,-1.1350000000002933,-0.6027999999999234,-0.07339999999993185
23.901999999999994,-0.04077777777811661,-0.9742222222220372,-0.43766666666648507
23.921999999999993,0.8688181818180291,-1.55645454545437,-0.9239999999999193
23.941999999999993,1.012600000000099,-1.8644000000000156,-0.977600000000081
23.961999999999996,0.6838000000000154,-1.6501000000000594,-0.6255000000000585
23.981999999999996,0.6738888888888608,-1.0602222222223496,-0.13944444444450735
24.001999999999995,0.8321999999999817,-0.04870000000028024,0.2733999999999409
24.021999999999995,0.881699999999888,0.8154999999998721,0.38409999999999944
24.041999999999994,1.3202499999998876,1.170166666666601,0.41341666666665444
24.061999999999994,2.2486363636361837,1.4599999999999482,0.610363636363594
24.081999999999994,2.7524374999998846,1.5891874999999762,0.7135624999999821
24.101999999999993,3.144399999999959,1.5586000000000173,0.8169999999999872
24.121999999999996,3.5139999999999123,1.2722000000000722,0.8799999999999616
24.141999999999996,3.8811999999999354,1.01959999999999,1.151999999999932
24.161999999999995,4.207454545454465,1.0845454545454578,1.5207272727271988
24.181999999999995,4.433814814814786,1.0873703703703663,1.7555925925925548
24.201999999999995,4.959599999999901,1.2387999999999333,2.4327999999999035
24.221999999999994,5.296199999999842,1.5741999999999263,2.8040999999998784
24.241999999999994,5.944499999999864,1.707833333333348,3.202499999999944
24.261999999999993,6.622399999999756,1.5844000000000766,3.3554000000000532
24.281999999999996,6.974514285714259,1.4573142857142984,3.2372285714285884
24.301999999999996,7.145371428571398,1.3761714285714435,3.130942857142877
24.321999999999996,7.662833333333291,-0.03766666666644009,2.542833333333296
24.341999999999995,7.729000000000075,-0.9591999999999672,3.0215999999998147
24.361999999999995,7.464111111111122,-0.8976666666668286,3.7054444444442467
24.381999999999994,7.393235294117677,-0.41570588235307876,4.157941176470492
24.401999999999994,6.771500000000118,0.6162307692305948,4.593576923076878
24.421999999999993,5.406454545454723,2.8543636363632805,4.871363636363667
24.441999999999993,4.961200000000058,3.6421999999999835,4.588000000000254
24.461999999999996,4.870400000000004,3.2840000000002214,3.8324000000001632
24.481999999999996,4.894636363636364,2.04336363636397,3.1555454545455843
24.501999999999995,4.881421052631585,0.9065789473686539,2.660210526315906
24.521999999999995,4.782363636363712,-1.1377272727269636,1.6359090909091838
24.541999999999994,4.261800000000159,-2.3935999999998496,1.4829999999999106
24.561999999999994,3.562769230769337,-2.581615384615452,1.985076923076822
24.581999999999994,3.0380000000000997,-1.993888888889119,2.5077777777776267
24.601999999999993,2.725000000000068,-1.4250000000000937,2.8614999999999466
24.621999999999996,1.3029090909093601,-0.6854545454545918,2.9490909090910016
24.641999999999996,0.15463636363649755,-0.531272727272727,2.3977272727273893
24.661999999999995,-0.6061999999998702,-0.5999999999999478,1.488000000000266
24.681999999999995,-1.0285999999999242,-0.7815999999999654,0.7064000000001256
24.701999999999995,-1.4619999999999522,-1.0749999999999422,0.13100000000007594
24.721999999999994,-2.2370909090907825,-1.4590909090908648,-0.8022727272725948
24.741999999999994,-2.8373999999998323,-1.560600000000006,-1.3291999999998851
24.761999999999993,-3.467999999999775,-1.4408888888889906,-1.7287777777777036
24.781999999999993,-3.8733749999999043,-1.3107499999999392,-1.8396249999999528
24.801999999999996,-4.070818181818151,-1.4652727272726973,-1.973954545454517
24.821999999999996,-4.506799999999922,-1.879299999999896,-2.6285999999997807
24.841999999999995,-4.530600000000064,-2.3755999999999267,-3.4159999999998605
24.861999999999995,-4.3468461538461876,-2.485692307692311,-3.770153846153793
24.881999999999994,-4.1101000000000845,-2.492999999999983,-3.6303000000001973
24.901999999999994,-3.790000000000133,-2.5248888888888534,-2.7122222222224774
24.921999999999993,-3.2330000000001973,-2.8329999999998603,-1.9810000000001935
24.941999999999993,-2.3075000000001884,-3.77549999999984,-2.0034999999999066
24.961999999999996,-2.0949999999999918,-3.7850000000000623,-2.198999999999975
24.981999999999996,-1.7240000000001103,-3.755411764705844,-2.4244705882352497
25.001999999999995,-1.5406666666666498,-3.59966666666673,-2.5766666666666636
25.021999999999995,-1.8185454545454747,-1.7036363636367224,-2.229181818181937
25.041999999999994,-1.461000000000217,-0.05509090909121861,-1.4233636363639046
25.061999999999994,-0.47600000000037723,0.38418181818189523,-0.7650909090909993
25.081999999999994,0.8826428571423877,0.06928571428583516,-0.5152857142857763
25.101999999999993,2.5627647058820044,-0.4394117647057382,-0.6122941176469956
25.121999999999996,3.4963999999999524,-1.1687999999998535,-1.1069999999999425
25.141999999999996,3.485000000000057,-1.731769230769212,-1.1633076923077315
25.161999999999995,3.0343000000000777,-1.517200000000135,-0.6733000000001403
25.181999999999995,2.6920000000000557,-0.7780000000001358,-0.010000000000112641
25.201999999999995,2.390909090909134,0.13240909090897807,0.7737272727271807
25.221999999999994,2.3406666666665417,1.4985555555553436,1.5703333333332639
25.241999999999994,2.8453999999998745,2.249399999999855,1.6582000000000692
25.261999999999993,3.2732222222221017,2.6543333333332835,1.2357777777780186
25.281999999999993,3.558999999999893,2.6568888888889606,0.7580000000001244
25.301999999999996,3.7451935483870824,2.4891612903226044,0.5257419354838924
25.321999999999996,3.950999999999948,1.8250000000001847,0.11337499999999784
25.341999999999995,4.129899999999971,1.2473000000001246,0.4345999999998429
25.361999999999995,4.137444444444519,0.7302222222223571,1.289555555555203
25.381999999999994,3.9308461538461974,0.47692307692310604,2.2155384615382774
25.401999999999994,3.9524736842104966,0.4518421052631611,3.086684210526134
25.421999999999993,4.199399999999924,0.6788999999999725,4.1400999999998485
25.441999999999993,4.3271111111110985,0.8243333333332283,4.462111111111007
25.461999999999996,4.516099999999904,0.94590000000003,4.556300000000019
25.481999999999996,4.941199999999886,0.8426000000000224,4.488200000000015
25.501999999999995,5.2909999999999515,0.887071428571429,4.4174642857143
25.521999999999995,6.181799999999919,0.14450000000015828,4.124899999999967
25.541999999999994,6.460999999999926,-0.36645454545450595,4.588909090908889
25.561999999999994,6.798624999999875,-0.47974999999997836,5.147749999999816
25.581999999999994,6.935000000000008,-0.3120000000001061,5.715999999999811
25.601999999999993,6.68157142857149,0.3120357142855818,6.206464285714234
25.621999999999993,5.662636363636574,2.2559999999996814,6.661363636363561
25.641999999999996,5.139454545454623,2.9290909090909047,6.811090909090937
25.661999999999995,4.524545454545655,2.7118181818183804,6.465454545454753
25.681999999999995,3.8550000000001154,1.8340000000001906,5.468000000000228
25.701999999999995,3.386176470588297,0.6718235294119839,4.157823529411979
25.721999999999994,3.07407692307703,-1.314615384614994,2.723000000000243
25.741999999999994,2.5926666666667857,-2.6806666666664336,1.79866666666683
25.761999999999993,2.113000000000207,-3.2343999999999906,1.4586000000000368
25.781999999999993,1.659285714285837,-3.1462857142857636,1.4989999999999604
25.801999999999996,1.052380952381016,-2.72566666666672,1.7314761904761635
25.821999999999996,0.0009000000001629649,-1.937800000000103,1.973799999999986
25.841999999999995,-0.7324444444442776,-1.5866666666667077,1.9588888888889626
25.861999999999995,-1.27099999999992,-1.4190000000000293,1.6080000000000663
25.881999999999994,-1.7258888888887969,-1.3632222222222075,0.8812222222224253
25.901999999999994,-2.103444444444325,-1.402,0.1750000000001658
25.921999999999993,-2.422999999999926,-1.4273157894736712,-0.28894736842093927
25.941999999999993,-2.9402999999998722,-1.354500000000056,-0.8909999999998657
25.961999999999996,-3.1960999999999857,-1.233799999999986,-1.2464999999999355
25.981999999999996,-3.214000000000002,-1.3109999999999857,-1.511999999999959
26.001999999999995,-3.2561724137930965,-1.3861379310344757,-1.7732413793103177
26.021999999999995,-3.503666666666634,-1.832333333333243,-2.430666666666572
26.041999999999994,-3.597666666666669,-2.3166666666665474,-2.7866666666665934
26.061999999999994,-3.6509999999999665,-2.695999999999871,-3.0059999999999287
26.081999999999994,-3.6692000000000036,-2.856400000000059,-3.056300000000044
26.101999999999993,-3.6328750000000505,-2.698375000000035,-2.8090000000001427
26.121999999999993,-3.37017647058835,-2.8932941176469047,-2.5073529411765056
26.141999999999996,-2.8470000000000297,-3.582999999999967,-2.5266666666666113
26.161999999999995,-2.8025555555555757,-3.4228888888890006,-2.9266666666665135
26.181999999999995,-2.495454545454653,-3.088909090909158,-3.5509090909089607
26.201999999999995,-2.3740952380952307,-2.7460952380953554,-3.794380952380917
26.221999999999994,-2.159400000000153,-1.0126000000003332,-3.203400000000332
26.241999999999994,-1.502000000000291,-0.3968181818181958,-2.1669090909093174
26.261999999999993,-0.1826666666672501,-0.4526666666666225,-1.4686666666668096
26.281999999999993,0.9035999999996485,-0.5478666666666324,-1.3153333333333526
26.301999999999996,1.5899677419354266,-0.7323225806451275,-1.3417419354838667
26.321999999999996,2.2811428571428563,-1.540571428571241,-1.315428571428675
26.341999999999995,2.075400000000094,-1.8600000000000074,-0.8668000000001582
26.361999999999995,1.7306666666667472,-1.6130000000001377,-0.20833333333351936
26.381999999999994,1.5230000000000308,-0.903666666667044,0.5076666666663643
26.401999999999994,1.481250000000007,-0.1580000000001896,0.9642499999999106
26.421999999999993,1.9387999999998684,0.6804999999998369,1.3281999999998888
26.441999999999993,2.4339999999998403,1.1503999999998875,1.7009999999998977
26.461999999999996,2.916363636363552,1.378909090909095,1.8462727272727213
26.481999999999996,3.3668888888888016,1.2857777777778068,1.9621111111110328
26.501999999999995,3.5794736842104986,1.177315789473706,2.16899999999997
26.521999999999995,3.86063636363632,0.7245454545455279,2.597090909090809
26.541999999999994,4.098199999999906,0.551200000000011,3.047799999999877
26.561999999999994,4.376363636363586,0.6715454545453742,3.4769090909089937
26.581999999999994,4.5804999999998985,0.9027499999999553,3.8176249999998637
26.601999999999993,4.8083684210525774,1.0131052631578656,4.117105263157826
26.621999999999993,5.6067999999997715,1.0726000000000038,4.824999999999783
26.641999999999996,6.213454545454444,1.0793636363636467,5.446999999999896
26.661999999999995,6.518599999999975,0.9656000000000104,5.618200000000034
26.681999999999995,6.567777777777764,0.8475555555556561,5.383444444444557
26.701999999999995,6.6009999999999955,0.5424090909091454,5.060409090909145
26.721999999999994,6.964666666666584,-0.8539999999995832,4.3713333333333795
26.741999999999994,7.062999999999975,-1.3078461538461887,4.591615384615226
26.761999999999993,7.083727272727371,-0.7760000000002635,5.287636363636254
26.781999999999993,6.543571428571693,0.5514285714277162,5.519142857142813
26.801999999999996,6.125315789473718,2.0601052631577526,5.6297894736841965
26.821999999999996,6.040111111111099,3.1674444444444876,5.717333333333357
26.841999999999995,6.084260869565209,2.9367826086957307,5.590956521739173
26.861999999999995,6.127375000000101,1.4917500000004114,4.730875000000359
26.881999999999994,5.669500000000169,0.07320000000046425,3.525400000000353
26.901999999999994,4.818800000000373,-1.4057999999995991,2.5544000000002103
26.921999999999993,3.876333333333544,-2.300933333333149,2.1638000000000686
26.941999999999993,2.4191666666670493,-2.8008333333334727,2.0808333333332407
26.961999999999993,1.4733333333336525,-2.2596666666668925,2.4506666666665016
26.981999999999996,0.5476000000002467,-1.6136000000001995,2.7343999999999844
27.001999999999995,-0.2699999999998518,-0.9525454545455498,2.6325454545455167
27.021999999999995,-0.7116923076922765,-0.7419230769230813,2.3407692307692756
27.041999999999994,-0.8201538461538135,-0.7265384615384661,2.1846153846154315
27.061999999999994,-0.8653333333333207,-0.9916666666665442,0.8846666666670014
27.081999999999994,-0.9521818181817823,-1.232545454545429,0.046636363636583744
27.101999999999993,-1.0568888888888868,-1.4276666666666342,-0.6125555555554973
27.121999999999993,-1.0628148148148124,-1.51877777777774,-0.7762592592591915
27.141999999999996,-1.5793999999998654,-1.6948000000000065,-1.4379999999999156
27.161999999999995,-2.2857999999998073,-1.7151999999999685,-1.684199999999909
27.181999999999995,-2.997499999999801,-1.9307499999999005,-2.095499999999881
27.201999999999995,-3.4871999999999383,-2.2490999999999484,-2.370099999999968
27.221999999999994,-4.290363636363477,-3.024727272727173,-2.896090909090765
27.241999999999994,-4.743199999999966,-3.255599999999975,-3.444799999999826
27.261999999999993,-4.692500000000077,-3.1999999999999984,-3.7405000000000066
27.281999999999993,-4.3320000000001375,-3.5001999999997966,-3.5930000000000923
27.301999999999996,-4.01566666666673,-4.028999999999886,-3.4613333333333482
27.321999999999996,-3.467636363636375,-4.7791818181818755,-3.52590909090901
27.341999999999995,-3.2160000000000744,-4.6076000000000406,-3.9423999999998878
27.361999999999995,-3.1925999999999086,-3.755800000000459,-4.274799999999989
27.381999999999994,-3.5220000000000318,-1.8158000000005776,-4.00000000000024
27.401999999999994,-3.173818181818336,-0.8310909090911236,-3.3626363636365633
27.421999999999993,-1.0470000000007438,-0.23766666666658692,-1.4660000000003883
27.441999999999993,0.8175999999994507,-0.39959999999997187,-0.8368000000000467
27.461999999999993,2.305199999999624,-0.6735999999998311,-1.0115999999998344
27.481999999999996,2.935777777777789,-1.2373333333332146,-1.6209999999998481
27.501999999999995,2.7398421052632127,-1.5658421052631004,-1.9744210526315253
27.521999999999995,2.1322000000000956,-1.8938000000000588,-1.5804000000002383
27.541999999999994,1.8930000000000042,-1.3241818181819878,-0.531727272727472
27.561999999999994,1.8428000000000146,-0.40520000000029543,0.3919999999997378
27.581999999999994,2.0685454545453137,0.4049090909089277,1.1096363636362103
27.601999999999993,2.444238095238006,0.7714761904761183,1.4498571428570768
27.621999999999993,3.313399999999808,1.3097999999998677,1.800799999999989
27.641999999999996,3.6856666666666413,1.6137499999999916,1.7685833333333527
27.661999999999995,3.7694285714285503,1.624142857142858,1.6917142857143077
27.681999999999995,4.074823529411713,1.504000000000044,1.511294117647078
27.701999999999995,4.182399999999983,1.1591333333333813,1.7397999999999327
27.721999999999994,4.344639999999979,0.9446800000000148,2.202039999999968
27.741999999999994,4.439839999999975,0.8770800000000173,2.3492399999999627
27.761999999999993,4.994299999999955,0.9015000000000032,4.195299999999826
27.781999999999993,5.308999999999844,0.8967999999999955,4.789199999999813
27.801999999999992,6.0633636363633086,0.836272727272778,5.444454545454281
27.821999999999996,6.667777777777659,0.7503333333333492,5.9989999999998815
27.841999999999995,7.552999999999891,0.7178000000000114,7.033599999999884
27.861999999999995,7.899111111111023,0.3330000000002546,6.904444444444699
27.881999999999994,8.168222222222159,-0.5502222222219703,6.059444444444698
27.901999999999994,8.209750000000005,-0.8792499999999519,5.688250000000065
27.921999999999993,8.15080000000009,-0.6862000000001963,5.641799999999929
27.941999999999993,7.420090909091259,0.39563636363586974,5.996454545454483
27.961999999999993,6.365727272727664,1.6323636363632699,5.98300000000007
27.981999999999996,5.583000000000122,2.2569999999999135,5.716000000000054
28.001999999999995,4.938782608695726,2.3301739130435015,5.045434782608799
28.021999999999995,4.080000000000112,1.5152000000002124,3.915800000000163
28.041999999999994,3.7934000000000645,0.44220000000030685,3.125600000000207
28.061999999999994,3.421600000000173,-0.8127999999995767,2.4952000000001324
28.081999999999994,2.8011111111113256,-2.029888888888538,2.2568888888889287
28.101999999999993,2.2823333333333995,-2.6514999999999906,2.2331666666666394
28.121999999999993,2.0590000000000797,-2.6839999999999886,2.3239999999999674
28.141999999999996,1.2515000000001126,-1.7310000000001358,2.2875000000000227
28.161999999999995,0.6395000000001754,-1.1553750000001015,2.109500000000073
28.181999999999995,0.042125000000113794,-0.8066250000000539,1.8532500000001075
28.201999999999995,-0.2280312499999754,-0.7386562500000021,1.5112500000000306
28.221999999999994,-0.33615624999997296,-0.7292812500000023,1.3762500000000337
28.241999999999994,-0.8090769230768204,-1.1545384615384102,0.40853846153862666
28.261999999999993,-1.3894999999997568,-1.4637499999998917,-0.356874999999796
28.281999999999993,-2.0133333333331183,-1.649888888888852,-0.6548888888888283
28.301999999999992,-2.544714285714218,-1.681285714285717,-0.74019047619047
28.321999999999996,-3.009249999999899,-1.6551250000000117,-0.9819999999998401
28.341999999999995,-3.367333333333213,-1.8009999999999289,-1.7803333333330649
28.361999999999995,-3.6039999999999868,-2.0401249999998576,-2.3619999999998402
28.381999999999994,-3.7754999999999153,-2.439999999999919,-2.696999999999917
28.401999999999994,-4.0609090909090435,-2.671181818181778,-2.974090909090846
28.421999999999993,-4.410999999999899,-2.823333333333438,-3.3709999999999174
28.441999999999993,-4.399857142857376,-2.660571428571274,-3.3221428571430582
28.461999999999993,-3.7360000000002374,-3.189999999999814,-2.884500000000134
28.481999999999996,-3.139500000000063,-3.747499999999932,-2.7290000000000023
28.501999999999995,-3.17309756097561,-3.736804878048804,-2.767512195121934
28.521999999999995,-3.1735853658536586,-3.655829268292709,-2.825073170731689
28.541999999999994,-2.468428571428537,-2.241000000000563,-3.3777142857142914
28.561999999999994,-2.642181818181816,-0.4940909090912955,-2.984545454545667
28.581999999999994,-1.8685000000005578,0.3449999999998338,-2.127000000000342
28.601999999999993,-0.35700000000022736,0.4513333333333791,-1.4682222222222552
28.621999999999993,0.2829999999997348,0.3224444444444979,-1.375629629629668
28.641999999999992,2.3754999999997746,-0.6479999999997598,-2.202499999999826
28.661999999999995,2.6979999999999817,-1.4249999999997813,-2.4844999999999864
28.681999999999995,2.565500000000071,-2.052499999999895,-2.1390000000002143
28.701999999999995,2.31811538461541,-2.025461538461594,-1.268269230769327
28.721999999999994,2.2065769230769496,-1.779307692307751,-0.8413461538462559
28.741999999999994,1.9749090909090898,-0.03145454545478912,1.0349090909088572
28.761999999999993,2.144444444444343,0.8286666666664259,1.7486666666665027
28.781999999999993,2.5584999999998232,1.4179999999998678,1.922500000000046
28.801999999999992,2.9825652173912416,1.677782608695631,1.8089130434782836
28.821999999999996,3.438374999999866,1.7068750000000417,1.5896250000000671
28.841999999999995,3.884999999999903,1.4910000000000747,1.3580000000000436
28.861999999999995,4.152111111111036,1.207111111111225,1.2553333333333314
28.881999999999994,4.335583333333291,0.8917500000000532,1.4217499999999206
28.901999999999994,4.532896551724116,0.6862758620689824,1.811758620689605
28.921999999999993,4.607379310344805,0.6276551724138111,1.9855517241378777
28.941999999999993,4.896499999999884,0.7969999999999342,2.906499999999825
28.961999999999993,5.077799999999928,0.9735999999999289,3.1597999999999313
28.981999999999996,5.399499999999936,1.1159999999999908,3.433999999999946
29.001999999999995,5.792952380952295,0.9987142857143306,3.7799047619046915
29.021999999999995,6.482428571428432,0.5795714285715348,4.5187142857141165
29.041999999999994,7.017111111110967,-0.021999999999791575,4.708222222222273
29.061999999999994,7.670999999999853,-1.0849999999996873,4.81811111111101
29.081999999999994,7.861692307692298,-1.662000000000006,5.41569230769213
29.101999999999993,7.892600000000046,-1.2672000000002406,5.91159999999989
29.121999999999993,7.482888888889197,-0.26788888888950413,6.252222222222019
29.141999999999992,6.612222222222641,1.2763333333325984,6.698222222222045
29.161999999999995,6.185363636363672,2.712636363636125,6.933636363636357
29.181999999999995,5.849000000000146,3.1040000000000973,6.61950000000024
29.201999999999995,5.059111111111366,2.415222222222476,5.548000000000331
29.221999999999994,4.264142857143127,1.4178571428576405,4.435857142857616
29.241999999999994,3.7388571428573423,0.16300000000059683,3.3225714285718864
29.261999999999993,3.1988000000002033,-1.0535999999996681,2.449400000000246
29.281999999999993,2.6240000000001444,-1.885999999999911,1.8370000000000721
29.301999999999992,1.985187500000095,-1.9178750000000877,1.6378750000000046
29.321999999999996,1.525111111111219,-1.377555555555716,1.714666666666594
29.341999999999995,1.208000000000109,-0.8190000000002345,2.0089999999998365
29.361999999999995,0.7971111111112285,-0.2975555555556403,2.28166666666666
29.381999999999994,0.44350000000006556,-0.19199999999996484,2.0630000000001396
29.401999999999994,0.2220000000000373,-0.2887499999999747,1.398500000000121
29.421999999999993,-0.21288888888871976,-0.575111111110996,0.6031111111112613
29.441999999999993,-0.543399999999946,-1.0549999999998008,0.2468000000001188
29.461999999999993,-0.7087999999998413,-1.3635999999999875,0.0936000000000422
29.481999999999992,-1.1904999999998103,-1.418499999999941,0.010500000000063243
29.501999999999995,-1.6836923076922679,-1.5482307692307609,-0.14992307692306167
29.521999999999995,-1.9259999999999569,-1.5989999999999909,-0.24299999999998345
29.541999999999994,-3.056999999999858,-1.9143333333332544,-0.8596666666665419
29.561999999999994,-3.558499999999867,-2.1604999999999484,-1.439999999999856
29.581999999999994,-3.8084999999999862,-2.4969999999998804,-1.8619999999999135
29.601999999999993,-3.799636363636366,-2.7708787878787757,-2.1492121212120727
29.621999999999993,-3.79418181818182,-2.802393939393929,-2.2740606060605635
29.641999999999992,-3.737272727272866,-2.634454545454449,-2.7591818181817644
29.661999999999995,-3.0328000000001736,-3.130799999999888,-2.811000000000017
29.681999999999995,-2.7322857142856978,-3.110428571428759,-2.826142857142874
29.701999999999995,-2.6054230769231252,-2.809346153846136,-2.7416153846153946
29.721999999999994,-2.4070000000002416,-2.7360000000009523,-2.6270000000005753
29.741999999999994,-2.7966666666665736,-1.215666666667206,-2.2576666666667347
29.761999999999993,-2.6357000000002286,-0.027100000000281455,-2.07770000000006
29.781999999999993,-1.44800000000045,0.07250000000013086,-1.912000000000026
29.801999999999992,-0.06100000000040173,-0.46769230769216513,-1.9554615384614982
29.821999999999996,0.959473684210399,-0.8585263157894142,-1.9956315789473638
29.841999999999995,1.6666666666666357,-1.4066666666665881,-2.0636666666666628
29.861999999999995,1.4139000000001036,-1.5936999999999997,-1.823600000000086
29.881999999999994,1.08762500000008,-1.4626250000001422,-1.327375000000243
29.901999999999994,1.0043124999999946,-0.8301250000001653,-0.7901875000000845
29.921999999999993,1.222999999999892,0.4582999999996564,-0.34830000000008166
29.941999999999993,1.467624999999916,1.14762499999975,-0.29812499999997266
29.961999999999993,1.6423333333332535,1.5666666666665545,-0.4753333333332418
29.981999999999992,1.8369999999998867,1.5840000000000605,-0.7589999999998868
30.001999999999995,2.025157894736793,1.4964736842105482,-0.8809473684210264
30.021999999999995,2.6099999999998724,1.1265000000001029,-0.8645000000000336
30.041999999999994,2.864999999999943,0.9393478260869949,-0.7319130434783035
30.061999999999994,3.5903018867924157,0.49043396226417196,-0.1461698113208009
30.081999999999994,3.7163396226414678,0.4191132075471935,0.010433962264099012
30.101999999999993,3.84237735849052,0.347792452830215,0.16703773584899892
30.121999999999993,4.478839999999943,-0.04255999999997542,1.041319999999943
30.141999999999992,4.658999999999904,-0.11418749999999889,1.2206249999999184
30.161999999999995,5.004416666666567,-0.09908333333335032,1.5433333333332213
30.181999999999995,6.415406249999961,0.7475624999999676,4.243906249999943
30.201999999999995,6.658531249999956,0.9488124999999631,4.597031249999936
30.221999999999994,8.61049999999997,1.0840000000000365,4.924000000000092
30.241999999999994,8.75574999999994,0.5903750000003178,4.537750000000101
30.261999999999993,8.708666666666767,-0.48977777777733844,4.534222222222181
30.281999999999993,8.277666666666816,-1.3719999999998151,4.790666666666505
30.301999999999992,7.844600000000241,-1.1576000000003235,5.4035999999996704
30.321999999999992,6.95570000000039,0.2724999999993318,6.118599999999806
30.341999999999995,6.017666666666822,1.7623333333330744,6.002666666666774
30.361999999999995,5.599900000000022,2.5783999999999136,5.479700000000077
30.381999999999994,5.665199999999935,2.430200000000178,5.404800000000011
30.401999999999994,5.688750000000072,1.752375000000219,5.177687500000136
30.421999999999993,5.251400000000069,0.12400000000049738,3.9176000000003803
30.441999999999993,4.698000000000781,-1.4125999999988605,3.0600000000003202
30.461999999999993,3.62950000000101,-2.5942499999993456,2.7990000000001367
30.481999999999992,2.1878000000002444,-3.083100000000018,2.537400000000038
30.501999999999995,0.5951818181821071,-2.6450000000002034,2.4415454545454347
30.521999999999995,-0.4485999999998205,-1.5986000000002127,2.645399999999964
30.541999999999994,-0.8996666666666304,-0.752333333333571,2.7663333333333315
30.561999999999994,-0.7850000000001208,-0.46400000000002606,2.562000000000225
30.581999999999994,-0.5456666666668285,-0.4551666666665828,1.8093333333338109
30.601999999999993,-0.34228571428566246,-0.806857142856994,0.5680000000004619
30.621999999999993,-0.4949230769230077,-1.1099999999999262,-0.3496923076919717
30.641999999999992,-0.7610769230767925,-1.2601538461537982,-1.1792307692304513
30.661999999999995,-1.777571428571123,-1.2641428571428603,-2.043571428571168
30.681999999999995,-2.3349333333332263,-1.1909333333333563,-2.5555999999999006
30.701999999999995,-2.6775384615383806,-1.1000000000000245,-2.799846153846109
30.721999999999994,-3.132444444444339,-1.2716666666665917,-3.174555555555471
30.741999999999994,-3.421555555555483,-1.468777777777706,-3.563999999999846
30.761999999999993,-3.520999999999974,-1.8673333333331328,-4.045666666666448
30.781999999999993,-3.6948888888888503,-2.357444444444327,-4.360444444444417
30.801999999999992,-3.626400000000061,-2.2920000000001015,-3.9519000000002995
30.821999999999992,-3.5859999999999714,-2.1412222222222135,-2.9892222222227156
30.841999999999995,-3.1532000000001883,-2.9345999999996977,-2.2696000000001466
30.861999999999995,-2.4527500000002758,-3.7032499999997737,-2.148499999999955
30.881999999999994,-2.0354000000001236,-3.683000000000068,-2.3967999999999225
30.901999999999994,-1.613000000000071,-3.5310000000001005,-2.8125555555554063
30.921999999999993,-1.9167999999998746,-2.2814000000004966,-2.8566000000000757
30.941999999999993,-1.7352500000002151,-0.7950000000005596,-2.1612500000003956
30.961999999999993,-0.8734000000003632,0.07439999999985013,-1.1778000000002875
30.981999999999992,0.46154545454500273,0.06718181818187557,-0.7615454545455079
31.001999999999995,1.8399999999995735,-0.236555555555424,-0.7486666666666331
31.021999999999995,2.872090909090673,-0.8086363636361874,-0.9717272727272168
31.041999999999994,3.5806666666665072,-1.3949999999998555,-1.115000000000012
31.061999999999994,3.613000000000108,-1.4642000000000635,-0.8216000000001499
31.081999999999994,3.0446000000001985,-0.9288000000002313,-0.3944000000001171
31.101999999999993,2.7062307692308334,-0.44784615384625714,-0.22461538461541297
31.121999999999993,2.102533333333366,1.078666666666415,0.0007999999999867367
31.141999999999992,2.399666666666436,1.777666666666486,0.07666666666663745
31.161999999999995,3.126333333333187,2.1239999999999624,0.18999999999999054
31.181999999999995,3.7054999999999123,2.109300000000013,0.21379999999998978
31.201999999999995,3.9343333333332944,1.940000000000063,0.35766666666661245
31.221999999999994,3.814666666666794,1.4760000000002131,0.4849999999999479
31.241999999999994,3.597000000000024,0.8933333333336018,0.7219999999998603
31.261999999999993,3.6934999999999456,0.368750000000136,1.291499999999734
31.281999999999993,3.9122727272725997,0.19018181818185975,1.8789090909088726
31.301999999999992,4.412777777777576,0.3086666666665817,2.65011111111086
31.321999999999992,4.820624999999818,0.5893749999998349,3.200749999999768
31.341999999999995,5.230333333333234,1.0559999999999112,3.59433333333327
31.361999999999995,5.971222222221969,1.1996666666666747,4.051888888888708
31.381999999999994,6.889799999999732,1.004800000000076,4.646199999999839
31.401999999999994,7.816461538461345,0.8087692307692863,4.979769230769188
31.421999999999993,8.684799999999735,0.4035000000002261,5.067199999999989
31.441999999999993,9.350799999999829,-0.7496999999995471,5.250299999999899
31.461999999999993,9.18000000000019,-1.610666666666562,5.53888888888882
31.481999999999992,8.54600000000025,-1.4465000000001664,5.580500000000049
31.501999999999995,7.361666666666896,-0.043666666667017906,5.485333333333317
31.521999999999995,6.438818181818358,1.5854545454542164,5.432909090909136
31.541999999999994,6.0245833333333625,2.6080833333331874,5.036250000000108
31.561999999999994,6.1172727272726855,2.5996363636365425,4.458363636363864
31.581999999999994,6.186,1.637500000000477,3.605000000000354
31.601999999999993,5.959700000000121,-0.05609999999943094,2.5829000000002584
31.621999999999993,5.383100000000275,-1.8387999999994034,2.0187000000001274
31.641999999999992,4.172866666667092,-3.1145333333330343,1.7585333333333577
31.661999999999992,2.434666666667343,-3.6653333333333413,1.6016666666667203
31.681999999999995,1.0840000000002408,-3.216200000000159,1.7153999999999598
31.701999999999995,0.14760000000022394,-2.333200000000249,1.756600000000045
31.721999999999994,-0.5145999999998487,-1.6270000000001676,1.7573999999999637
31.741999999999994,-0.8334999999999291,-1.2806000000000688,1.6220000000001011
31.761999999999993,-0.92,-1.1633333333333127,1.070666666666917
31.781999999999993,-0.9779999999999408,-1.3743333333332426,0.3768888888891165
31.801999999999992,-1.1510999999999352,-1.6589999999998828,-0.4576999999996475
31.821999999999992,-1.542899999999807,-1.8711999999999562,-1.4747999999995904
31.841999999999995,-2.049444444444284,-1.8957777777777751,-2.257666666666485
31.861999999999995,-2.7053749999998207,-1.725750000000081,-2.89262499999986
31.881999999999994,-3.420249999999793,-1.4055000000001197,-3.4372499999998487
31.901999999999994,-3.7997142857141455,-1.2065714285715026,-3.6254285714285253
31.921999999999993,-4.001666666666645,-1.2776666666665522,-3.891333333333199
31.941999999999993,-3.8697500000000673,-1.8947499999996946,-4.221999999999863
31.961999999999993,-3.8479999999999586,-2.6507777777776056,-4.673888888888749
31.981999999999992,-3.9828888888888465,-2.7377777777777843,-4.768888888888954
32.001999999999995,-3.997500000000002,-2.6145000000000325,-4.144000000000155
32.022,-3.643230769230804,-2.63430769230768,-3.21361538461543
32.041999999999994,-2.553714285714516,-3.209857142857016,-2.4637142857143637
32.06199999999999,-2.1363999999999437,-3.2513000000001804,-2.645599999999822
32.081999999999994,-1.9675454545456366,-3.0369090909090306,-3.214181818181642
32.102,-1.2870000000000437,-2.9201428571429098,-3.5075714285714246
32.12199999999999,-0.8062000000001203,-1.4546000000006591,-3.2680000000001708
32.141999999999996,-0.49881818181835147,-0.21536363636392353,-2.7197272727274657
32.16199999999999,0.8720909090902267,0.0012727272728053768,-2.1294545454547236
32.181999999999995,2.4333333333330245,-0.34799999999991116,-1.8653333333333764
32.20199999999999,3.5549999999995205,-0.8853749999995925,-1.6682500000001577
32.221999999999994,4.013272727272689,-1.7586363636361089,-1.2249090909092435
