timestamp,acc_x,acc_y,acc_z
0.024,0.928,1.434,1.252
0.044,-1.0819999999999996,1.3034999999999999,-0.6044999999999999
0.064,-1.988,1.2182727272727274,-0.3243636363636365
0.08399999999999999,-2.2382222222222223,1.0950000000000002,-0.8714444444444438
0.10399999999999998,-1.9932307692307696,0.9313076923076924,-1.3291538461538461
0.12399999999999997,-0.4970000000000001,0.8180000000000001,-0.7080000000000012
0.144,-0.9875454545454541,-0.17336363636363533,0.08299999999999982
0.16399999999999998,-1.9114545454545437,-0.6134545454545467,-0.017090909090910128
0.18399999999999997,-2.9855999999999994,0.34099999999999947,0.8161999999999996
0.20399999999999996,-2.5677142857142874,0.38757142857142884,0.6742857142857146
0.22399999999999995,-1.6242222222222247,0.4389999999999995,0.5498888888888894
0.24399999999999997,-0.6010000000000012,0.052000000000001295,-0.2604444444444428
0.26399999999999996,-0.4493999999999996,-0.6457999999999988,-0.7921999999999988
0.284,-0.5235454545454548,-0.83,-1.0872727272727274
0.304,-0.02976923076923077,-0.5093076923076924,-1.046
0.32399999999999995,0.5203333333333326,-0.6936666666666665,-1.6033333333333315
0.344,0.7909999999999995,-0.6345000000000003,-1.6610000000000005
0.364,0.4881111111111111,0.11733333333333335,-1.2918888888888889
0.38399999999999995,1.2646666666666662,0.1953333333333328,-1.3609999999999993
0.40399999999999997,1.1502857142857141,0.2853571428571427,-1.4844285714285717
0.42399999999999993,1.1476666666666673,0.6795555555555542,-1.326111111111111
0.44399999999999995,1.2384444444444447,0.6204444444444441,-0.609000000000004
0.46399999999999997,0.2910000000000018,0.8259999999999994,-0.3819999999999998
0.48399999999999993,-0.034666666666666415,1.758333333333332,-0.6363333333333331
0.5039999999999999,-0.05350000000000371,2.200875000000001,-0.8453749999999967
0.5239999999999999,0.20379999999999956,1.531800000000005,-0.4256000000000051
0.5439999999999999,0.38891666666666735,0.44791666666667246,0.5927499999999973
0.564,0.2790000000000003,-0.004200000000000634,1.2787999999999975
0.584,0.287,0.45811111111111114,1.4736666666666667
0.604,0.9541428571428571,0.4238571428571429,0.5947142857142858
0.6239999999999999,0.9130000000000031,-0.0621999999999977,0.44939999999999825
0.6439999999999999,-0.5289999999999875,-0.26699999999999907,0.8364999999999954
0.6639999999999999,-1.9538888888888868,-0.5315555555555541,1.7717777777777723
0.6839999999999999,-1.893076923076925,-0.6368461538461541,1.8344615384615408
0.704,-0.3680769230769231,-0.20007692307692307,0.05776923076923074
0.7239999999999999,0.4163999999999929,0.2058000000000024,-1.424199999999992
0.7439999999999999,1.3889999999999991,-0.6089999999999969,-3.1014999999999926
0.7639999999999999,0.8846000000000056,-0.379000000000003,-3.111400000000005
0.7839999999999999,0.11020000000000031,-0.20960000000000134,-2.6537999999999986
0.8039999999999999,2.0418000000000145,-1.9013999999999984,-3.4293999999999993
0.8239999999999998,-2.2084444444444453,-0.21855555555556377,-2.246222222222227
0.8439999999999999,-0.7586363636363684,-1.9096363636363494,-1.8666363636363614
0.8639999999999999,-0.7645454545454153,-1.18436363636365,-0.6396363636363656
0.8839999999999999,-4.868000000000012,-1.3953999999999795,-1.083199999999994
0.9039999999999999,-4.1256000000000075,-1.9004000000000143,-2.2787999999999964
0.9239999999999999,-1.552600000000026,-0.4834000000000015,-2.674599999999998
0.9439999999999998,0.19949999999999674,-0.26450000000000445,-3.794999999999998
0.9639999999999999,1.160666666666663,0.34344444444444455,-2.9084444444444486
0.9839999999999999,1.1123333333333336,0.056333333333333124,-2.1003333333333414
1.0039999999999998,0.764000000000006,0.4617999999999974,-0.35660000000002323
1.0239999999999998,0.3096000000000001,0.6211999999999946,2.179999999999973
1.0439999999999998,-0.626923076923064,0.6920769230769279,3.3558461538461524
1.0639999999999998,-2.246799999999994,0.3835999999999945,4.679399999999974
1.0839999999999999,-1.357769230769241,1.253615384615379,5.526230769230774
1.1039999999999999,-1.342230769230762,1.3558461538461564,3.868769230769245
1.1239999999999999,-0.6037500000000123,1.47408333333333,1.6017500000000102
1.144,2.1984999999999997,2.245,-0.7400000000000001
1.164,0.9785999999999999,1.9826,-2.4370000000000003
1.184,-0.4546666666666666,1.0446666666666726,-0.25033333333334573
1.2039999999999997,-0.672599999999965,0.2624000000000039,1.8103999999999454
1.2239999999999998,-1.7197777777777752,-0.24366666666664807,3.0125555555555543
1.2439999999999998,-1.8606666666666773,-1.8196666666666188,1.2816666666667476
1.2639999999999998,-5.203199999999946,-0.006400000000050365,-1.3308000000000144
1.2839999999999998,-4.812666666666699,-0.2706666666666422,-2.422999999999986
1.3039999999999998,-2.5940000000000207,-1.7279999999999873,-3.236999999999993
1.3239999999999998,-2.228799999999994,-1.7240000000000077,-4.166799999999996
1.3439999999999999,-2.890399999999992,-1.395199999999999,-4.363399999999999
1.3639999999999999,-3.300399999999998,-1.8037999999999923,-4.436000000000002
1.384,-3.0434000000000037,-2.7899999999999943,-3.8269000000000055
1.404,-2.583,-3.231,-2.884
1.4239999999999997,-2.648299999999998,-3.2256000000000005,-0.6307000000000209
1.4439999999999997,-2.3403333333333403,-3.300333333333332,0.11666666666666006
1.4639999999999997,-1.9696666666666733,-3.3837777777777784,0.26200000000000084
1.4839999999999998,-1.4751428571428613,-3.3607142857142858,0.32628571428571157
1.5039999999999998,-1.2360000000000018,-3.3555,0.4929999999999988
1.5239999999999998,-1.0535999999999994,-3.2585999999999995,0.4768000000000024
1.5439999999999998,-0.7060000000000071,-3.476857142857139,-0.058428571428567805
1.5639999999999998,-0.08833333333334034,-3.8633333333333306,-0.35711111111110716
1.5839999999999999,0.49617647058823,-4.1149999999999975,-0.7224705882352906
1.6039999999999999,1.0089999999999981,-4.273714285714285,-1.269142857142854
1.6239999999999997,0.5974444444444467,-4.264888888888881,-2.321222222222215
1.6439999999999997,1.5534561403508729,-5.151263157894735,-2.1544035087719315
1.6639999999999997,1.8204736842105227,-5.32915789473684,-2.069842105263159
1.6839999999999997,2.0874912280701725,-5.507052631578945,-1.985280701754387
1.7039999999999997,1.3963333333333339,-6.016000000000006,4.233666666666642
1.7239999999999998,1.7998999999999832,-5.709999999999987,6.339999999999987
1.7439999999999998,3.063818181818173,-6.889909090909086,6.179090909090912
1.7639999999999998,2.8083000000000027,-6.527800000000002,4.832100000000011
1.7839999999999998,2.4204000000000034,-6.274000000000003,2.5648000000000124
1.8039999999999998,0.5878000000000138,-4.530300000000014,0.9047000000000067
1.8239999999999998,-1.5797999999999899,-1.8235000000000159,0.2585000000000013
1.8439999999999996,-2.669545454545445,1.1298181818181363,0.6621818181818072
1.8639999999999997,-2.5617692307692432,2.5861538461538345,1.1913846153846066
1.8839999999999997,-1.5360000000000178,2.826666666666669,1.6401666666666614
1.9039999999999997,1.3021111111110621,1.9121111111111277,1.9318888888888877
1.9239999999999997,3.2329999999999868,1.2594000000000043,1.9947999999999995
1.9439999999999997,5.167181818181812,0.5670909090909122,1.757363636363642
1.9639999999999997,5.236941176470591,0.32935294117647296,1.3165294117647113
1.9839999999999998,4.885200000000007,0.18060000000000148,0.8856000000000062
2.0039999999999996,3.55157894736844,0.23915789473683852,0.3609473684210569
2.0239999999999996,1.2868571428571878,1.0179999999999862,0.2759999999999934
2.0439999999999996,0.4654651162790715,1.210046511627906,0.43558139534883605
2.0639999999999996,0.3203488372093044,1.2835348837209293,0.5341860465116265
2.0839999999999996,0.03800000000002354,1.5859999999999645,0.9799999999999465
2.1039999999999996,0.738999999999991,1.9176666666666646,3.1706666666666563
2.1239999999999997,1.1742499999999918,2.0116249999999956,3.534374999999995
2.1439999999999997,1.653142857142848,2.315142857142853,3.6914285714285717
2.1639999999999997,2.2249999999999948,2.250500000000003,3.5035000000000034
2.1839999999999997,2.7213999999999956,1.8524000000000038,3.019200000000005
2.2039999999999997,2.966199999999998,1.6568000000000027,2.820400000000001
2.2239999999999998,3.0101999999999998,1.4114000000000038,2.825999999999999
2.2439999999999998,3.3023999999999956,0.9502000000000079,2.985599999999999
2.264,3.8037272727272633,0.407272727272735,3.208818181818175
2.284,4.324199999999998,0.07700000000000035,3.9335999999999944
2.304,4.528999999999997,0.04240000000000119,4.678999999999993
2.324,4.982090909090907,-0.5946363636363595,5.058363636363636
2.344,5.216888888888889,-1.663555555555544,4.855111111111116
2.364,5.123,-1.7794000000000016,4.469400000000004
2.3839999999999995,5.382333333333324,-1.5820000000000018,3.8043333333333487
2.4039999999999995,6.041818181818168,-1.2100000000000184,3.0068181818181974
2.4239999999999995,6.4543333333333255,-0.6363333333333439,2.4836666666666822
2.4439999999999995,6.420500000000005,-0.8967999999999832,2.235700000000002
2.4639999999999995,5.871700000000019,-2.1959999999999593,2.3921999999999928
2.4839999999999995,4.887400000000027,-4.129299999999954,2.660199999999993
2.5039999999999996,3.292818181818226,-5.592636363636336,2.8738181818181774
2.5239999999999996,1.6403333333333567,-6.767555555555541,2.929777777777778
2.5439999999999996,-0.13344444444442138,-6.877222222222227,2.9090000000000007
2.5639999999999996,-1.289999999999973,-6.426000000000011,2.581666666666679
2.5839999999999996,-2.5027777777777613,-6.055888888888893,2.0591111111111164
2.6039999999999996,-3.531499999999977,-5.643500000000012,1.7607000000000081
2.6239999999999997,-4.1316666666666615,-5.254222222222226,1.3365555555555608
2.6439999999999997,-4.407727272727271,-4.981000000000002,0.9389090909090947
2.6639999999999997,-4.457888888888888,-4.911333333333335,0.46077777777778417
2.6839999999999997,-4.459444444444444,-4.666000000000004,0.14233333333333742
2.7039999999999997,-4.4638,-4.339000000000003,-0.18779999999999505
2.7239999999999998,-4.634999999999996,-4.102600000000003,-0.6217999999999941
2.7439999999999998,-5.192199999999991,-3.5042000000000093,-0.838799999999999
2.764,-5.875999999999993,-3.1034000000000024,-0.7698000000000004
2.784,-6.640199999999995,-2.9104,-0.7464999999999997
2.8039999999999994,-6.851199999999998,-3.4765999999999737,-1.0213999999999877
2.8239999999999994,-7.156199999999986,-4.322199999999976,-1.528599999999983
2.8439999999999994,-7.696399999999985,-4.939199999999987,-1.8767999999999945
2.8639999999999994,-7.804555555555563,-5.133444444444439,-1.5884444444444639
2.8839999999999995,-6.618800000000053,-5.3339999999999925,-0.973800000000018
2.9039999999999995,-5.06660000000004,-5.687199999999989,-0.7602000000000032
2.9239999999999995,-4.409400000000012,-5.994399999999988,-0.555800000000009
2.9439999999999995,-4.254000000000001,-6.3407999999999936,-0.2192000000000094
2.9639999999999995,-4.310999999999999,-5.706000000000032,-0.21599999999999347
2.9839999999999995,-3.8726000000000225,-4.512400000000036,-0.6091999999999858
3.0039999999999996,-2.6354000000000193,-3.7202000000000064,-0.9225999999999974
3.0239999999999996,-1.0244000000000215,-3.6622000000000003,-0.8838000000000015
3.0439999999999996,0.5172222222222008,-3.4067777777777812,-1.0207777777777742
3.0639999999999996,2.0381999999999816,-3.5051999999999968,-1.0498000000000023
3.0839999999999996,2.9089999999999843,-3.4993333333333383,-0.368666666666693
3.1039999999999996,3.4331111111111046,-2.9902222222222306,0.9959999999999809
3.1239999999999997,4.047799999999991,-2.2620000000000102,2.2147999999999866
3.1439999999999997,4.380999999999998,-1.3634000000000128,2.9213999999999936
3.1639999999999997,4.3432,-0.6710000000000074,3.0737999999999994
3.1839999999999997,4.240000000000002,-0.3836000000000026,3.0715999999999997
3.2039999999999997,4.135200000000002,-0.20120000000000243,3.0414000000000008
3.2239999999999993,4.243199999999991,-0.11280000000000241,2.911000000000004
3.2439999999999993,4.567999999999988,0.017599999999994176,2.884399999999998
3.2639999999999993,4.985599999999986,0.21879999999999433,2.967999999999997
3.2839999999999994,5.640599999999976,0.40259999999999335,3.0220000000000007
3.3039999999999994,6.264599999999985,0.65719999999999,3.037399999999998
3.3239999999999994,6.506799999999995,1.1825999999999814,3.1627999999999954
3.3439999999999994,6.7307999999999915,1.7399999999999838,3.41239999999999
3.3639999999999994,7.060111111111098,2.120555555555541,3.7649999999999846
3.3839999999999995,7.571299999999988,2.3449,3.916799999999999
3.4039999999999995,8.20179999999998,1.860800000000019,3.975999999999997
3.4239999999999995,8.58479999999999,1.486400000000007,4.241599999999991
3.4439999999999995,8.857222222222218,1.0496666666666783,4.3421111111111115
3.4639999999999995,9.284999999999986,-0.2219999999999493,4.202400000000005
3.4839999999999995,9.294000000000011,-1.6017999999999681,4.278999999999994
3.5039999999999996,8.82820000000001,-2.083199999999996,4.438599999999997
3.5239999999999996,7.8150000000000155,-1.3664000000000172,4.766599999999995
3.5439999999999996,7.10342857142858,-0.061285714285741644,4.994999999999998
3.5639999999999996,7.130199999999997,0.7133999999999949,4.555000000000009
3.5839999999999996,7.514399999999996,0.5248000000000062,3.9216000000000077
3.6039999999999996,7.218777777777789,-0.2389999999999827,3.496222222222229
3.6239999999999997,6.428800000000011,-1.5175999999999799,3.1486000000000045
3.6439999999999997,5.354000000000017,-2.8345555555555393,3.0799999999999996
3.6639999999999993,3.9898000000000473,-3.634199999999976,3.223199999999995
3.6839999999999993,2.7776000000000476,-3.802000000000005,3.2423999999999995
3.7039999999999993,1.4172222222222777,-3.4075555555555757,3.1204444444444555
3.7239999999999993,0.21280000000004362,-2.9315000000000184,2.790000000000012
3.7439999999999993,-0.7114999999999687,-2.6538000000000044,2.4549000000000114
3.7639999999999993,-1.40379999999998,-2.499000000000005,2.212000000000006
3.7839999999999994,-1.847599999999991,-2.535799999999997,1.9750000000000103
3.8039999999999994,-1.884818181818183,-2.692727272727268,1.543545454545467
3.8239999999999994,-1.7846000000000022,-3.1039999999999828,1.1200000000000119
3.8439999999999994,-2.217799999999982,-3.4437999999999955,0.8194000000000089
3.8639999999999994,-2.388200000000001,-3.411600000000003,0.5112000000000075
3.8839999999999995,-2.3533636363636368,-3.4761818181818116,0.3725454545454578
3.9039999999999995,-3.1883636363635977,-3.6591818181818168,0.4427272727272691
3.9239999999999995,-4.656727272727235,-3.556363636363639,0.4905454545454557
3.9439999999999995,-6.0473636363636025,-3.5838181818181782,0.22463636363637257
3.9639999999999995,-6.7927272727272605,-3.7677272727272713,-0.06309090909090326
3.9839999999999995,-7.587399999999998,-3.3338000000000116,-0.21100000000001173
4.004,-7.117363636363653,-3.2691818181818197,0.6171818181817897
4.023999999999999,-6.281545454545483,-3.4593636363636278,1.3986363636363455
4.044,-4.952800000000025,-4.131699999999984,1.341500000000008
4.063999999999999,-4.302400000000012,-5.076399999999949,0.08870000000008504
4.084,-4.29437728585178,-5.126248315688162,0.0029307025986530285
4.103999999999999,-4.296879692011549,-5.131772858517806,-0.009773820981712443
4.124,-4.299382098171319,-5.13729740134745,-0.02247834456207848
4.143999999999999,-4.301884504331087,-5.1428219441770935,-0.035182868142443945
4.164,-4.304386910490856,-5.148346487006737,-0.04788739172280998
4.183999999999999,-4.306889316650626,-5.153871029836381,-0.06059191530317545
4.204,-4.309391722810394,-5.159395572666026,-0.07329643888354148
4.223999999999999,-4.311894128970163,-5.164920115495669,-0.08600096246390695
4.244,-4.314396535129933,-5.170444658325313,-0.09870548604427298
4.263999999999999,-4.316898941289701,-5.175969201154957,-0.11141000962463847
4.284,-4.31940134744947,-5.181493743984601,-0.1241145332050045
4.303999999999999,-4.32190375360924,-5.1870182868142445,-0.13681905678536999
4.323999999999999,-4.324406159769008,-5.192542829643888,-0.14952358036573543
4.343999999999999,-4.326908565928777,-5.198067372473532,-0.1622281039461015
4.363999999999999,-4.329410972088546,-5.203591915303176,-0.17493262752646693
4.3839999999999995,-4.3319133782483155,-5.20911645813282,-0.187637151106833
4.403999999999999,-4.334415784408084,-5.214641000962464,-0.20034167468719843
4.4239999999999995,-4.336918190567854,-5.220165543792108,-0.2130461982675645
4.443999999999999,-4.3394205967276225,-5.225690086621752,-0.22575072184792994
4.4639999999999995,-4.341923002887391,-5.2312146294513955,-0.238455245428296
4.483999999999999,-4.344425409047161,-5.236739172281039,-0.25115976900866144
4.504,-4.3469278152069295,-5.242263715110684,-0.2638642925890275
4.523999999999999,-4.349430221366698,-5.247788257940328,-0.27656881616939294
4.544,-4.351932627526468,-5.253312800769971,-0.289273339749759
4.563999999999999,-4.3544350336862365,-5.258837343599615,-0.30197786333012444
4.584,-4.356937439846005,-5.264361886429259,-0.3146823869104905
4.603999999999999,-4.359439846005775,-5.269886429258903,-0.32738691049085594
4.624,-4.3619422521655435,-5.275410972088547,-0.340091434071222
4.643999999999999,-4.364444658325312,-5.280935514918191,-0.35279595765158744
4.664,-4.366947064485082,-5.286460057747835,-0.3655004812319535
4.683999999999999,-4.369449470644851,-5.291984600577479,-0.37820500481231895
4.704,-4.371951876804619,-5.297509143407122,-0.390909528392685
4.723999999999999,-4.374454282964389,-5.303033686236766,-0.40361405197305045
4.743999999999999,-4.376956689124158,-5.30855822906641,-0.41631857555341595
4.763999999999999,-4.379459095283926,-5.314082771896054,-0.42902309913378195
4.783999999999999,-4.381961501443695,-5.3196073147256975,-0.44172762271414745
4.803999999999999,-4.384463907603465,-5.325131857555342,-0.45443214629451345
4.823999999999999,-4.386966313763233,-5.330656400384986,-0.46713666987487895
4.843999999999999,-4.389468719923003,-5.33618094321463,-0.47984119345524495
4.863999999999999,-4.391971126082772,-5.341705486044273,-0.49254571703561045
4.8839999999999995,-4.39447353224254,-5.347230028873917,-0.5052502406159765
4.903999999999999,-4.39697593840231,-5.352754571703561,-0.5179547641963419
4.9239999999999995,-4.399478344562079,-5.358279114533206,-0.530659287776708
4.943999999999999,-4.401980750721847,-5.363803657362849,-0.5433638113570735
4.9639999999999995,-4.404483156881617,-5.369328200192493,-0.5560683349374395
4.983999999999999,-4.406985563041386,-5.374852743022137,-0.5687728585178049
5.004,-4.409487969201154,-5.380377285851781,-0.581477382098171
5.023999999999999,-4.411990375360924,-5.385901828681424,-0.5941819056785365
5.044,-4.414492781520693,-5.391426371511068,-0.6068864292589025
5.063999999999999,-4.416995187680461,-5.396950914340712,-0.619590952839268
5.084,-4.419497593840231,-5.402475457170357,-0.632295476419634
5.103999999999999,-4.422,-5.408,-0.6449999999999995
5.124,-8.575,-2.403,-3.343
5.143999999999999,-7.683000000000044,-3.1399999999999695,-2.977000000000024
5.163999999999999,-6.413000000000057,-3.479999999999992,-1.9310000000000538
5.183999999999999,-5.621411764705931,-3.5676470588235243,-1.1960000000000397
5.203999999999999,-3.240000000000255,-3.969999999999923,0.22799999999990922
5.223999999999999,-1.4410000000000527,-5.087999999999954,0.1710000000000175
5.243999999999999,-1.360999999999998,-5.592999999999984,-0.40199999999997693
5.263999999999999,-1.5269999999999826,-5.678000000000011,-0.505000000000001
5.283999999999999,-2.0903749999999803,-4.594375000000056,-0.1501250000000252
5.303999999999999,-1.7440000000000428,-2.6910000000000727,0.9129999999999532
5.323999999999999,0.0919999999999106,-1.696000000000043,1.2390000000000014
5.343999999999999,1.9209999999999239,-1.119000000000015,0.2930000000000538
5.363999999999999,3.391999999999939,-1.149999999999997,-0.6819999999999651
5.3839999999999995,4.413999999999959,-1.32799999999999,-0.7760000000000078
5.403999999999999,5.196999999999966,-1.459999999999996,-0.004000000000040194
5.4239999999999995,5.779999999999978,-1.2880000000000116,1.0509999999999544
5.443999999999999,5.788000000000008,-0.6370000000000382,1.7519999999999716
5.4639999999999995,5.175000000000018,0.4686363636363435,2.0562727272727255
5.483999999999999,4.365000000000044,1.1479999999999713,2.0490000000000035
5.504,3.546363636363642,1.3973636363636361,1.8526363636363667
5.523999999999999,3.431000000000001,1.3960000000000004,1.8589999999999947
5.544,3.5635999999999926,1.3357000000000023,2.034799999999999
5.563999999999999,3.8189999999999893,1.2070000000000074,1.9920000000000047
5.583999999999999,4.09729999999999,1.0006000000000135,1.821400000000005
5.603999999999999,4.219799999999998,0.7936000000000046,1.8297999999999932
5.623999999999999,4.327299999999987,0.6845999999999921,2.1014999999999664
5.643999999999999,4.595999999999985,0.8349999999999919,2.5139999999999834
5.663999999999999,5.341999999999935,0.9314999999999738,2.689799999999999
5.683999999999999,6.226199999999979,1.4358999999999835,2.685500000000003
5.703999999999999,6.972399999999939,1.9487999999999874,2.502100000000017
5.723999999999999,7.808999999999983,2.0105000000000013,2.3175
5.743999999999999,8.303699999999973,1.9173000000000167,2.3969999999999883
5.763999999999999,8.751272727272715,1.6098181818181942,2.5980909090909017
5.783999999999999,9.059399999999993,1.007800000000067,2.8124999999999867
5.803999999999999,9.215199999999998,-0.11519999999996686,3.056499999999987
5.823999999999999,9.006700000000066,-1.0440000000000142,3.687599999999921
5.843999999999999,7.97300000000005,-0.4340000000000419,4.737999999999956
5.863999999999999,6.813800000000046,0.9534999999999169,5.7675999999999545
5.8839999999999995,6.506199999999989,1.8599999999999905,6.313399999999991
5.903999999999999,7.001999999999983,2.107300000000006,6.524500000000003
5.9239999999999995,7.461071428571423,1.8125714285714334,6.353214285714289
5.943999999999999,7.985099999999994,0.8541000000000392,5.749300000000023
5.9639999999999995,7.975700000000015,-0.5786999999999565,5.010000000000019
5.983999999999999,7.265400000000031,-2.2540999999999527,4.3623000000000145
6.003999999999999,6.342100000000068,-3.7230999999999232,3.9802000000000066
6.023999999999999,5.353666666666727,-4.46116666666664,3.9599166666666643
6.043999999999999,3.9083000000000974,-4.522200000000021,4.071699999999994
6.063999999999999,2.611600000000034,-4.194400000000006,4.121900000000003
6.083999999999999,1.6806428571429044,-4.235785714285706,3.964500000000018
6.103999999999999,0.8695000000000184,-4.350500000000012,3.5071000000000265
6.123999999999999,0.2895000000000263,-3.989300000000018,2.4788000000000885
6.143999999999999,-0.04469999999999323,-3.89049999999999,1.26200000000003
6.163999999999999,-0.35119999999995,-4.4119999999999635,0.17480000000008555
6.183999999999999,-1.4649999999999388,-4.874199999999997,-0.9527999999999746
6.203999999999999,-4.001142857142764,-4.705571428571438,-1.770476190476164
6.223999999999999,-5.3039999999999425,-4.577000000000005,-2.1399999999999837
6.243999999999999,-8.011999999999945,-3.932000000000023,-3.6609999999999525
6.263999999999999,-8.557400000000003,-3.4779000000000004,-4.463999999999991
6.283999999999999,-8.214800000000062,-3.545599999999999,-4.542300000000047
6.303999999999999,-7.205000000000033,-3.6119090909090885,-3.713818181818212
6.323999999999999,-6.142000000000043,-3.678999999999998,-2.589000000000053
6.343999999999999,-5.937,-3.6142999999999974,-2.001199999999994
6.363999999999999,-5.898300000000022,-3.8204999999999396,-2.5299999999999376
6.3839999999999995,-5.501000000000008,-4.858399999999971,-3.347499999999983
6.403999999999999,-5.191500000000012,-5.9463999999999775,-3.7718000000000034
6.423999999999999,-4.632800000000051,-6.364000000000029,-3.522100000000022
6.443999999999999,-3.9490000000000265,-5.541200000000046,-3.257000000000018
6.463999999999999,-2.8326000000001046,-4.082100000000091,-2.3560000000001
6.483999999999999,-1.4580000000000397,-2.883100000000027,-1.0744000000000253
6.503999999999999,-0.12877777777788035,-2.1122222222222686,-0.3750000000000401
6.523999999999999,1.20119999999996,-1.532400000000014,0.12799999999998324
6.543999999999999,2.4528999999999135,-1.2272999999999883,0.6305999999999679
6.563999999999999,3.5843999999999734,-1.5500999999999863,1.0255999999999896
6.583999999999999,4.274199999999978,-1.8802999999999925,1.3029999999999928
6.603999999999999,4.380927738927739,-1.861853146853147,1.278878787878788
6.623999999999999,4.379482517482518,-1.858916083916084,1.2764545454545455
6.643999999999999,4.378037296037296,-1.8559790209790212,1.274030303030303
6.663999999999999,4.376592074592075,-1.8530419580419584,1.2716060606060606
6.683999999999999,4.375146853146854,-1.8501048951048953,1.2691818181818182
6.703999999999999,4.373701631701632,-1.8471678321678324,1.2667575757575757
6.723999999999999,4.37225641025641,-1.8442307692307693,1.2643333333333333
6.743999999999999,4.370811188811189,-1.8412937062937065,1.2619090909090909
6.763999999999999,4.369365967365968,-1.8383566433566436,1.2594848484848484
6.783999999999999,4.367920745920746,-1.8354195804195805,1.257060606060606
6.803999999999999,4.366475524475525,-1.8324825174825177,1.2546363636363635
6.823999999999999,4.365030303030303,-1.8295454545454548,1.2522121212121213
6.843999999999999,4.363585081585081,-1.8266083916083917,1.2497878787878787
6.863999999999999,4.362139860139861,-1.8236713286713289,1.2473636363636365
6.883999999999999,4.360694638694639,-1.820734265734266,1.244939393939394
6.903999999999999,4.359249417249417,-1.817797202797203,1.2425151515151516
6.923999999999999,4.357804195804196,-1.81486013986014,1.2400909090909091
6.943999999999999,4.356358974358975,-1.8119230769230772,1.2376666666666667
6.963999999999999,4.354913752913753,-1.8089860139860143,1.2352424242424243
6.983999999999999,4.353468531468532,-1.8060489510489512,1.2328181818181818
7.003999999999999,4.35202331002331,-1.8031118881118884,1.2303939393939394
7.023999999999999,4.3505780885780885,-1.8001748251748253,1.227969696969697
7.043999999999999,4.349132867132868,-1.7972377622377624,1.2255454545454547
7.063999999999999,4.347687645687646,-1.7943006993006994,1.223121212121212
7.083999999999999,4.3462424242424245,-1.7913636363636365,1.2206969696969698
7.103999999999999,4.344797202797203,-1.7884265734265736,1.2182727272727272
7.123999999999999,4.343351981351982,-1.7854895104895108,1.215848484848485
7.143999999999999,4.3419067599067604,-1.7825524475524477,1.2134242424242425
7.163999999999999,4.340461538461539,-1.7796153846153848,1.211
7.183999999999999,4.339016317016317,-1.7766783216783217,1.2085757575757576
7.203999999999999,4.3375710955710955,-1.7737412587412589,1.2061515151515152
7.223999999999999,4.336125874125875,-1.770804195804196,1.2037272727272728
7.243999999999999,4.334680652680653,-1.7678671328671332,1.2013030303030303
7.263999999999999,4.3332354312354315,-1.76493006993007,1.1988787878787879
7.283999999999999,4.33179020979021,-1.7619930069930072,1.1964545454545454
7.3039999999999985,4.330344988344988,-1.7590559440559443,1.1940303030303032
7.323999999999999,4.3288997668997675,-1.7561188811188813,1.1916060606060606
7.3439999999999985,4.327454545454546,-1.7531818181818184,1.1891818181818183
7.363999999999999,4.326009324009324,-1.7502447552447555,1.186757575757576
7.383999999999999,4.324564102564103,-1.7473076923076925,1.1843333333333335
7.403999999999999,4.323118881118881,-1.7443706293706296,1.181909090909091
7.423999999999999,4.32167365967366,-1.7414335664335667,1.1794848484848486
7.443999999999999,4.320228438228439,-1.7384965034965036,1.1770606060606061
7.463999999999999,4.318783216783217,-1.7355594405594408,1.1746363636363637
7.483999999999999,4.317337995337995,-1.7326223776223777,1.1722121212121213
7.503999999999999,4.315892773892775,-1.7296853146853148,1.1697878787878788
7.523999999999999,4.314447552447553,-1.726748251748252,1.1673636363636364
7.543999999999999,4.313002331002331,-1.723811188811189,1.164939393939394
7.563999999999999,4.31155710955711,-1.720874125874126,1.1625151515151515
7.583999999999999,4.310111888111888,-1.7179370629370632,1.1600909090909093
7.603999999999999,4.308666666666667,-1.715,1.1576666666666666
7.623999999999999,4.307221445221446,-1.7120629370629372,1.1552424242424244
7.643999999999999,4.305776223776224,-1.7091258741258741,1.1528181818181817
7.663999999999999,4.304331002331002,-1.7061888111888113,1.1503939393939395
7.683999999999999,4.302885780885781,-1.7032517482517484,1.147969696969697
7.703999999999999,4.30144055944056,-1.7003146853146855,1.1455454545454546
7.723999999999998,4.299995337995338,-1.6973776223776227,1.1431212121212122
7.743999999999999,4.298550116550117,-1.6944405594405596,1.1406969696969698
7.7639999999999985,4.297104895104895,-1.6915034965034967,1.1382727272727273
7.783999999999999,4.295659673659674,-1.6885664335664337,1.1358484848484849
7.8039999999999985,4.294214452214453,-1.6856293706293708,1.1334242424242427
7.823999999999999,4.292769230769231,-1.682692307692308,1.131
7.8439999999999985,4.2913240093240095,-1.679755244755245,1.1285757575757578
7.863999999999999,4.289878787878788,-1.676818181818182,1.1261515151515153
7.883999999999999,4.288433566433567,-1.6738811188811191,1.123727272727273
7.903999999999999,5.449799999999918,-1.044399999999932,2.976199999999984
7.923999999999999,6.947444444444382,-1.6942222222222114,3.3921111111110926
7.943999999999999,8.053499999999955,-1.7085000000000086,3.7214999999999825
7.963999999999999,9.284399999999911,-1.416600000000022,4.280799999999957
7.983999999999999,10.965399999999898,-1.204400000000004,4.882399999999972
8.003999999999998,12.521111111110963,-0.8665555555556845,5.334999999999962
8.024,13.444799999999983,0.3041999999999365,5.568999999999991
8.043999999999999,13.420777777777806,1.2416666666666463,5.756555555555536
8.063999999999998,12.549100000000115,1.313700000000024,5.95910000000001
8.083999999999998,11.519666666666696,0.7204444444446183,5.750666666666722
8.103999999999997,11.36709090909096,-0.46681818181806145,5.195090909091022
8.123999999999999,10.914111111111168,-1.222111111111088,4.4240000000000546
8.143999999999998,9.66790000000013,-0.9520000000000991,3.715200000000028
8.163999999999998,8.348000000000102,0.4043999999997877,3.622199999999981
8.183999999999997,8.2406999999999,1.7606999999999084,3.779199999999978
8.203999999999997,9.246090909090778,2.3275454545454246,4.058727272727251
8.223999999999998,10.085222222222162,2.344888888888912,4.047888888888906
8.243999999999998,10.866545454545415,1.7218181818182705,3.6641818181818553
8.263999999999998,11.026200000000017,0.47940000000015814,3.415499999999997
8.283999999999997,10.658800000000127,-1.0138999999997593,3.5985999999999385
8.303999999999998,9.825111111111175,-2.2356666666666034,3.8934444444444325
8.323999999999998,8.71145454545465,-2.945909090909072,4.146727272727255
8.343999999999998,7.4626000000002035,-3.0528000000000173,4.25420000000001
8.363999999999997,5.882600000000262,-2.8362000000000562,4.181000000000011
8.383999999999999,4.664666666666745,-2.839444444444425,4.177666666666666
8.403999999999998,3.180444444444539,-3.0031111111111013,4.00822222222226
8.423999999999998,1.9318888888890418,-3.2489999999999513,3.2214444444446033
8.443999999999997,0.8991000000001631,-3.5812999999999557,2.135600000000151
8.463999999999999,-0.10119999999994501,-3.7349999999999928,1.3680000000000352
8.483999999999998,-1.2383999999998951,-3.8700000000000014,0.7736000000000294
8.503999999999998,-2.784799999999763,-3.7160000000000286,0.3280000000000853
8.523999999999997,-4.372399999999823,-3.4286000000000674,-0.3159999999998991
8.543999999999999,-5.300888888888872,-2.9093333333333598,-0.8704444444444388
8.563999999999998,-5.7102222222222245,-2.0216666666666945,-0.7307777777778229
8.583999999999998,-5.486222222222261,-2.146333333333237,0.12511111111100193
8.603999999999997,-5.294666666666674,-2.6979999999999764,0.6047777777777751
8.623999999999997,-5.289800000000011,-2.615000000000051,0.5292000000000425
8.643999999999998,-5.19055555555557,-2.466777777777765,0.23577777777780043
8.663999999999998,-4.8336666666667485,-2.9663333333331905,-0.09166666666661963
8.683999999999997,-4.255900000000036,-4.068299999999925,-0.4589999999999595
8.703999999999997,-4.089000000000027,-4.377900000000026,-0.7795999999999554
8.723999999999998,-3.840333333333354,-4.121777777777814,-0.9364444444444453
8.743999999999998,-3.6089000000000127,-3.034000000000128,-0.5319000000000763
8.763999999999998,-3.2060000000001505,-1.6378000000001425,0.4421999999998604
8.783999999999997,-1.98887500000023,-1.0102500000000114,1.1897499999999446
8.803999999999998,-0.5185000000000872,-0.8187000000000305,1.4450000000000032
8.823999999999998,0.5613999999999075,-0.5128000000000007,1.2272000000000425
8.843999999999998,1.4937777777776922,-0.6693333333332929,0.612888888889003
8.863999999999997,1.7988999999999888,-0.7636000000000128,0.005500000000065813
8.883999999999999,1.8806666666666638,-0.6744444444444513,-0.3135555555555368
8.903999999999998,1.8614000000000162,-0.4618000000000294,-0.4744000000000035
8.923999999999998,1.6653333333333418,-0.08011111111115587,-0.27244444444450033
8.943999999999997,1.709799999999971,0.18839999999996693,0.21799999999991226
8.963999999999999,1.9522999999999664,0.3091000000000101,0.8380999999999446
8.983999999999998,2.514399999999943,0.037200000000034525,1.5319999999999472
9.003999999999998,3.2782222222221065,-0.4004444444443874,2.126444444444377
9.023999999999997,4.107799999999877,-0.9065999999998913,2.5616999999999326
9.043999999999997,4.76966666666655,-1.5474444444443403,2.8912222222221744
9.063999999999998,5.797699999999896,-2.0963999999999783,3.312499999999964
9.083999999999998,7.06029999999989,-2.143900000000025,3.746699999999965
9.103999999999997,8.461999999999753,-1.5868888888890444,4.242333333333216
9.123999999999997,9.860699999999767,-0.4960000000001823,4.859499999999971
9.143999999999998,11.574499999999839,0.39939999999994275,4.743300000000045
9.163999999999998,13.71659999999983,1.1118999999999388,4.237600000000032
9.183999999999997,15.261899999999935,1.95949999999992,3.999899999999993
9.203999999999997,15.203600000000165,2.2656000000000733,4.109199999999978
9.223999999999998,14.269500000000049,1.3696000000001196,4.0422000000000375
9.243999999999998,13.852500000000031,0.075300000000051,3.4633000000000513
9.263999999999998,13.198000000000125,-0.06590909090916915,3.0219090909091046
9.283999999999997,12.034909090909231,0.9671818181816565,3.138999999999969
9.303999999999998,11.012000000000082,2.1313333333332487,3.2760000000000056
9.323999999999998,10.360333333333378,2.73299999999999,3.0666666666666944
9.343999999999998,9.937400000000048,2.441200000000074,2.776000000000018
9.363999999999997,9.361333333333407,1.6923333333334154,2.737666666666654
9.383999999999999,8.665600000000063,0.4840000000001663,2.9005999999999754
9.403999999999998,7.907818181818269,-0.922272727272623,3.1839090909090606
9.423999999999998,6.955400000000098,-2.0433999999999104,3.487999999999955
9.443999999999997,6.22183148606478,-2.6130083934143977,3.860051974604541
9.463999999999997,6.22070805982998,-2.6130643495103842,3.8603984719681477
9.483999999999998,6.21958463359518,-2.6131203056063703,3.860744969331755
9.503999999999998,6.218461207360379,-2.6131762617023564,3.861091466695362
9.523999999999997,6.217337781125579,-2.613232217798343,3.861437964058969
9.543999999999997,6.216214354890779,-2.613288173894329,3.861784461422576
9.563999999999998,6.215090928655978,-2.613344129990315,3.862130958786183
9.583999999999998,6.213967502421178,-2.6134000860863016,3.86247745614979
9.603999999999997,6.212844076186378,-2.6134560421822877,3.862823953513397
9.623999999999997,6.211720649951577,-2.6135119982782737,3.863170450877004
9.643999999999998,6.210597223716777,-2.6135679543742603,3.863516948240611
9.663999999999998,6.2094737974819765,-2.6136239104702463,3.8638634456042182
9.683999999999997,6.2083503712471755,-2.6136798665662324,3.864209942967825
9.703999999999997,6.207226945012375,-2.613735822662219,3.864556440331432
9.723999999999998,6.206103518777575,-2.613791778758205,3.8649029376950392
9.743999999999998,6.204980092542774,-2.613847734854191,3.865249435058646
9.763999999999998,6.203856666307974,-2.6139036909501776,3.865595932422253
9.783999999999997,6.202733240073174,-2.6139596470461637,3.8659424297858602
9.803999999999998,6.201609813838374,-2.61401560314215,3.8662889271494674
9.823999999999998,6.200486387603573,-2.6140715592381363,3.866635424513074
9.843999999999998,6.199362961368773,-2.6141275153341224,3.866981921876681
9.863999999999997,6.198239535133973,-2.614183471430109,3.8673284192402884
9.883999999999997,6.197116108899172,-2.614239427526095,3.867674916603895
9.903999999999998,6.195992682664372,-2.614295383622081,3.868021413967502
9.923999999999998,6.1948692564295715,-2.6143513397180675,3.8683679113311094
9.943999999999997,6.1937458301947705,-2.6144072958140536,3.868714408694716
9.963999999999997,6.19262240395997,-2.6144632519100397,3.869060906058323
9.983999999999998,6.19149897772517,-2.614519208006026,3.8694074034219303
10.003999999999998,6.190375551490369,-2.6145751641020123,3.8697539007855375
10.023999999999997,6.189252125255569,-2.6146311201979984,3.870100398149144
10.043999999999997,6.188128699020769,-2.614687076293985,3.8704468955127513
10.063999999999998,6.187005272785968,-2.614743032389971,3.8707933928763585
10.083999999999998,6.185881846551168,-2.614798988485957,3.871139890239965
10.103999999999997,6.184758420316368,-2.6148549445819436,3.8714863876035723
10.123999999999997,6.183634994081568,-2.6149109006779296,3.8718328849671795
10.143999999999998,6.182511567846767,-2.6149668567739157,3.8721793823307866
10.163999999999998,6.181388141611967,-2.6150228128699022,3.8725258796943933
10.183999999999997,6.180264715377167,-2.6150787689658883,3.8728723770580005
10.203999999999997,6.179141289142366,-2.6151347250618744,3.8732188744216076
10.223999999999998,6.1780178629075655,-2.615190681157861,3.8735653717852143
10.243999999999998,6.176894436672765,-2.615246637253847,3.8739118691488215
10.263999999999998,6.175771010437964,-2.615302593349833,3.8742583665124286
10.283999999999997,6.174647584203164,-2.6153585494458196,3.8746048638760358
10.303999999999997,6.173524157968364,-2.6154145055418057,3.8749513612396425
10.323999999999998,6.172400731733563,-2.6154704616377917,3.8752978586032496
10.343999999999998,6.171277305498763,-2.6155264177337783,3.8756443559668567
10.363999999999997,6.170153879263963,-2.6155823738297643,3.8759908533304634
10.383999999999997,6.169030453029162,-2.6156383299257504,3.8763373506940706
10.403999999999998,6.167907026794362,-2.615694286021737,3.8766838480576777
10.423999999999998,6.166783600559562,-2.615750242117723,3.877030345421285
10.443999999999997,6.165660174324761,-2.615806198213709,3.8773768427848916
10.463999999999997,6.164536748089961,-2.6158621543096956,3.8777233401484987
10.483999999999998,6.1634133218551606,-2.6159181104056817,3.878069837512106
10.503999999999998,6.16228989562036,-2.6159740665016677,3.8784163348757126
10.523999999999997,6.1611664693855595,-2.6160300225976543,3.8787628322393197
10.543999999999997,6.160043043150759,-2.6160859786936403,3.879109329602927
10.563999999999998,6.158919616915958,-2.6161419347896264,3.8794558269665336
10.583999999999998,6.157796190681158,-2.616197890885613,3.8798023243301407
10.603999999999997,6.156672764446358,-2.616253846981599,3.880148821693748
10.623999999999997,6.155549338211558,-2.616309803077585,3.880495319057355
10.643999999999998,6.154425911976757,-2.6163657591735716,3.8808418164209617
10.663999999999998,6.153302485741957,-2.6164217152695577,3.881188313784569
10.683999999999997,6.152179059507157,-2.6164776713655438,3.881534811148176
10.703999999999997,6.151055633272356,-2.6165336274615303,3.8818813085117827
10.723999999999997,6.149932207037556,-2.6165895835575164,3.88222780587539
10.743999999999998,6.148808780802756,-2.6166455396535024,3.882574303238997
10.763999999999998,6.147685354567955,-2.616701495749489,3.882920800602604
10.783999999999997,6.1465619283331545,-2.616757451845475,3.883267297966211
10.803999999999997,6.145438502098354,-2.616813407941461,3.883613795329818
10.823999999999998,6.144315075863553,-2.6168693640374476,3.883960292693425
10.843999999999998,6.143191649628753,-2.6169253201334337,3.884306790057032
10.863999999999997,6.142068223393953,-2.61698127622942,3.884653287420639
10.883999999999997,6.140944797159153,-2.6170372323254063,3.884999784784246
10.903999999999998,6.139821370924352,-2.6170931884213924,3.8853462821478533
10.923999999999998,6.138697944689552,-2.6171491445173785,3.88569277951146
10.943999999999997,6.137574518454752,-2.617205100613365,3.886039276875067
10.963999999999997,6.136451092219951,-2.617261056709351,3.8863857742386743
10.983999999999998,6.135327665985151,-2.617317012805337,3.886732271602281
11.003999999999998,6.134204239750351,-2.6173729689013236,3.887078768965888
11.023999999999997,6.13308081351555,-2.6174289249973097,3.8874252663294953
11.043999999999997,6.13195738728075,-2.617484881093296,3.887771763693102
11.063999999999998,6.1308339610459495,-2.6175408371892823,3.888118261056709
11.083999999999998,6.1297105348111485,-2.6175967932852684,3.8884647584203162
11.103999999999997,6.128587108576348,-2.6176527493812545,3.8888112557839234
11.123999999999997,6.127463682341548,-2.617708705477241,3.88915775314753
11.143999999999997,6.126340256106747,-2.617764661573227,3.8895042505111372
11.163999999999998,6.125216829871947,-2.617820617669213,3.8898507478747444
11.183999999999997,6.124093403637147,-2.6178765737651997,3.890197245238351
11.203999999999997,6.122969977402346,-2.6179325298611857,3.8905437426019582
11.223999999999997,6.121846551167546,-2.617988485957172,3.8908902399655654
11.243999999999998,6.120723124932746,-2.6180444420531583,3.8912367373291725
11.263999999999998,6.119599698697945,-2.6181003981491444,3.8915832346927792
11.283999999999997,6.118476272463145,-2.6181563542451305,3.8919297320563864
11.303999999999997,6.117352846228345,-2.618212310341117,3.8922762294199935
11.323999999999998,6.116229419993544,-2.618268266437103,3.8926227267836
11.343999999999998,6.1151059937587435,-2.618324222533089,3.8929692241472074
11.363999999999997,6.113982567523943,-2.6183801786290757,3.8933157215108145
11.383999999999997,6.112859141289143,-2.6184361347250618,3.893662218874421
11.403999999999998,6.111735715054342,-2.618492090821048,3.8940087162380284
11.423999999999998,6.110612288819542,-2.6185480469170344,3.8943552136016355
11.443999999999997,6.109488862584742,-2.6186040030130204,3.8947017109652426
11.463999999999997,6.108365436349941,-2.6186599591090065,3.8950482083288493
11.483999999999998,6.107242010115141,-2.618715915204993,3.8953947056924565
11.503999999999998,6.106118583880341,-2.618771871300979,3.8957412030560636
11.523999999999997,6.10499515764554,-2.618827827396965,3.8960877004196703
11.543999999999997,6.10387173141074,-2.6188837834929517,3.8964341977832775
11.563999999999997,6.10274830517594,-2.6189397395889378,3.8967806951468846
11.583999999999998,6.101624878941139,-2.618995695684924,3.8971271925104918
11.603999999999997,6.100501452706339,-2.6190516517809104,3.8974736898740985
11.623999999999997,6.0993780264715385,-2.6191076078768964,3.8978201872377056
11.643999999999997,6.098254600236738,-2.6191635639728825,3.8981666846013128
11.663999999999998,6.097131174001937,-2.619219520068869,3.8985131819649195
11.683999999999997,6.096007747767137,-2.619275476164855,3.8988596793285266
11.703999999999997,6.094884321532337,-2.6193314322608416,3.8992061766921338
11.723999999999997,6.093760895297536,-2.6193873883568277,3.899552674055741
11.743999999999998,6.092637469062736,-2.619443344452814,3.8998991714193476
11.763999999999998,6.091514042827936,-2.6194993005488003,3.9002456687829548
11.783999999999997,6.090390616593135,-2.6195552566447864,3.900592166146562
11.803999999999997,6.089267190358335,-2.6196112127407725,3.9009386635101686
11.823999999999998,6.088143764123535,-2.619667168836759,3.9012851608737757
11.843999999999998,6.087020337888734,-2.619723124932745,3.901631658237383
11.863999999999997,6.085896911653934,-2.619779081028731,3.9019781556009896
11.883999999999997,6.0847734854191335,-2.6198350371247177,3.9023246529645967
11.903999999999998,6.0836500591843325,-2.6198909932207037,3.902671150328204
11.923999999999998,6.082526632949532,-2.61994694931669,3.903017647691811
11.943999999999997,6.081403206714732,-2.6200029054126763,3.9033641450554177
11.963999999999997,6.080279780479931,-2.6200588615086624,3.903710642419025
11.983999999999996,6.079156354245131,-2.6201148176046485,3.904057139782632
12.003999999999998,6.078032928010331,-2.620170773700635,3.9044036371462387
12.023999999999997,6.07690950177553,-2.620226729796621,3.904750134509846
12.043999999999997,6.07578607554073,-2.620282685892607,3.905096631873453
12.063999999999997,6.07466264930593,-2.6203386419885937,3.90544312923706
12.083999999999998,6.073539223071129,-2.6203945980845798,3.905789626600667
12.103999999999997,6.072415796836329,-2.620450554180566,3.906136123964274
12.123999999999997,6.071292370601529,-2.6205065102765523,3.906482621327881
12.143999999999997,6.070168944366729,-2.6205624663725384,3.906829118691488
12.163999999999998,6.069045518131928,-2.6206184224685245,3.907175616055095
12.183999999999997,6.0679220918971275,-2.620674378564511,3.907522113418702
12.203999999999997,6.066798665662327,-2.620730334660497,3.9078686107823093
12.223999999999997,6.065675239427526,-2.620786290756483,3.908215108145916
12.243999999999998,6.064551813192726,-2.6208422468524697,3.908561605509523
12.263999999999998,6.063428386957926,-2.6208982029484558,3.9089081028731303
12.283999999999997,6.062304960723125,-2.620954159044442,3.909254600236737
12.303999999999997,6.061181534488325,-2.6210101151404284,3.909601097600344
12.323999999999998,6.060058108253525,-2.6210660712364144,3.9099475949639513
12.343999999999998,6.058934682018724,-2.6211220273324005,3.9102940923275584
12.363999999999997,6.057811255783924,-2.621177983428387,3.910640589691165
12.383999999999997,6.056687829549124,-2.621233939524373,3.9109870870547723
12.403999999999996,6.055564403314323,-2.621289895620359,3.9113335844183794
12.423999999999998,6.054440977079523,-2.6213458517163457,3.911680081781986
12.443999999999997,6.053317550844723,-2.621401807812332,3.9120265791455933
12.463999999999997,6.0521941246099225,-2.621457763908318,3.9123730765092004
12.483999999999996,6.0510706983751215,-2.6215137200043044,3.912719573872807
12.503999999999998,6.049947272140321,-2.6215696761002905,3.9130660712364143
12.523999999999997,6.048823845905521,-2.6216256321962765,3.9134125686000214
12.543999999999997,6.04770041967072,-2.621681588292263,3.9137590659636285
12.563999999999997,6.04657699343592,-2.621737544388249,3.9141055633272352
12.583999999999998,6.04545356720112,-2.621793500484235,3.9144520606908424
12.603999999999997,6.044330140966319,-2.6218494565802217,3.9147985580544495
12.623999999999997,6.043206714731519,-2.621905412676208,3.9151450554180562
12.643999999999997,6.042083288496719,-2.621961368772194,3.9154915527816634
12.663999999999998,6.040959862261918,-2.6220173248681804,3.9158380501452705
12.683999999999997,6.039836436027118,-2.6220732809641665,3.9161845475088777
12.703999999999997,6.038713009792318,-2.6221292370601526,3.9165310448724844
12.723999999999997,6.037589583557517,-2.622185193156139,3.9168775422360915
12.743999999999998,6.0364661573227165,-2.622241149252125,3.9172240395996987
12.763999999999998,6.035342731087916,-2.6222971053481112,3.9175705369633054
12.783999999999997,6.034219304853115,-2.6223530614440977,3.9179170343269125
12.803999999999997,6.033095878618315,-2.622409017540084,3.9182635316905197
12.823999999999996,6.031972452383515,-2.62246497363607,3.9186100290541264
12.843999999999998,6.030849026148714,-2.6225209297320564,3.9189565264177335
12.863999999999997,6.029725599913914,-2.6225768858280425,3.9193030237813407
12.883999999999997,6.028602173679114,-2.6226328419240286,3.919649521144948
12.903999999999996,6.027478747444314,-2.622688798020015,3.9199960185085545
12.923999999999998,6.026355321209513,-2.622744754116001,3.9203425158721616
12.943999999999997,6.025231894974713,-2.6228007102119872,3.920689013235769
12.963999999999997,6.024108468739913,-2.6228566663079738,3.9210355105993755
12.983999999999996,6.022985042505112,-2.62291262240396,3.9213820079629826
13.003999999999998,6.021861616270312,-2.622968578499946,3.92172850532659
13.023999999999997,6.0207381900355115,-2.6230245345959324,3.922075002690197
13.043999999999997,6.0196147638007105,-2.6230804906919185,3.9224215000538036
13.063999999999997,6.01849133756591,-2.6231364467879046,3.922767997417411
13.083999999999998,6.01736791133111,-2.623192402883891,3.923114494781018
13.103999999999997,6.016244485096309,-2.623248358979877,3.9234609921446246
13.123999999999997,6.015121058861509,-2.6233043150758633,3.9238074895082318
13.143999999999997,6.013997632626709,-2.62336027117185,3.924153986871839
13.163999999999998,6.012874206391908,-2.623416227267836,3.924500484235446
13.183999999999997,6.011750780157108,-2.623472183363822,3.9248469815990528
13.203999999999997,6.010627353922308,-2.6235281394598085,3.92519347896266
13.223999999999997,6.009503927687508,-2.6235840955557945,3.925539976326267
13.243999999999998,6.008380501452707,-2.6236400516517806,3.9258864736898738
13.263999999999998,6.007257075217907,-2.623696007747767,3.926232971053481
13.283999999999997,6.0061336489831065,-2.623751963843753,3.926579468417088
13.303999999999997,6.0050102227483055,-2.6238079199397393,3.9269259657806947
13.323999999999996,6.003886796513505,-2.623863876035726,3.927272463144302
13.343999999999998,6.002763370278705,-2.623919832131712,3.927618960507909
13.363999999999997,6.001639944043904,-2.623975788227698,3.927965457871516
13.383999999999997,6.000516517809104,-2.6240317443236845,3.928311955235123
13.403999999999996,5.999393091574304,-2.6240877004196705,3.92865845259873
13.423999999999998,5.998269665339503,-2.6241436565156566,3.929004949962337
13.443999999999997,5.997146239104703,-2.624199612611643,3.929351447325944
13.463999999999997,5.996022812869903,-2.624255568707629,3.929697944689551
13.483999999999996,5.994899386635102,-2.6243115248036153,3.930044442053158
13.503999999999998,5.993775960400302,-2.624367480899602,3.9303909394167653
13.523999999999997,5.992652534165502,-2.624423436995588,3.930737436780372
13.543999999999997,5.991529107930701,-2.6244793930915744,3.931083934143979
13.563999999999997,5.990405681695901,-2.6245353491875605,3.9314304315075863
13.583999999999998,5.9892822554611005,-2.6245913052835466,3.931776928871193
13.603999999999997,5.9881588292262995,-2.624647261379533,3.9321234262348
13.623999999999997,5.987035402991499,-2.624703217475519,3.9324699235984073
13.643999999999997,5.985911976756699,-2.6247591735715052,3.9328164209620144
13.663999999999998,5.984788550521898,-2.6248151296674918,3.933162918325621
13.683999999999997,5.983665124287098,-2.624871085763478,3.9335094156892283
13.703999999999997,5.982541698052298,-2.624927041859464,3.9338559130528354
13.723999999999997,5.981418271817498,-2.6249829979554504,3.934202410416442
13.743999999999996,5.980294845582697,-2.6250389540514365,3.9345489077800493
13.763999999999998,5.979171419347897,-2.6250949101474226,3.9348954051436564
13.783999999999997,5.978047993113097,-2.625150866243409,3.935241902507263
13.803999999999997,5.976924566878296,-2.625206822339395,3.9355883998708703
13.823999999999996,5.975801140643496,-2.6252627784353813,3.9359348972344774
13.843999999999998,5.9746777144086956,-2.6253187345313678,3.9362813945980846
13.863999999999997,5.9735542881738946,-2.625374690627354,3.9366278919616913
13.883999999999997,5.9724308619390944,-2.62543064672334,3.9369743893252984
13.903999999999996,5.971307435704294,-2.6254866028193264,3.9373208866889056
13.923999999999998,5.970184009469493,-2.6255425589153125,3.9376673840525123
13.943999999999997,5.969060583234693,-2.6255985150112986,3.9380138814161194
13.963999999999997,5.967937156999893,-2.625654471107285,3.9383603787797266
13.983999999999996,5.966813730765093,-2.625710427203271,3.9387068761433337
14.003999999999998,5.965690304530292,-2.6257663832992573,3.9390533735069404
14.023999999999997,5.964566878295492,-2.625822339395244,3.9393998708705475
14.043999999999997,5.963443452060691,-2.62587829549123,3.9397463682341547
14.063999999999997,5.962320025825891,-2.625934251587216,3.9400928655977614
14.083999999999998,5.961196599591091,-2.6259902076832025,3.9404393629613685
14.103999999999997,5.960073173356291,-2.6260461637791885,3.9407858603249757
14.123999999999997,5.95894974712149,-2.6261021198751746,3.941132357688583
14.143999999999997,5.9578263208866895,-2.626158075971161,3.9414788550521895
14.163999999999996,5.956702894651889,-2.626214032067147,3.9418253524157967
14.183999999999997,5.955579468417088,-2.6262699881631333,3.942171849779404
14.203999999999997,5.954456042182288,-2.62632594425912,3.9425183471430105
14.223999999999997,5.953332615947488,-2.626381900355106,3.9428648445066177
14.243999999999996,5.952209189712687,-2.626437856451092,3.943211341870225
14.263999999999998,5.951085763477887,-2.6264938125470785,3.943557839233832
14.283999999999997,5.949962337243087,-2.6265497686430646,3.9439043365974387
14.303999999999997,5.948838911008286,-2.6266057247390506,3.944250833961046
14.323999999999996,5.947715484773486,-2.626661680835037,3.944597331324653
14.343999999999998,5.946592058538686,-2.6267176369310232,3.9449438286882597
14.363999999999997,5.945468632303885,-2.6267735930270093,3.945290326051867
14.383999999999997,5.944345206069085,-2.626829549122996,3.945636823415474
14.403999999999996,5.943221779834285,-2.626885505218982,3.9459833207790806
14.423999999999998,5.942098353599484,-2.626941461314968,3.946329818142688
14.443999999999997,5.9409749273646835,-2.6269974174109545,3.946676315506295
14.463999999999997,5.939851501129883,-2.6270533735069406,3.947022812869902
14.483999999999996,5.938728074895083,-2.6271093296029266,3.947369310233509
14.503999999999998,5.937604648660282,-2.627165285698913,3.947715807597116
14.523999999999997,5.936481222425482,-2.6272212417948992,3.948062304960723
14.543999999999997,5.935357796190682,-2.6272771978908853,3.94840880232433
14.563999999999997,5.934234369955881,-2.627333153986872,3.948755299687937
14.583999999999996,5.933110943721081,-2.627389110082858,3.949101797051544
14.603999999999997,5.931987517486281,-2.627445066178844,3.949448294415151
14.623999999999997,5.93086409125148,-2.6275010222748305,3.949794791778758
14.643999999999997,5.92974066501668,-2.6275569783708166,3.950141289142365
14.663999999999996,5.92861723878188,-2.6276129344668027,3.950487786505972
14.683999999999997,5.927493812547079,-2.627668890562789,3.950834283869579
14.703999999999997,5.9263703863122785,-2.6277248466587753,3.951180781233186
14.723999999999997,5.925246960077478,-2.6277808027547613,3.951527278596793
14.743999999999996,5.924123533842678,-2.627836758850748,3.9518737759604
14.763999999999998,5.923000107607877,-2.627892714946734,3.952220273324007
14.783999999999997,5.921876681373077,-2.62794867104272,3.952566770687614
14.803999999999997,5.920753255138276,-2.6280046271387065,3.9529132680512213
14.823999999999996,5.919629828903476,-2.6280605832346926,3.953259765414828
14.843999999999998,5.918506402668676,-2.6281165393306787,3.953606262778435
14.863999999999997,5.917382976433876,-2.628172495426665,3.9539527601420423
14.883999999999997,5.916259550199075,-2.6282284515226513,3.954299257505649
14.903999999999996,5.915136123964275,-2.6282844076186374,3.954645754869256
14.923999999999998,5.914012697729475,-2.628340363714624,3.9549922522328633
14.943999999999997,5.912889271494674,-2.62839631981061,3.9553387495964705
14.963999999999997,5.911765845259874,-2.628452275906596,3.955685246960077
14.983999999999996,5.9106424190250735,-2.6285082320025825,3.9560317443236843
15.003999999999996,5.9095189927902725,-2.6285641880985686,3.9563782416872915
15.023999999999997,5.908395566555472,-2.6286201441945547,3.956724739050898
15.043999999999997,5.907272140320672,-2.628676100290541,3.9570712364145053
15.063999999999997,5.906148714085871,-2.6287320563865273,3.9574177337781125
15.083999999999996,5.905025287851071,-2.6287880124825134,3.957764231141719
15.103999999999997,5.903901861616271,-2.6288439685785,3.9581107285053263
15.123999999999997,5.90277843538147,-2.628899924674486,3.9584572258689334
15.143999999999997,5.90165500914667,-2.628955880770472,3.9588037232325406
15.163999999999996,5.90053158291187,-2.6290118368664586,3.9591502205961473
15.183999999999997,5.899408156677069,-2.6290677929624446,3.9594967179597544
15.203999999999997,5.898284730442269,-2.6291237490584307,3.9598432153233616
15.223999999999997,5.897161304207469,-2.6291797051544172,3.9601897126869687
15.243999999999996,5.8960378779726685,-2.6292356612504033,3.9605362100505754
15.263999999999998,5.8949144517378675,-2.6292916173463894,3.9608827074141826
15.283999999999997,5.893791025503067,-2.629347573442376,3.9612292047777897
15.303999999999997,5.892667599268267,-2.629403529538362,3.9615757021413964
15.323999999999996,5.891544173033466,-2.6294594856343485,3.9619221995050036
15.343999999999998,5.890420746798666,-2.6295154417303346,3.9622686968686107
15.363999999999997,5.889297320563866,-2.6295713978263207,3.9626151942322174
15.383999999999997,5.888173894329065,-2.629627353922307,3.9629616915958246
15.403999999999996,5.887050468094265,-2.6296833100182933,3.9633081889594317
15.423999999999996,5.885927041859465,-2.6297392661142793,3.963654686323039
15.443999999999997,5.884803615624664,-2.629795222210266,3.9640011836866456
15.463999999999997,5.883680189389864,-2.629851178306252,3.9643476810502527
15.483999999999996,5.882556763155064,-2.629907134402238,3.96469417841386
15.503999999999996,5.881433336920264,-2.6299630904982245,3.9650406757774666
15.523999999999997,5.880309910685463,-2.6300190465942106,3.9653871731410737
15.543999999999997,5.8791864844506625,-2.6300750026901967,3.965733670504681
15.563999999999997,5.8780630582158615,-2.630130958786183,3.966080167868288
15.583999999999996,5.876939631981061,-2.6301869148821693,3.9664266652318947
15.603999999999997,5.875816205746261,-2.6302428709781553,3.966773162595502
15.623999999999997,5.874692779511461,-2.630298827074142,3.967119659959109
15.643999999999997,5.87356935327666,-2.630354783170128,3.9674661573227157
15.663999999999996,5.87244592704186,-2.630410739266114,3.967812654686323
15.683999999999997,5.87132250080706,-2.6304666953621005,3.96815915204993
15.703999999999997,5.870199074572259,-2.6305226514580866,3.9685056494135367
15.723999999999997,5.869075648337459,-2.6305786075540727,3.968852146777144
15.743999999999996,5.867952222102659,-2.630634563650059,3.969198644140751
15.763999999999998,5.866828795867858,-2.6306905197460453,3.969545141504358
15.783999999999997,5.865705369633058,-2.6307464758420314,3.969891638867965
15.803999999999997,5.864581943398258,-2.630802431938018,3.970238136231572
15.823999999999996,5.863458517163457,-2.630858388034004,3.970584633595179
15.843999999999996,5.8623350909286565,-2.63091434412999,3.970931130958786
15.863999999999997,5.861211664693856,-2.6309703002259766,3.971277628322393
15.883999999999997,5.860088238459055,-2.6310262563219626,3.971624125686
15.903999999999996,5.858964812224255,-2.6310822124179487,3.9719706230496072
15.923999999999996,5.857841385989455,-2.6311381685139352,3.972317120413214
15.943999999999997,5.856717959754654,-2.6311941246099213,3.972663617776821
15.963999999999997,5.855594533519854,-2.6312500807059074,3.9730101151404282
15.983999999999996,5.854471107285054,-2.631306036801894,3.973356612504035
16.003999999999998,5.853347681050253,-2.63136199289788,3.973703109867642
16.023999999999997,5.852224254815453,-2.631417948993866,3.9740496072312492
16.043999999999997,5.851100828580653,-2.6314739050898526,3.9743961045948564
16.064,5.849977402345852,-2.6315298611858386,3.974742601958463
16.084,5.848853976111052,-2.6315858172818247,3.97508909932207
16.104,5.8477305498762515,-2.6316417733778112,3.9754355966856774
16.124,5.846607123641451,-2.6316977294737973,3.975782094049284
16.144,5.84548369740665,-2.6317536855697834,3.976128591412891
16.163999999999998,5.84436027117185,-2.63180964166577,3.9764750887764984
16.183999999999997,5.84323684493705,-2.631865597761756,3.9768215861401055
16.203999999999997,5.842113418702249,-2.631921553857742,3.977168083503712
16.224,5.840989992467449,-2.6319775099537286,3.9775145808673193
16.244,5.839866566232649,-2.6320334660497147,3.9778610782309265
16.264,5.838743139997848,-2.6320894221457007,3.978207575594533
16.284,5.837619713763048,-2.6321453782416873,3.9785540729581403
16.304,5.836496287528248,-2.6322013343376733,3.9789005703217475
16.323999999999998,5.835372861293447,-2.6322572904336594,3.979247067685354
16.343999999999998,5.834249435058647,-2.632313246529646,3.9795935650489613
16.363999999999997,5.833126008823847,-2.632369202625632,3.9799400624125685
16.383999999999997,5.8320025825890465,-2.632425158721618,3.9802865597761756
16.404,5.8308791563542455,-2.6324811148176046,3.9806330571397823
16.424,5.829755730119445,-2.6325370709135907,3.9809795545033895
16.444,5.828632303884644,-2.6325930270095768,3.9813260518669966
16.464,5.827508877649844,-2.6326489831055633,3.9816725492306038
16.483999999999998,5.826385451415044,-2.6327049392015494,3.9820190465942105
16.503999999999998,5.825262025180244,-2.6327608952975354,3.9823655439578176
16.523999999999997,5.824138598945443,-2.632816851393522,3.9827120413214248
16.543999999999997,5.823015172710643,-2.632872807489508,3.9830585386850315
16.564,5.821891746475842,-2.632928763585494,3.9834050360486386
16.584,5.820768320241042,-2.6329847196814806,3.9837515334122457
16.604,5.819644894006242,-2.6330406757774667,3.9840980307758525
16.624,5.818521467771442,-2.6330966318734528,3.9844445281394596
16.644,5.817398041536641,-2.6331525879694393,3.9847910255030667
16.663999999999998,5.8162746153018405,-2.6332085440654254,3.985137522866674
16.683999999999997,5.81515118906704,-2.6332645001614114,3.9854840202302806
16.703999999999997,5.814027762832239,-2.633320456257398,3.9858305175938877
16.723999999999997,5.812904336597439,-2.633376412353384,3.986177014957495
16.744,5.811780910362639,-2.63343236844937,3.9865235123211016
16.764,5.810657484127838,-2.6334883245453566,3.9868700096847087
16.784,5.809534057893038,-2.6335442806413427,3.987216507048316
16.804,5.808410631658238,-2.633600236737329,3.987563004411923
16.823999999999998,5.807287205423437,-2.6336561928333153,3.9879095017755297
16.843999999999998,5.806163779188637,-2.6337121489293014,3.988255999139137
16.863999999999997,5.805040352953837,-2.6337681050252875,3.988602496502744
16.883999999999997,5.803916926719037,-2.633824061121274,3.9889489938663507
16.904,5.802793500484236,-2.63388001721726,3.989295491229958
16.924,5.801670074249436,-2.633935973313246,3.989641988593565
16.944,5.800546648014635,-2.6339919294092327,3.9899884859571717
16.964,5.7994232217798345,-2.6340478855052187,3.990334983320779
16.983999999999998,5.798299795545034,-2.634103841601205,3.990681480684386
17.003999999999998,5.797176369310234,-2.6341597976971913,3.991027978047993
17.023999999999997,5.796052943075433,-2.6342157537931774,3.9913744754116
17.043999999999997,5.794929516840633,-2.6342717098891635,3.991720972775207
17.064,5.793806090605833,-2.63432766598515,3.992067470138814
17.084,5.792682664371032,-2.634383622081136,3.9924139675024213
17.104,5.791559238136232,-2.6344395781771226,3.992760464866028
17.124,5.790435811901432,-2.6344955342731087,3.993106962229635
17.144,5.789312385666631,-2.6345514903690948,3.9934534595932423
17.163999999999998,5.788188959431831,-2.6346074464650813,3.993799956956849
17.183999999999997,5.787065533197031,-2.6346634025610673,3.994146454320456
17.203999999999997,5.78594210696223,-2.6347193586570534,3.9944929516840633
17.223999999999997,5.7848186807274296,-2.63477531475304,3.99483944904767
17.244,5.7836952544926294,-2.634831270849026,3.995185946411277
17.264,5.7825718282578285,-2.634887226945012,3.9955324437748843
17.284,5.781448402023028,-2.6349431830409986,3.9958789411384914
17.304,5.780324975788228,-2.6349991391369847,3.996225438502098
17.323999999999998,5.779201549553428,-2.6350550952329708,3.9965719358657052
17.343999999999998,5.778078123318627,-2.6351110513289573,3.9969184332293124
17.363999999999997,5.776954697083827,-2.6351670074249434,3.997264930592919
17.383999999999997,5.775831270849027,-2.6352229635209294,3.9976114279565262
17.404,5.774707844614226,-2.635278919616916,3.9979579253201334
17.424,5.773584418379426,-2.635334875712902,3.9983044226837405
17.444,5.772460992144626,-2.635390831808888,3.9986509200473472
17.464,5.771337565909825,-2.6354467879048746,3.9989974174109544
17.483999999999998,5.770214139675025,-2.6355027440008607,3.9993439147745615
17.503999999999998,5.7690907134402245,-2.635558700096847,3.9996904121381682
17.523999999999997,5.7679672872054235,-2.6356146561928333,4.000036909501775
17.543999999999997,5.766843860970623,-2.6356706122888194,4.0003834068653825
17.563999999999997,5.765720434735823,-2.6357265683848055,4.000729904228989
17.584,5.764597008501022,-2.635782524480792,4.001076401592597
17.604,5.763473582266222,-2.635838480576778,4.0014228989562035
17.624,5.762350156031422,-2.635894436672764,4.00176939631981
17.644,5.761226729796622,-2.6359503927687506,4.002115893683418
17.663999999999998,5.760103303561821,-2.6360063488647367,4.0024623910470245
17.683999999999997,5.758979877327021,-2.636062304960723,4.002808888410631
17.703999999999997,5.757856451092221,-2.6361182610567093,4.003155385774239
17.723999999999997,5.75673302485742,-2.6361742171526954,4.0035018831378455
17.744,5.75560959862262,-2.6362301732486815,4.003848380501452
17.764,5.75448617238782,-2.636286129344668,4.00419487786506
17.784,5.753362746153019,-2.636342085440654,4.0045413752286665
17.804,5.7522393199182185,-2.63639804153664,4.004887872592273
17.823999999999998,5.751115893683418,-2.6364539976326267,4.005234369955881
17.843999999999998,5.749992467448617,-2.6365099537286127,4.0055808673194875
17.863999999999997,5.748869041213817,-2.636565909824599,4.005927364683094
17.883999999999997,5.747745614979017,-2.6366218659205853,4.006273862046702
17.904,5.746622188744216,-2.6366778220165714,4.0066203594103085
17.924,5.745498762509416,-2.6367337781125575,4.006966856773916
17.944,5.744375336274616,-2.636789734208544,4.007313354137523
17.964,5.743251910039815,-2.63684569030453,4.0076598515011295
17.983999999999998,5.742128483805015,-2.636901646400516,4.008006348864737
18.003999999999998,5.741005057570215,-2.6369576024965027,4.008352846228344
18.023999999999997,5.739881631335415,-2.6370135585924888,4.0086993435919505
18.043999999999997,5.738758205100614,-2.637069514688475,4.009045840955558
18.063999999999997,5.7376347788658135,-2.6371254707844614,4.009392338319165
18.084,5.7365113526310125,-2.6371814268804474,4.0097388356827715
18.104,5.735387926396212,-2.6372373829764335,4.010085333046379
18.124,5.734264500161412,-2.63729333907242,4.010431830409986
18.144,5.733141073926612,-2.637349295168406,4.010778327773593
18.163999999999998,5.732017647691811,-2.637405251264392,4.0111248251372
18.183999999999997,5.730894221457011,-2.6374612073603787,4.011471322500807
18.203999999999997,5.729770795222211,-2.6375171634563648,4.011817819864414
18.223999999999997,5.72864736898741,-2.637573119552351,4.012164317228021
18.244,5.72752394275261,-2.6376290756483374,4.012510814591628
18.264,5.72640051651781,-2.6376850317443234,4.012857311955235
18.284,5.725277090283009,-2.6377409878403095,4.013203809318842
18.304,5.724153664048209,-2.637796943936296,4.013550306682449
18.323999999999998,5.723030237813409,-2.637852900032282,4.013896804046056
18.343999999999998,5.721906811578608,-2.637908856128268,4.014243301409663
18.363999999999997,5.7207833853438075,-2.6379648122242547,4.01458979877327
18.383999999999997,5.719659959109007,-2.638020768320241,4.014936296136877
18.403999999999996,5.718536532874207,-2.638076724416227,4.015282793500484
18.424,5.717413106639406,-2.6381326805122134,4.015629290864091
18.444,5.716289680404606,-2.6381886366081995,4.015975788227698
18.464,5.715166254169805,-2.6382445927041855,4.016322285591305
18.483999999999998,5.714042827935005,-2.638300548800172,4.016668782954913
18.503999999999998,5.712919401700205,-2.638356504896158,4.017015280318519
18.523999999999997,5.711795975465405,-2.638412460992144,4.017361777682126
18.543999999999997,5.710672549230604,-2.6384684170881307,4.017708275045734
18.563999999999997,5.709549122995804,-2.638524373184117,4.01805477240934
18.584,5.708425696761003,-2.638580329280103,4.018401269772947
18.604,5.707302270526203,-2.6386362853760894,4.018747767136555
18.624,5.7061788442914025,-2.6386922414720755,4.019094264500161
18.644,5.705055418056602,-2.6387481975680616,4.019440761863768
18.663999999999998,5.703931991821801,-2.638804153664048,4.019787259227376
18.683999999999997,5.702808565587001,-2.638860109760034,4.020133756590982
18.703999999999997,5.701685139352201,-2.6389160658560202,4.020480253954589
18.723999999999997,5.7005617131174,-2.6389720219520068,4.020826751318197
18.744,3.921,-0.88,3.98
18.764,2.724,-0.436,4.039
18.784,1.6245000000000778,-0.3244999999999819,3.72520000000007
18.804,1.027,-0.498,3.033
18.823999999999998,0.6279000000000408,-0.7755999999999603,2.1773000000000846
18.843999999999998,0.20490000000005498,-1.117299999999952,1.3937000000000979
18.863999999999997,-0.27429999999991717,-1.5154999999999788,0.6333000000000913
18.883999999999997,-1.0757999999998962,-1.5497000000000059,0.0028000000000527256
18.903999999999996,-1.8483999999999146,-1.6044999999999914,-0.3257999999999856
18.924,-2.541,-1.703,-0.43
18.944,-3.330299999999914,-2.009499999999969,-0.5468999999999746
18.964,-4.13269999999992,-2.3480999999999765,-0.8346999999999792
18.983999999999998,-4.923699999999904,-2.333500000000078,-0.934499999999999
19.003999999999998,-5.632200000000019,-1.6425000000000212,-1.0082999999999918
19.023999999999997,-5.1918000000001046,-1.714599999999914,-0.990900000000035
19.043999999999997,-4.187000000000161,-2.625399999999872,-0.6010000000000647
19.063999999999997,-3.0385000000000835,-3.371699999999976,-0.16120000000004425
19.084,-2.470299999999978,-3.582100000000001,0.1434000000000111
19.104,-2.207700000000001,-3.1693000000001654,0.3077999999999919
19.124,-2.1388000000000624,-1.4054000000002103,0.39479999999998977
19.144,-1.4998000000000404,0.08919999999993466,0.48053333333332876
19.163999999999998,0.026999999999753888,1.0299999999999347,0.430000000000022
19.183999999999997,1.7459999999996922,0.8130000000000561,0.01600000000008281
19.203999999999997,3.1325454545453777,0.563818181818192,-0.5646363636363256
19.223999999999997,3.8294000000000215,-0.09749999999988934,-1.389999999999928
19.243999999999996,3.446500000000093,-0.922699999999961,-1.8258999999999976
19.264,2.7216000000000453,-0.9933000000000527,-1.6563000000000803
19.284,2.4251999999999803,-0.34500000000009595,-0.7500000000001151
19.304,2.6582999999999783,0.5041999999999122,0.2631999999999207
19.323999999999998,2.759916666666667,1.2480833333332764,0.8987499999999484
19.343999999999998,2.747399999999979,1.6709000000000003,1.2932999999999892
19.363999999999997,3.0289999999999404,1.5703000000000291,1.3640999999999923
19.383999999999997,3.463699999999953,1.4056000000000084,1.496499999999974
19.403999999999996,3.8665999999999463,1.305700000000018,1.6778999999999804
19.424,4.332600000000035,1.1495999999999815,1.7959000000000085
19.444,5.09969999999991,0.7639000000000172,1.9500999999999722
19.464,5.829499999999946,0.7389999999999766,2.285799999999962
19.483999999999998,6.429818181818094,0.9336363636363396,2.6590909090908723
19.503999999999998,7.173699999999931,1.2587999999999533,2.9901999999999647
19.523999999999997,7.676599999999946,1.544599999999986,3.222899999999978
19.543999999999997,8.109099999999945,1.4786000000000459,3.3248000000000153
19.563999999999997,8.520199999999958,1.06590000000005,3.0792000000000517
19.584,8.808000000000018,0.6304999999999814,2.6455999999999813
19.604,9.27359999999992,0.1808000000000985,2.33270000000002
19.624,10.153099999999919,-0.9926999999998621,2.245099999999974
19.644,10.571555555555546,-1.7918888888889388,2.6416666666665822
19.663999999999998,10.714999999999998,-1.129888888889048,3.1784444444444055
19.683999999999997,10.550555555555597,0.4387777777775107,3.5112222222221767
19.703999999999997,10.34040000000001,2.4589999999996652,3.8337999999999557
19.723999999999997,10.391666666666648,3.6721111111110467,4.0975555555555045
19.743999999999996,10.421400000000071,3.7102000000001767,4.4971999999999355
19.764,9.656100000000142,2.7305000000001525,4.524300000000065
19.784,8.59960000000008,1.1791000000002065,3.826000000000081
19.804,7.703700000000141,-0.7711999999998269,3.193600000000033
19.823999999999998,6.466000000000207,-2.1609999999997873,2.9600000000000306
19.843999999999998,5.317000000000174,-2.6609999999999676,2.8980000000000055
19.863999999999997,4.388900000000102,-2.207800000000085,3.086599999999996
19.883999999999997,3.7573571428572334,-1.6980714285714984,3.1159285714285665
19.903999999999996,2.9349000000001046,-1.1593000000000415,3.034400000000014
19.924,2.174799999999969,-0.9552000000000055,2.8877999999999795
19.944,1.5779000000000727,-1.1054999999999884,2.425500000000048
19.964,0.8272222222223378,-1.143777777777797,1.9957777777778234
19.983999999999998,-0.14739999999993647,-0.9712000000000098,1.5794000000000346
20.003999999999998,-1.0727999999999276,-0.8416000000000188,1.109400000000036
20.023999999999997,-1.9469999999999503,-0.6128000000000037,0.5932000000000368
20.043999999999997,-2.575444444444365,-0.5068888888889082,0.1184444444445026
20.063999999999997,-3.244999999999857,-0.4139999999999936,-0.39279999999990445
20.083999999999996,-3.8565999999999008,-0.5249999999999574,-0.8443999999999032
20.104,-4.093400000000008,-0.8037999999999815,-1.2419999999999887
20.124,-3.9075555555555397,-1.3633333333332782,-1.4096666666666768
20.144,-4.197199999999982,-1.679999999999988,-1.2312000000000183
20.163999999999998,-4.208200000000023,-1.7224000000000204,-1.023600000000008
20.183999999999997,-3.5902000000000767,-1.5975999999999606,-0.9056000000000067
20.203999999999997,-2.468400000000244,-2.4221999999997674,-0.8547999999999834
20.223999999999997,-1.4088000000001561,-3.3753999999998627,-1.0213999999999437
20.243999999999996,-0.900400000000078,-3.701799999999998,-1.303399999999963
20.264,-0.8605999999999685,-3.436800000000038,-1.3518000000000039
20.284,-1.7771999999999615,-1.9924000000001283,-1.0350000000000468
20.304,-1.8638000000000747,-0.34080000000008326,-0.27020000000006167
20.323999999999998,-0.5068000000001096,0.4317999999999973,0.41219999999998497
20.343999999999998,1.0283999999998874,0.24820000000002612,0.358600000000028
20.363999999999997,2.4879999999999196,-0.06859999999996547,-0.04839999999996632
20.383999999999997,3.385599999999922,-0.6539999999998529,-0.5675999999998858
20.403999999999996,3.3982000000001062,-1.2045999999999497,-0.9799999999999872
20.424,2.872800000000017,-1.226600000000018,-0.8530000000000174
20.444,2.5841999999999965,-0.4816000000000834,-0.21580000000006122
20.464,2.7747999999999755,0.7333999999999194,0.6619999999999495
20.483999999999998,3.1492999999999443,1.6821999999999164,1.2759999999999532
20.503999999999998,3.761999999999906,2.304599999999961,1.6530999999999774
20.523999999999997,4.474699999999927,2.548999999999995,1.751200000000007
20.543999999999997,4.998799999999924,2.397200000000104,1.6576000000000202
20.563999999999997,5.232999999999973,1.9100000000000863,1.6329999999999962
20.583999999999996,5.449166666666583,1.283333333333477,1.8866666666665894
20.604,5.816,0.684,2.263
20.624,6.264999999999954,0.4310769230769483,2.574307692307664
20.644,6.971333333333283,0.19949999999997986,3.069416666666616
20.663999999999998,7.2923999999999864,0.5224999999999638,3.521899999999966
20.683999999999997,7.605499999999966,0.9274999999999779,3.781299999999986
20.703999999999997,8.382444444444337,1.150222222222212,3.9858888888888706
20.723999999999997,9.145999999999882,1.2249999999999879,4.114999999999981
20.743999999999996,9.790999999999906,1.0770000000000288,4.044000000000028
20.764,10.061399999999988,0.7886000000000208,3.723600000000021
20.784,10.374777777777757,-0.19777777777763145,3.1717777777778164
20.804,10.435800000000004,-0.9607999999999987,3.0827999999999847
20.823999999999998,10.435999999999993,-0.7870000000000537,3.3059999999999596
20.843999999999998,10.000000000000115,0.048999999999814525,3.5249999999999617
20.863999999999997,9.202000000000144,1.3789999999997749,3.805999999999943
20.883999999999997,8.488454545454642,2.1047272727272066,4.01099999999998
20.903999999999996,8.184225806451668,2.1827096774193486,4.02583870967742
20.924,7.199555555555532,1.1944444444443774,3.6419999999999777
20.944,6.724000000000044,0.10200000000008101,3.28720000000002
20.964,6.114153846153887,-0.8616923076922499,3.101230769230778
20.983999999999998,4.99000000000013,-1.4806666666666533,3.2506666666666484
21.003999999999998,4.141444444444512,-1.3815555555555992,3.3462222222222167
21.023999999999997,3.738777777777797,-0.8054444444445665,3.3852222222222266
21.043999999999997,3.6254000000000652,0.09359999999984739,3.2842000000000464
21.063999999999997,3.1780000000000963,0.666999999999915,3.059000000000041
21.083999999999996,2.411800000000169,0.799800000000026,2.6820000000000768
21.104,1.692500000000027,0.6615000000000162,2.2813333333333574
21.124,1.198,0.337,1.801
21.144,0.5610000000000388,-0.1041818181817874,1.2420000000000335
21.163999999999998,-0.2730909090908785,-0.37681818181817606,0.8434545454545506
21.183999999999997,-0.93819999999991,-0.535899999999973,0.7271000000000096
21.203999999999997,-1.5439999999999097,-0.7519999999999619,0.75399999999998
21.223999999999997,-2.2650909090907465,-1.009727272727273,0.9386363636363619
21.243999999999996,-3.2708333333331536,-1.0551666666666213,0.8010000000000852
21.264,-4.087,-1.245,0.341
21.284,-4.031,-1.884,-0.116
21.304,-3.318,-2.188,-0.394
21.323999999999998,-2.943200000000003,-2.0407294117647083,-0.4112470588235306
21.343999999999998,-2.8672000000000057,-1.9929647058823567,-0.3844235294117667
21.363999999999997,-2.791200000000008,-1.9452000000000051,-0.35760000000000286
21.383999999999997,-2.7152000000000105,-1.8974352941176538,-0.330776470588239
21.403999999999996,-2.414666666666813,-1.827333333333355,-0.07533333333347347
21.423999999999996,-4.34344444444441,-2.6806666666669208,0.13855555555546187
21.444,-3.838400000000139,-1.0712000000000348,1.0351999999999288
21.464,-1.8236923076924483,-0.8067692307692387,1.7738461538461154
21.483999999999998,0.9104999999996802,-0.7968000000000012,1.6482000000000956
21.503999999999998,2.92619999999988,-0.7118000000000186,0.860200000000073
21.523999999999997,4.238777777777745,-0.5098888888889049,-0.22577777777769975
21.543999999999997,4.196333333333521,-0.17811111111124708,-1.2952222222220522
21.563999999999997,3.4197500000000645,0.6059999999998756,-1.9014999999999367
21.583999999999996,3.2250000000000103,1.3349999999998663,-2.141999999999974
21.604,3.5293999999999586,2.1344999999999286,-1.8737000000000603
21.624,3.842,2.685,-1.31
21.644,4.111,2.817,-0.806
21.663999999999998,4.086000000000023,2.6140000000000434,-0.42200000000005644
21.683999999999997,3.957000000000011,2.079000000000099,-0.10900000000005933
21.703999999999997,4.071333333333278,1.633833333333402,0.5608333333331906
21.723999999999997,4.42899999999992,1.2820000000000662,1.318999999999853
21.743999999999996,5.032399999999848,1.0184000000000417,2.1295999999998707
21.764,5.7308181818181545,0.9288181818181761,2.6854545454545313
21.784,6.247,1.079,2.891
21.804,7.023,1.339,2.978
21.823999999999998,8.226363636363589,1.5889999999999893,3.0464545454545466
21.843999999999998,9.184699999999898,1.8111999999999846,2.9543000000000266
21.863999999999997,9.85269999999997,1.8738000000000006,2.6066000000000833
21.883999999999997,9.938000000000008,1.7840000000000285,1.9330000000001206
21.903999999999996,9.71118181818181,1.2621818181819702,1.1808181818182417
21.923999999999996,9.938833333333301,-0.1725833333332088,0.8146666666666604
21.944,10.126111111111099,-1.0991111111111085,1.0547777777777119
21.964,10.106000000000032,-0.7152000000001254,1.5059999999999658
21.983999999999998,9.635400000000061,0.7175999999998901,1.8987999999999703
22.003999999999998,8.879545454545486,2.036636363636301,2.2728181818181468
22.023999999999997,8.51400000000006,2.5379999999999505,2.754999999999908
22.043999999999997,8.001000000000097,2.167000000000087,3.2629999999999186
22.063999999999997,7.202000000000149,1.1690000000002012,3.3100000000000316
22.083999999999996,6.675357142857214,-0.07142857142837022,2.9412142857143433
22.104,5.650666666666727,-1.7957777777777129,2.718777777777771
22.124,4.8120000000000385,-2.4286666666666687,2.81883333333333
22.144,4.18,-2.184,2.881
22.163999999999998,3.615000000000104,-1.334000000000167,2.8969999999999936
22.183999999999997,2.9136000000001077,-0.3056000000001079,2.9513999999999916
22.203999999999997,1.9552000000002234,0.38279999999993647,2.97120000000004
22.223999999999997,0.9317500000001259,0.5170000000000213,2.6470000000000793
22.243999999999996,0.33100000000009105,0.34100000000003944,2.102000000000111
22.263999999999996,-0.2745999999998898,-0.1144999999999316,1.2275000000001466
22.284,-0.8269230769230709,-0.4538461538461506,0.45438461538462377
22.304,-1.421272727272652,-0.638818181818171,-0.1280909090908682
22.323999999999998,-2.1708181818181007,-0.7842727272727177,-0.4815454545454307
22.343999999999998,-2.977799999999884,-0.9862999999999793,-0.5802000000000294
22.363999999999997,-4.062777777777657,-0.8508888888889389,-0.3110000000000545
22.383999999999997,-4.540222222222215,-0.8861111111110279,0.016333333333299387
22.403999999999996,-4.603200000000025,-1.5859999999998105,0.252399999999997
22.423999999999996,-4.472444444444443,-2.4509999999999192,0.10177777777783278
22.444,-4.5012727272727275,-2.791454545454559,-0.312090909090895
22.464,-4.468807692307695,-2.588538461538466,-0.4941923076923045
22.483999999999998,-3.7378181818182705,-3.0046363636362647,-0.8097272727272485
22.503999999999998,-2.808500000000094,-4.1284999999998995,-0.8890000000000486
22.523999999999997,-2.34280000000007,-4.356000000000032,-0.46040000000006365
22.543999999999997,-1.8604000000000314,-3.8065000000001703,-0.06260000000002337
22.563999999999997,-1.5696000000000532,-2.1536000000002495,0.15489999999995052
22.583999999999996,-0.9620000000001317,-0.26400000000015666,0.6987999999999035
22.604,0.33245454545437936,0.5941818181818065,1.4526363636363033
22.624,2.0330909090908387,0.6018181818181858,1.825727272727281
22.644,3.5535999999998453,0.470500000000033,1.4463000000000932
22.663999999999998,4.831272727272652,-0.06572727272715995,0.3961818181819709
22.683999999999997,4.905500000000073,-0.7058999999999481,-0.43749999999993655
22.703999999999997,4.436000000000066,-0.9789999999999726,-0.765999999999968
22.723999999999997,4.406499999999946,-0.6356000000001204,-0.44010000000009675
22.743999999999996,4.908999999999917,0.5969999999997122,0.4423999999998286
22.763999999999996,5.207181818181746,1.6661818181816912,1.0633636363635721
22.784,5.6058888888888205,2.1787777777777215,1.3467777777777192
22.804,6.144799999999968,2.548999999999988,1.7471999999999879
22.823999999999998,6.613888888888857,2.6508888888888906,1.7713333333333503
22.843999999999998,7.019777777777769,2.6312222222222243,1.4612222222222808
22.863999999999997,7.013363636363644,2.537636363636393,1.061000000000026
22.883999999999997,6.890888888888905,2.1245555555556064,0.6786666666667337
22.903999999999996,6.7756,1.8545000000000176,0.17250000000008403
22.923999999999996,6.82353846153844,1.7584615384615416,-0.1516923076922877
22.944,7.126090909090895,1.8251818181818125,-0.19790909090909437
22.964,7.6379999999999555,2.0719999999999787,-0.08233333333334084
22.983999999999998,8.077999999999953,2.181666666666663,-0.040333333333327545
23.003999999999998,8.385230769230748,2.12184615384617,-0.08723076923076299
23.023999999999997,8.545999999999967,1.9180000000000876,-0.16266666666664337
23.043999999999997,8.810230769230728,1.1576153846155182,-0.24799999999998906
23.063999999999997,9.283599999999893,-0.23099999999970583,-0.1094000000000844
23.083999999999996,9.699999999999932,-1.2652727272727018,0.43790909090894414
23.103999999999996,9.841750000000111,-0.8380000000003973,1.0069999999999244
23.124,9.415888888888906,0.6363333333332402,1.2524444444444252
23.144,9.251199999999997,1.7995999999999532,1.5521999999999758
23.163999999999998,9.351799999999995,2.0928000000000235,1.8657999999999824
23.183999999999997,9.205600000000038,1.5154000000000722,2.100599999999986
23.203999999999997,8.344454545454804,0.33318181818211623,2.194363636363667
23.223999999999997,7.048666666666922,-1.1689999999997631,1.9393333333333624
23.243999999999996,5.778000000000212,-1.9109999999999132,1.8840000000000015
23.263999999999996,3.8805555555559876,-2.1097777777778686,2.1225555555554902
23.284,2.2736000000000938,-1.6108000000000544,2.4355999999999853
23.304,1.1206000000000178,-0.7489000000000166,2.6593999999999958
23.323999999999998,0.3570000000001134,-0.08700000000009162,2.8649999999999665
23.343999999999998,-0.4663333333332911,0.24188888888887178,2.8927777777777886
23.363999999999997,-1.0388181818181461,0.49790909090908175,2.585727272727319
23.383999999999997,-1.3070769230769101,0.3839230769231173,1.955615384615458
23.403999999999996,-1.5298999999999323,0.08160000000000313,1.3168000000001188
23.423999999999996,-1.8409999999999573,0.13233333333333294,0.6610000000001457
23.444,-2.005399999999986,0.10420000000000341,-0.042999999999949565
23.464,-2.196142857142833,0.10899999999999493,-0.5472857142856676
23.483999999999998,-2.5783999999999834,0.21540000000000484,-0.7806000000000052
23.503999999999998,-2.7267272727272607,-0.03236363636359355,-0.6016363636363774
23.523999999999997,-2.9728333333333223,-0.6832499999999642,-0.4767500000000074
23.543999999999997,-2.981400000000034,-1.508599999999868,-0.3116000000000273
23.563999999999997,-2.6260000000001362,-2.1143999999999354,-0.16000000000003411
23.583999999999996,-2.0804999999999993,-2.3162500000000152,-0.054249999999991416
23.603999999999996,-2.210999999999985,-2.31019999999988,-0.23939999999992242
23.624,-2.1984000000000012,-3.4297999999998727,-0.5947999999999795
23.644,-2.3845999999999705,-4.757399999999969,-0.7947999999999937
23.663999999999998,-2.613181818181824,-4.917363636363649,-0.7911818181818326
23.683999999999997,-2.542999999999987,-3.9632500000002318,-0.3172500000000744
23.703999999999997,-2.573400000000131,-1.7196000000005105,0.5139999999997719
23.723999999999997,-1.586000000000375,0.32439999999976044,1.5657999999998213
23.743999999999996,0.4134999999995583,1.0659999999999148,2.0355000000000603
23.763999999999996,2.5261818181814744,1.4842727272726612,1.4260000000002306
23.784,3.8191999999999577,1.5152000000000432,0.15940000000009846
23.804,3.9756363636363847,0.7259090909091312,-1.1760909090908562
23.823999999999998,3.342333333333423,-0.168666666666558,-2.1856666666665943
23.843999999999998,2.8017692307692945,-0.8039230769230654,-2.564384615384613
23.863999999999997,2.212800000000027,-0.5360000000000483,-2.2922000000000637
23.883999999999997,2.1485555555555,0.08488888888881099,-1.158888888889107
23.903999999999996,2.6338181818180826,0.7017272727271716,0.43563636363607505
23.923999999999996,3.111599999999873,1.1899999999999276,1.5723999999998477
23.943999999999996,3.359392190152799,1.3278132427843798,1.8642954159592515
23.964,3.3750458404074704,1.3308353140916809,1.8747877758913414
23.983999999999998,3.390699490662139,1.3338573853989812,1.8852801358234292
24.003999999999998,3.4063531409168073,1.3368794567062818,1.8957724957555173
24.023999999999997,3.422006791171476,1.3399015280135822,1.9062648556876054
24.043999999999997,3.4376604414261442,1.3429235993208826,1.9167572156196933
24.063999999999997,3.453314091680813,1.345945670628183,1.9272495755517813
24.083999999999996,3.4689677419354816,1.3489677419354835,1.9377419354838694
24.103999999999996,3.48462139219015,1.3519898132427839,1.9482342954159573
24.124,3.5002750424448212,1.355011884550085,1.9587266553480474
24.144,3.51592869269949,1.3580339558573853,1.9692190152801352
24.163999999999998,3.5315823429541586,1.3610560271646857,1.9797113752122233
24.183999999999997,3.547235993208827,1.3640780984719862,1.9902037351443114
24.203999999999997,3.5628896434634956,1.3671001697792866,2.0006960950763992
24.223999999999997,3.578543293718164,1.370122241086587,2.0111884550084875
24.243999999999996,3.5941969439728325,1.3731443123938876,2.0216808149405754
24.263999999999996,3.609850594227501,1.376166383701188,2.0321731748726632
24.284,3.6255042444821726,1.3791884550084887,2.0426655348047533
24.304,3.641157894736841,1.3822105263157893,2.053157894736841
24.323999999999998,3.6568115449915095,1.3852325976230897,2.0636502546689295
24.343999999999998,3.672465195246178,1.38825466893039,2.0741426146010173
24.363999999999997,3.6881188455008465,1.3912767402376907,2.084634974533105
24.383999999999997,3.703772495755515,1.394298811544991,2.0951273344651935
24.403999999999996,3.719426146010184,1.3973208828522914,2.1056196943972814
24.423999999999996,3.735079796264852,1.400342954159592,2.116112054329369
24.443999999999996,3.750733446519521,1.4033650254668923,2.1266044142614575
24.464,3.766387096774192,1.4063870967741934,2.137096774193547
24.483999999999998,3.7820407470288604,1.4094091680814937,2.147589134125635
24.503999999999998,3.797694397283529,1.4124312393887941,2.1580814940577233
24.523999999999997,4.639999999999346,1.5989999999998223,2.5249999999997708
24.543999999999997,-0.8619999999995417,-0.5680000000001882,2.6100000000008703
24.563999999999997,-1.6043333333332381,-0.6036666666666718,1.003666666666821
24.583999999999996,-2.055142857142768,-0.5808571428571229,0.3075714285715489
24.603999999999996,-2.5772499999998217,-0.6699999999999978,-0.22699999999990672
24.624,-3.31388888888881,-0.540777777777817,-0.530555555555525
24.644,-3.683799999999987,-0.36379999999999685,-0.7517999999999855
24.663999999999998,-3.8591111111110914,-0.5334444444444122,-0.8614444444444382
24.683999999999997,-4.1661818181818,-1.0752727272726494,-0.8844545454545589
24.703999999999997,-4.196800000000004,-1.473599999999939,-0.8078000000000128
24.723999999999997,-3.804600000000097,-1.8139999999999745,-0.5068000000000793
24.743999999999996,-3.431111111111137,-1.8977777777777451,-0.0774444444445713
24.763999999999996,-3.305545454545499,-2.033181818181777,0.390999999999958
24.783999999999995,-2.8340000000001466,-2.4504999999999444,0.43537500000007934
24.804,-2.5498181818182024,-2.172272727272776,0.02690909090913214
24.823999999999998,-1.9361818181818964,-2.059090909090893,-0.32163636363634057
24.843999999999998,-1.271100000000089,-1.7889000000001156,-0.5364999999999872
24.863999999999997,-0.4800000000001142,-0.8601428571429658,-0.5605714285714357
24.883999999999997,0.5155769230768541,-0.11900000000001709,-0.4454230769230844
24.903999999999996,0.9194230769230023,-0.01900000000001846,-0.40157692307693116
24.923999999999996,2.826333333333146,-0.09799999999997039,-0.3479999999999858
24.943999999999996,3.7044545454543822,-0.2757272727272143,-0.40618181818182353
24.964,4.382599999999992,-0.6703999999999916,-0.2719000000000059
24.983999999999998,4.7602857142856685,-0.9810000000000045,0.1511428571427984
25.003999999999998,5.183499999999968,-0.6607500000000783,0.6722499999999509
25.023999999999997,5.348555555555552,0.21111111111104058,1.0116666666666556
25.043999999999997,5.323000000000015,1.368199999999854,1.1804999999999701
25.063999999999997,5.364666666666624,2.2096666666665605,1.360333333333301
25.083999999999996,5.647499999999921,2.595374999999975,1.4210000000000154
25.103999999999996,6.007699999999957,2.5634000000000206,1.325500000000002
25.124,6.0922222222222215,2.5597777777777826,1.3686666666666556
25.144,6.144555555555537,2.2060000000000852,1.557111111111081
25.163999999999998,6.3288888888888755,1.5838888888889346,1.753888888888872
25.183999999999997,6.414555555555551,0.9636666666667266,2.0546666666666296
25.203999999999997,6.547499999999965,0.6220000000000042,2.3964999999999264
25.223999999999997,6.881499999999911,0.8979999999999204,2.8034999999999286
25.243999999999996,7.297599999999935,1.298599999999892,2.9962000000000018
25.263999999999996,7.628374999999887,1.762124999999949,2.9013750000000367
25.283999999999995,8.28888888888867,1.850000000000019,2.7212222222222735
25.304,9.045016495764601,1.7518074008024966,2.5335773517610343
25.323999999999998,9.048404814979937,1.7511654034774855,2.5321685242978154
25.343999999999998,9.051793134195275,1.7505234061524744,2.5307596968345965
25.363999999999997,9.055181453410611,1.7498814088274632,2.5293508693713775
25.383999999999997,9.058569772625948,1.749239411502452,2.5279420419081586
25.403999999999996,9.061958091841284,1.748597414177441,2.5265332144449397
25.423999999999996,9.06534641105662,1.7479554168524298,2.525124386981721
25.443999999999996,9.068734730271958,1.7473134195274187,2.523715559518502
25.464,9.072123049487294,1.7466714222024076,2.522306732055283
25.483999999999998,9.075511368702632,1.7460294248773964,2.520897904592064
25.503999999999998,9.078899687917968,1.7453874275523853,2.519489077128845
25.523999999999997,9.082288007133304,1.7447454302273742,2.5180802496656263
25.543999999999997,9.08567632634864,1.744103432902363,2.5166714222024074
25.563999999999997,9.089064645563976,1.743461435577352,2.5152625947391885
25.583999999999996,9.092452964779314,1.7428194382523408,2.5138537672759695
25.603999999999996,9.09584128399465,1.7421774409273296,2.5124449398127506
25.623999999999995,9.099229603209986,1.7415354436023185,2.5110361123495317
25.644,9.102617922425324,1.7408934462773071,2.509627284886313
25.663999999999998,9.10600624164066,1.740251448952296,2.508218457423094
25.683999999999997,9.109394560855996,1.7396094516272849,2.506809629959875
25.703999999999997,9.112782880071332,1.7389674543022737,2.505400802496656
25.723999999999997,9.11617119928667,1.7383254569772626,2.503991975033437
25.743999999999996,9.119559518502006,1.7376834596522515,2.5025831475702183
25.763999999999996,9.122947837717343,1.7370414623272403,2.5011743201069994
25.783999999999995,9.126336156932679,1.7363994650022292,2.499765492643781
25.804,9.129724476148017,1.735757467677218,2.4983566651805615
25.823999999999998,9.133112795363353,1.735115470352207,2.4969478377173426
25.843999999999998,9.136501114578689,1.7344734730271958,2.4955390102541237
25.863999999999997,9.139889433794027,1.7338314757021847,2.494130182790905
25.883999999999997,9.143277753009363,1.7331894783771735,2.492721355327686
25.903999999999996,9.146666072224699,1.7325474810521624,2.4913125278644674
25.923999999999996,9.150054391440035,1.7319054837271513,2.4899037004012485
25.943999999999996,9.153442710655371,1.7312634864021401,2.4884948729380296
25.964,9.156831029870709,1.7306214890771288,2.4870860454748103
25.983999999999998,9.160219349086045,1.7299794917521176,2.4856772180115914
26.003999999999998,9.163607668301381,1.7293374944271065,2.4842683905483725
26.023999999999997,9.166995987516719,1.7286954971020954,2.4828595630851535
26.043999999999997,9.170384306732055,1.7280534997770842,2.481450735621935
26.063999999999997,9.173772625947391,1.727411502452073,2.480041908158716
26.083999999999996,9.177160945162727,1.726769505127062,2.4786330806954973
26.103999999999996,9.180549264378065,1.7261275078020508,2.4772242532322784
26.123999999999995,9.183937583593401,1.7254855104770397,2.4758154257690594
26.144,9.187325902808738,1.7248435131520286,2.47440659830584
26.163999999999998,9.190714222024075,1.7242015158270174,2.4729977708426216
26.183999999999997,9.194102541239412,1.7235595185020063,2.4715889433794027
26.203999999999997,9.197490860454748,1.7229175211769951,2.470180115916184
26.223999999999997,9.200879179670084,1.722275523851984,2.468771288452965
26.243999999999996,9.204267498885422,1.7216335265269729,2.467362460989746
26.263999999999996,9.207655818100758,1.7209915292019617,2.465953633526527
26.283999999999995,9.211044137316094,1.7203495318769506,2.464544806063308
26.304,9.214432456531432,1.7197075345519393,2.4631359786000893
26.323999999999998,9.217820775746768,1.7190655372269283,2.4617271511368704
26.343999999999998,9.221209094962104,1.718423539901917,2.4603183236736514
26.363999999999997,9.22459741417744,1.717781542576906,2.4589094962104325
26.383999999999997,9.227985733392778,1.717139545251895,2.4575006687472136
26.403999999999996,9.231374052608114,1.7164975479268838,2.4560918412839947
26.423999999999996,9.23476237182345,1.7158555506018727,2.454683013820776
26.443999999999996,9.238150691038786,1.7152135532768615,2.453274186357557
26.464,9.241539010254124,1.7145715559518502,2.451865358894338
26.483999999999998,9.24492732946946,1.713929558626839,2.450456531431119
26.503999999999998,9.248315648684796,1.713287561301828,2.4490477039679
26.523999999999997,9.251703967900132,1.7126455639768168,2.4476388765046813
26.543999999999997,9.25509228711547,1.7120035666518056,2.4462300490414624
26.563999999999997,9.258480606330806,1.7113615693267945,2.4448212215782434
26.583999999999996,9.261868925546143,1.7107195720017834,2.4434123941150245
26.603999999999996,9.265257244761479,1.7100775746767722,2.4420035666518056
26.623999999999995,9.268645563976817,1.709435577351761,2.4405947391885867
26.644,9.272033883192153,1.70879358002675,2.439185911725368
26.663999999999998,9.275422202407489,1.7081515827017388,2.437777084262149
26.683999999999997,9.278810521622827,1.7075095853767277,2.43636825679893
26.703999999999997,9.282198840838163,1.7068675880517166,2.434959429335711
26.723999999999997,9.285587160053499,1.7062255907267054,2.433550601872492
26.743999999999996,9.288975479268835,1.7055835934016943,2.4321417744092733
26.763999999999996,9.292363798484173,1.7049415960766832,2.4307329469460544
26.783999999999995,9.295752117699509,1.704299598751672,2.4293241194828354
26.804,9.299140436914845,1.7036576014266607,2.4279152920196165
26.823999999999998,9.302528756130183,1.7030156041016495,2.4265064645563976
26.843999999999998,9.30591707534552,1.7023736067766384,2.4250976370931787
26.863999999999997,9.309305394560855,1.7017316094516273,2.42368880962996
26.883999999999997,9.312693713776191,1.7010896121266161,2.422279982166741
26.903999999999996,9.31608203299153,1.700447614801605,2.420871154703522
26.923999999999996,9.319470352206865,1.6998056174765939,2.4194623272403035
26.943999999999996,9.322858671422201,1.6991636201515827,2.4180534997770846
26.963999999999995,9.326246990637538,1.6985216228265716,2.4166446723138657
26.983999999999998,9.329635309852875,1.6978796255015605,2.4152358448506464
27.003999999999998,9.333023629068212,1.6972376281765493,2.4138270173874274
27.023999999999997,9.336411948283548,1.6965956308515382,2.4124181899242085
27.043999999999997,9.339800267498884,1.695953633526527,2.4110093624609896
27.063999999999997,9.343188586714222,1.695311636201516,2.409600534997771
27.083999999999996,9.346576905929558,1.6946696388765048,2.4081917075345523
27.103999999999996,9.349965225144894,1.6940276415514937,2.4067828800713333
27.123999999999995,9.35335354436023,1.6933856442264825,2.4053740526081144
27.144,9.356741863575568,1.6927436469014712,2.403965225144895
27.163999999999998,9.360130182790904,1.69210164957646,2.402556397681676
27.183999999999997,9.36351850200624,1.691459652251449,2.4011475702184573
27.203999999999997,9.366906821221578,1.6908176549264378,2.399738742755239
27.223999999999997,9.370295140436914,1.6901756576014266,2.39832991529202
27.243999999999996,9.37368345965225,1.6895336602764155,2.396921087828801
27.263999999999996,9.377071778867586,1.6888916629514044,2.395512260365582
27.283999999999995,9.380460098082924,1.6882496656263932,2.394103432902363
27.304,9.38384841729826,1.687607668301382,2.392694605439144
27.323999999999998,9.387236736513596,1.686965670976371,2.3912857779759253
27.343999999999998,9.390625055728934,1.6863236736513598,2.3898769505127064
27.363999999999997,9.39401337494427,1.6856816763263487,2.3884681230494875
27.383999999999997,9.397401694159607,1.6850396790013376,2.3870592955862686
27.403999999999996,9.400790013374943,1.6843976816763264,2.3856504681230497
27.423999999999996,9.40417833259028,1.6837556843513153,2.384241640659831
27.443999999999996,9.407566651805617,1.6831136870263042,2.382832813196612
27.463999999999995,9.410954971020953,1.682471689701293,2.381423985733393
27.483999999999998,9.41434329023629,1.6818296923762817,2.380015158270174
27.503999999999998,9.417731609451627,1.6811876950512707,2.378606330806955
27.523999999999997,9.421119928666963,1.6805456977262594,2.3771975033437363
27.543999999999997,9.980999999999204,1.3400000000007177,1.9290000000008456
27.563999999999997,11.387999999999886,0.9022000000000222,5.779
27.583999999999996,11.662000000000003,0.6603636363636894,5.47872727272735
27.603999999999996,11.330727272727415,0.34190909090909183,4.854909090909228
27.623999999999995,10.792818181818236,0.3250909090909476,4.305454545454638
27.644,10.897799999999961,-0.45759999999987716,3.93560000000001
27.663999999999998,11.15441666666666,-1.222749999999978,4.021333333333309
27.683999999999997,11.166727272727274,-0.9661818181818801,4.205363636363629
27.703999999999997,10.800545454545556,0.11045454545431616,4.134090909090937
27.723999999999997,10.19340000000009,1.1942999999998756,3.93450000000004
27.743999999999996,9.92016666666667,1.509,3.7162500000000174
27.763999999999996,9.91136363636365,1.1410909090910073,3.5928181818181986
27.783999999999995,9.609000000000105,0.4120000000002003,3.4984000000000197
27.803999999999995,9.053800000000118,-0.7679999999996909,3.3982000000000205
27.823999999999998,8.485083333333396,-2.404833333333168,3.3400833333333297
27.843999999999998,7.577666666666715,-3.314333333333315,3.4879999999999884
27.863999999999997,6.229375000000313,-3.443500000000102,3.8492499999999072
27.883999999999997,4.958000000000224,-2.705333333333493,4.301999999999904
27.903999999999996,3.9878181818183136,-1.8513636363637476,4.652545454545423
27.923999999999996,3.0338750000002506,-1.1512500000001629,4.807749999999993
27.943999999999996,2.0433333333335044,-0.6723333333333917,4.620666666666729
27.963999999999995,1.2550000000003751,-0.5168000000000409,4.067800000000369
27.983999999999998,0.4899000000000159,-0.4208000000000004,3.0299000000000307
28.003999999999998,0.2976250000000087,-0.4699999999999964,2.627291666666686
28.023999999999997,-0.46608333333327034,-0.5195833333333284,1.7956666666667196
28.043999999999997,-1.1449999999999254,-0.5605999999999933,1.217800000000056
28.063999999999997,-1.9817999999998643,-0.7206999999999582,0.66270000000007
28.083999999999996,-2.4362499999999283,-0.8662499999999766,0.4346500000000356
28.103999999999996,-3.7498999999998137,-0.941800000000024,-0.008399999999930949
28.123999999999995,-4.202727272727258,-0.9422727272726799,-0.32154545454537514
28.144,-4.3205,-1.1095000000000002,-0.6415
28.163999999999998,-4.1003000000000736,-1.2906999999999837,-0.40660000000009017
28.183999999999997,-3.6780909090909404,-1.200363636363643,0.30363636363630375
28.203999999999997,-3.2426000000000466,-1.4789999999999317,0.8195999999999742
28.223999999999997,-2.7528333333333928,-2.4766666666665396,0.6791666666667018
28.243999999999996,-2.429749999999997,-3.3323749999998764,0.39837500000004444
28.263999999999996,-2.355636363636377,-3.582181818181785,0.2929090909090885
28.283999999999995,-2.3509999999999565,-3.221000000000319,0.5549999999998732
28.303999999999995,-2.139000000000199,-1.6755000000004439,1.2719999999997613
28.323999999999998,-0.8820000000001642,-0.38300000000007534,2.102999999999947
28.343999999999998,1.5171999999997308,-0.06379999999999403,2.0728000000000666
28.363999999999997,3.932636363635998,-0.17599999999996901,0.8683636363638746
28.383999999999997,5.47477777777742,-0.2763333333332781,-0.39688888888849677
28.403999999999996,6.245333333333296,-0.5279999999999634,-1.8486666666664462
28.423999999999996,6.038500000000076,-0.6874999999999734,-2.6304999999999077
28.443999999999996,5.480272727272824,-0.5530000000000543,-2.7492727272727704
28.463999999999995,5.320599999999989,0.24099999999978045,-1.960600000000262
28.483999999999998,5.364000000000006,1.1729999999999168,-0.5032000000001573
28.503999999999998,5.383499999999988,1.6819999999999624,0.7579999999998914
28.523999999999997,5.626399999999971,1.8900000000000041,1.804399999999918
28.543999999999997,5.939444444444423,1.7278888888889254,2.425333333333276
28.563999999999997,5.983727272727254,1.4090000000000813,2.618272727272707
28.583999999999996,6.186624999999952,0.9905000000000509,2.654499999999997
28.603999999999996,6.901636363636219,0.5147272727273422,2.745181818181798
28.623999999999995,7.710818181817998,0.3786363636363735,2.8440909090909
28.643999999999995,8.371999999999833,0.32419999999999605,2.8743999999999805
28.663999999999998,9.10699999999986,0.5103333333332805,3.0456666666666212
28.683999999999997,9.781999999999957,0.8484444444444174,3.277111111111097
28.703999999999997,10.562999999999914,1.066599999999985,3.4131999999999976
28.723999999999997,11.24711111111095,1.0322222222222817,3.300000000000062
28.743999999999996,11.592199999999977,0.7374000000000516,3.012400000000073
28.763999999999996,11.621454545454535,0.4702727272727722,2.55100000000007
28.783999999999995,11.85999999999992,0.11040000000006224,2.0690000000000768
28.803999999999995,12.25899999999993,-0.10999999999996404,1.858000000000031
28.823999999999998,12.935400000000019,-0.7795999999999763,1.8493999999999833
28.843999999999998,12.34388888888894,-0.607555555555585,2.0313333333333197
28.863999999999997,11.260750000000122,0.2373333333332165,2.257916666666642
28.883999999999997,10.131666666666842,1.3743333333331584,2.5093333333332817
28.903999999999996,9.502000000000098,2.009999999999927,2.7135714285714174
28.923999999999996,9.316133333333346,1.9015333333334088,2.6109333333333717
28.943999999999996,9.278600000000015,0.7988000000003519,2.2746000000000897
28.963999999999995,8.963400000000112,-0.5451999999995883,1.9094000000001121
28.983999999999998,8.481600000000054,-2.282599999999815,1.6088000000000073
29.003999999999998,7.719888888888965,-3.432111111111054,1.8238888888888547
29.023999999999997,6.539000000000096,-3.630600000000026,2.5751999999999278
29.043999999999997,5.9638181818182385,-3.0999090909091698,3.2220909090908383
29.063999999999997,5.097800000000226,-2.1169000000002165,3.9522999999998305
29.083999999999996,3.8666000000003122,-1.2550000000002033,4.552799999999884
29.103999999999996,2.5658000000002903,-0.6040000000001154,4.804699999999971
29.123999999999995,1.4931000000002268,-0.45159999999999817,4.39250000000015
29.143999999999995,0.5846666666669162,-0.4939999999999953,3.434888888889154
29.163999999999998,-0.42289999999992456,-0.7067999999999812,2.5598000000000622
29.183999999999997,-1.6019999999999162,-1.0066999999999768,1.5000000000000766
29.203999999999997,-2.874999999999906,-1.1539000000000013,0.4319000000000737
29.223999999999997,-3.782272727272641,-0.9858181818181945,-0.33945454545446985
29.243999999999996,-4.447181818181743,-0.6996363636364071,-0.741999999999969
29.263999999999996,-4.884499999999924,-0.5693999999999926,-0.7376000000000074
29.283999999999995,-5.141909090909022,-0.7352727272726759,-0.7277272727272747
29.303999999999995,-5.020400000000081,-1.0959999999998657,-0.6062000000000358
29.323999999999998,-4.396500000000052,-1.61699999999997,-0.4290000000000156
29.343999999999998,-3.5628000000000535,-1.5982000000000187,-0.04520000000003155
29.363999999999997,-2.687100000000073,-1.4745999999999952,0.22159999999999233
29.383999999999997,-1.560000000000308,-2.2285555555552548,-0.12399999999986736
29.403999999999996,-0.8136000000000859,-3.392699999999791,-0.7203999999998587
29.423999999999996,-0.952199999999964,-3.691899999999967,-1.0183999999999787
29.443999999999996,-1.216499999999924,-3.0215000000002656,-0.7042000000001165
29.463999999999995,-1.125300000000066,-1.159800000000461,0.04509999999981573
29.483999999999995,-0.7939015544041458,-0.27494093264248765,0.49271295336787524
29.503999999999998,-0.791155440414508,-0.27229326424870487,0.49449533678756463
29.523999999999997,-0.7884093264248707,-0.26964559585492254,0.49627772020725375
29.543999999999997,-0.7856632124352335,-0.2669979274611402,0.4980601036269428
29.563999999999997,-0.7829170984455962,-0.2643502590673579,0.49984248704663187
29.583999999999996,-0.780170984455959,-0.26170259067357554,0.501624870466321
29.603999999999996,-0.7774248704663218,-0.2590549222797932,0.50340725388601
29.623999999999995,-0.7746787564766845,-0.2564072538860109,0.5051896373056991
29.643999999999995,-0.7719326424870473,-0.25375958549222855,0.5069720207253882
29.663999999999998,-0.7691865284974095,-0.25111191709844577,0.5087544041450776
29.683999999999997,-0.7664404145077722,-0.24846424870466344,0.5105367875647667
29.703999999999997,-0.763694300518135,-0.2458165803108811,0.5123191709844558
29.723999999999997,-0.7609481865284978,-0.24316891191709877,0.5141015544041448
29.743999999999996,-0.7582020725388605,-0.24052124352331647,0.5158839378238339
29.763999999999996,-0.7554559585492233,-0.23787357512953414,0.517666321243523
29.783999999999995,-0.752709844559586,-0.2352259067357518,0.5194487046632121
29.803999999999995,-0.7499637305699488,-0.23257823834196947,0.5212310880829012
29.823999999999998,-0.747217616580311,-0.22993056994818667,0.5230134715025906
29.843999999999998,-0.7444715025906739,-0.22728290155440437,0.5247958549222796
29.863999999999997,-0.7417253886010365,-0.22463523316062203,0.5265782383419687
29.883999999999997,-0.7389792746113993,-0.2219875647668397,0.5283606217616578
29.903999999999996,-0.736233160621762,-0.21933989637305737,0.5301430051813469
29.923999999999996,-0.7334870466321248,-0.21669222797927506,0.531925388601036
29.943999999999996,-0.7307409326424876,-0.21404455958549273,0.5337077720207251
29.963999999999995,-0.7279948186528503,-0.2113968911917104,0.5354901554404141
29.983999999999995,-0.7252487046632131,-0.20874922279792807,0.5372725388601032
30.003999999999998,-0.7225025906735754,-0.20610155440414527,0.5390549222797927
30.023999999999997,-0.719756476683938,-0.20345388601036296,0.5408373056994817
30.043999999999997,-0.7170103626943009,-0.20080621761658063,0.5426196891191708
30.063999999999997,-0.7142642487046635,-0.1981585492227983,0.5444020725388599
30.083999999999996,-0.7115181347150263,-0.19551088082901596,0.5461844559585489
30.103999999999996,-0.7087720207253891,-0.19286321243523363,0.547966839378238
30.123999999999995,-0.7060259067357518,-0.1902155440414513,0.5497492227979272
30.143999999999995,-0.7032797927461146,-0.18756787564766897,0.5515316062176162
30.163999999999998,-0.7005336787564769,-0.1849202072538862,0.5533139896373056
30.183999999999997,-0.6977875647668397,-0.18227253886010386,0.5550963730569947
30.203999999999997,-0.6950414507772024,-0.17962487046632153,0.5568787564766837
30.223999999999997,-0.6922953367875652,-0.1769772020725392,0.5586611398963728
30.243999999999996,-0.6895492227979279,-0.17432953367875687,0.560443523316062
30.263999999999996,-0.6868031088082907,-0.17168186528497453,0.562225906735751
30.283999999999995,-0.6840569948186533,-0.1690341968911922,0.5640082901554401
30.303999999999995,-0.6813108808290161,-0.1663865284974099,0.5657906735751291
30.323999999999995,-0.6785647668393789,-0.16373886010362756,0.5675730569948182
30.343999999999998,-0.6758186528497412,-0.16109119170984476,0.5693554404145076
30.363999999999997,-0.6730725388601039,-0.15844352331606243,0.5711378238341968
30.383999999999997,-0.6703264248704667,-0.1557958549222801,0.5729202072538858
30.403999999999996,-0.6675803108808294,-0.15314818652849777,0.5747025906735749
30.423999999999996,-0.6648341968911922,-0.15050051813471546,0.5764849740932639
30.443999999999996,-0.662088082901555,-0.14785284974093313,0.578267357512953
30.463999999999995,-0.6593419689119177,-0.1452051813471508,0.5800497409326422
30.483999999999995,-0.6565958549222805,-0.14255751295336846,0.5818321243523312
30.503999999999998,-0.6538497409326427,-0.1399098445595857,0.5836145077720206
30.523999999999997,-0.6511036269430055,-0.13726217616580336,0.5853968911917097
30.543999999999997,-0.6483575129533682,-0.13461450777202102,0.5871792746113987
30.563999999999997,-0.645611398963731,-0.1319668393782387,0.5889616580310878
30.583999999999996,-0.6428652849740937,-0.12931917098445636,0.590744041450777
30.603999999999996,-0.6401191709844565,-0.12667150259067403,0.592526424870466
30.623999999999995,-0.6373730569948192,-0.12402383419689172,0.5943088082901551
30.643999999999995,-0.634626943005182,-0.12137616580310939,0.5960911917098441
30.663999999999998,-0.6318808290155442,-0.11872849740932659,0.5978735751295335
30.683999999999997,-0.629134715025907,-0.11608082901554426,0.5996559585492226
30.703999999999997,-0.6263886010362697,-0.11343316062176192,0.6014383419689118
30.723999999999997,-0.6236424870466325,-0.11078549222797962,0.6032207253886008
30.743999999999996,-0.6208963730569952,-0.10813782383419729,0.6050031088082899
30.763999999999996,-0.618150259067358,-0.10549015544041496,0.606785492227979
30.783999999999995,-0.6154041450777208,-0.10284248704663262,0.608567875647668
30.803999999999995,-0.6126580310880835,-0.10019481865285029,0.6103502590673572
30.823999999999995,-0.6099119170984463,-0.09754715025906796,0.6121326424870462
30.843999999999998,-0.6071658031088085,-0.09489948186528518,0.6139150259067356
30.863999999999997,-0.6044196891191713,-0.09225181347150285,0.6156974093264247
30.883999999999997,-0.601673575129534,-0.08960414507772052,0.6174797927461138
30.903999999999996,-0.5989274611398967,-0.08695647668393819,0.6192621761658028
30.923999999999996,-0.5961813471502595,-0.08430880829015586,0.6210445595854919
30.943999999999996,-0.5934352331606223,-0.08166113989637355,0.622826943005181
30.963999999999995,-0.590689119170985,-0.07901347150259122,0.6246093264248701
30.983999999999995,-0.5879430051813478,-0.07636580310880889,0.6263917098445592
31.003999999999998,-0.58519689119171,-0.07371813471502608,0.6281740932642486
31.023999999999997,-0.5824507772020728,-0.07107046632124375,0.6299564766839376
31.043999999999997,-0.5797046632124355,-0.06842279792746142,0.6317388601036267
31.063999999999997,-0.5769585492227983,-0.06577512953367912,0.6335212435233158
31.083999999999996,-0.574212435233161,-0.06312746113989678,0.6353036269430049
31.103999999999996,-0.5714663212435238,-0.06047979274611445,0.637086010362694
31.123999999999995,-0.5687202072538866,-0.05783212435233212,0.6388683937823831
31.143999999999995,-0.5659740932642493,-0.05518445595854979,0.6406507772020722
31.163999999999998,-0.5632279792746115,-0.05253678756476701,0.6424331606217615
31.183999999999997,-0.5604818652849743,-0.04988911917098468,0.6442155440414506
31.203999999999997,-0.5577357512953371,-0.04724145077720235,0.6459979274611397
31.223999999999997,-0.5549896373056998,-0.044593782383420016,0.6477803108808288
31.243999999999996,-0.5522435233160625,-0.041946113989637684,0.6495626943005179
31.263999999999996,-0.5494974093264253,-0.03929844559585535,0.651345077720207
31.283999999999995,-0.5467512953367881,-0.03665077720207305,0.6531274611398961
31.303999999999995,-0.5440051813471508,-0.034003108808290716,0.6549098445595851
31.323999999999995,-0.5412590673575136,-0.031355440414508384,0.6566922279792742
31.343999999999998,-0.5385129533678759,-0.02870777202072558,0.6584746113989636
31.363999999999997,-0.5357668393782387,-0.02606010362694325,0.6602569948186527
31.383999999999997,-0.5330207253886013,-0.023412435233160944,0.6620393782383418
31.403999999999996,-0.530274611398964,-0.020764766839378612,0.6638217616580309
31.423999999999996,-0.5275284974093268,-0.01811709844559628,0.6656041450777199
31.443999999999996,-0.5247823834196896,-0.015469430051813948,0.667386528497409
31.463999999999995,-0.5220362694300524,-0.012821761658031616,0.669168911917098
31.483999999999995,-0.5192901554404151,-0.010174093264249284,0.6709512953367871
31.503999999999998,-0.5165440414507774,-0.007526424870466508,0.6727336787564766
31.523999999999997,-0.5137979274611402,-0.004878756476684176,0.6745160621761657
31.543999999999997,-0.511051813471503,-0.0022310880829018442,0.6762984455958547
31.563999999999997,-0.5083056994818657,0.00041658031088048775,0.6780808290155438
31.583999999999996,-0.5055595854922283,0.0030642487046628197,0.6798632124352328
31.603999999999996,-0.5028134715025911,0.005711917098445152,0.6816455958549219
31.623999999999995,-0.500067357512954,0.008359585492227484,0.6834279792746111
31.643999999999995,-0.49732124352331664,0.011007253886009816,0.6852103626943001
31.663999999999994,-0.49457512953367944,0.013654922279792092,0.6869927461139892
31.683999999999997,-0.4918290155440417,0.016302590673574924,0.6887751295336786
31.703999999999997,-0.4890829015544044,0.018950259067357256,0.6905575129533676
31.723999999999997,-0.48633678756476717,0.021597927461139588,0.6923398963730567
31.743999999999996,-0.4835906735751299,0.02424559585492192,0.6941222797927459
31.763999999999996,-0.48084455958549266,0.02689326424870425,0.6959046632124349
31.783999999999995,-0.47809844559585546,0.029540932642486528,0.697687046632124
31.803999999999995,-0.4753523316062182,0.03218860103626886,0.6994694300518131
31.823999999999995,-0.47260621761658095,0.03483626943005119,0.7012518134715022
31.843999999999998,-0.4698601036269432,0.037483937823834024,0.7030341968911915
31.863999999999997,-0.46711398963730594,0.040131606217616356,0.7048165803108807
31.883999999999997,-0.46436787564766874,0.04277927461139863,0.7065989637305697
31.903999999999996,-0.4616217616580315,0.045426943005180964,0.7083813471502588
31.923999999999996,-0.4588756476683942,0.048074611398963296,0.7101637305699479
31.943999999999996,-0.45612953367875697,0.05072227979274563,0.711946113989637
31.963999999999995,-0.4533834196891197,0.05336994818652796,0.7137284974093261
31.983999999999995,-0.45063730569948246,0.05601761658031029,0.7155108808290152
32.004,-0.44789119170984476,0.05866528497409307,0.7172932642487045
32.023999999999994,-0.445145077720208,0.061312953367874956,0.7190756476683933
32.044,-0.44239896373057025,0.06396062176165773,0.7208580310880827
32.06399999999999,-0.4396528497409335,0.06660829015543962,0.7226404145077715
32.083999999999996,-0.43690673575129574,0.0692559585492224,0.7244227979274609
32.104,-0.43416062176165804,0.07190362694300517,0.7262051813471503
32.123999999999995,-0.4314145077720212,0.07455129533678706,0.727987564766839
32.144,-0.42866839378238353,0.07719896373056984,0.7297699481865284
32.163999999999994,-0.42592227979274677,0.07984663212435172,0.7315523316062171
32.184,-0.423176165803109,0.0824943005181345,0.7333347150259066
32.20399999999999,-0.42043005181347226,0.08514196891191639,0.7351170984455954
32.224,-0.4176839378238345,0.08778963730569916,0.7368994818652848
32.24399999999999,-0.41493782383419775,0.090437305699481,0.7386818652849735
32.263999999999996,-0.41219170984456005,0.09308497409326383,0.7404642487046629
32.284,-0.4094455958549223,0.0957326424870466,0.7422466321243524
32.303999999999995,-0.40669948186528554,0.09838031088082849,0.744029015544041
32.324,-0.4039533678756478,0.10102797927461127,0.7458113989637305
32.343999999999994,-0.40120725388601103,0.1036756476683931,0.7475937823834192
32.364,-0.39846113989637333,0.10632331606217593,0.7493761658031086
32.38399999999999,-0.3957150259067366,0.10897098445595776,0.7511585492227975
32.403999999999996,-0.3929689119170988,0.1116186528497406,0.7529409326424867
32.424,-0.39022279792746106,0.11426632124352337,0.7547233160621762
32.443999999999996,-0.3874766839378243,0.1169139896373052,0.756505699481865
32.464,-0.3847305699481866,0.11956165803108804,0.7582880829015544
32.483999999999995,-0.38198445595854985,0.12220932642486987,0.7600704663212432
32.504,-0.3792383419689121,0.1248569948186527,0.7618528497409325
32.523999999999994,-0.37649222797927534,0.12750466321243453,0.7636352331606213
32.544,-0.3737461139896376,0.13015233160621736,0.7654176165803106
32.56399999999999,-0.37100000000000083,0.1327999999999992,0.7671999999999994
32.583999999999996,-0.3682538860103631,0.13544766839378197,0.7689823834196888
32.604,-0.3655077720207254,0.1380953367875648,0.7707647668393782
32.623999999999995,-0.3627616580310886,0.14074300518134664,0.7725471502590671
32.644,-0.36001554404145086,0.14339067357512947,0.7743295336787563
