timestamp,acc_x,acc_y,acc_z
0.025,-0.964,0.664,-0.818
0.045,-0.18811111111111112,-0.07499999999999996,-1.8266666666666667
0.065,-0.1280000000000001,-0.3822222222222222,-1.2785555555555554
0.08499999999999999,0.4378181818181818,-1.5975454545454544,-2.4690909090909092
0.10499999999999998,-0.5792499999999987,-1.534000000000002,-1.8192499999999996
0.12499999999999997,0.12688888888888572,-1.3385555555555533,-2.1066666666666682
0.145,0.11800000000000008,-1.4694999999999996,-1.4360000000000002
0.16499999999999998,0.3022499999999998,-2.078499999999999,-1.07275
0.18499999999999997,0.5651999999999995,-2.2034,-1.2108999999999996
0.20499999999999996,-0.9196666666666693,1.7889999999999995,0.29333333333333317
0.22499999999999995,-0.16680000000000025,1.0976000000000021,0.2294000000000021
0.24499999999999997,0.050312499999999497,1.0803125,-0.7562499999999996
0.26499999999999996,0.8995999999999977,0.8988000000000005,-1.8851999999999973
0.285,1.10725,0.5387500000000001,-2.01125
0.305,1.2833999999999999,-0.1509999999999999,1.7302
0.32499999999999996,0.19794117647058623,-0.20735294117647066,0.8142352941176454
0.345,0.6994999999999999,-0.6013000000000001,0.016100000000000447
0.365,1.026,-0.19963636363636364,0.6829999999999999
0.38499999999999995,0.8764000000000014,-0.26499999999999974,1.5121999999999984
0.40499999999999997,-0.07463636363636333,-0.19490909090909098,1.6982727272727274
0.42499999999999993,-0.446470588235293,-0.21188235294117536,0.9502941176470596
0.44499999999999995,-0.8545384615384619,-0.8718461538461537,1.443461538461536
0.46499999999999997,-0.9193529411764703,-0.9008235294117647,2.8445294117647015
0.48499999999999993,-1.6902857142857084,-0.27585714285714924,1.6495714285714271
0.5049999999999999,0.48879999999998613,0.15420000000000245,0.0550000000000096
0.5249999999999999,0.8628823529411755,-0.04705882352941077,0.006294117647057326
0.5449999999999999,0.2896363636363675,-0.5286363636363623,-0.26190909090908643
0.565,0.2454482758620689,-0.628103448275862,-0.5081034482758617
0.585,0.8954347826086955,-1.2933478260869566,-1.0913043478260869
0.605,-0.13366666666666666,-0.8380000000000001,-0.6613333333333333
0.6249999999999999,-0.06933333333334146,-1.2483333333333186,-0.9423333333333261
0.6449999999999999,0.7636363636363634,-2.4008181818181793,-0.3683636363636449
0.6649999999999999,0.10066666666667545,-2.0403333333333364,0.16466666666666327
0.6849999999999999,-0.09940000000000249,-1.5081000000000013,-1.0469999999999942
0.705,-0.4998181818181819,-1.9816363636363636,-2.348909090909091
0.7249999999999999,-1.1486999999999985,-1.2848000000000037,-2.4885000000000006
0.7449999999999999,-0.9528125000000021,-1.0514999999999999,-2.3963125000000005
0.7649999999999999,-0.6559999999999977,-0.8082000000000025,-2.735399999999996
0.7849999999999999,-1.3422499999999902,-0.8295000000000023,-3.6612499999999875
0.8049999999999999,-1.5344545454545464,-0.9539999999999971,-4.019
0.8249999999999998,-0.5313000000000063,-0.947000000000003,-2.8371000000000057
0.8449999999999999,0.07979999999999847,-0.5886000000000016,-2.1240000000000046
0.8649999999999999,-0.08319999999999768,-0.6577999999999987,-1.6420000000000015
0.8849999999999999,-0.3769090909090893,-0.7304545454545451,-1.4390000000000012
0.9049999999999999,-0.8784285714285687,-0.28271428571428747,-1.4101428571428547
0.9249999999999999,-0.3106666666666732,-0.31322222222221985,-1.7475555555555535
0.9449999999999998,-0.4537272727272674,0.2643636363636275,-1.3268181818181908
0.9649999999999999,-0.5996181818181816,0.5248545454545451,-0.9380363636363644
0.9849999999999999,-0.6403454545454546,0.6070363636363636,-0.7074909090909095
1.005,-0.7205000000000134,0.5065000000000058,0.7860000000000067
1.025,-0.044363636363636744,0.20672727272727282,0.4313636363636368
1.0449999999999997,0.20424999999999693,-0.10706249999999348,1.655812499999978
1.0649999999999997,0.32027272727272454,-1.0520909090909039,3.6973636363636158
1.0849999999999997,0.9763999999999862,-1.2799999999999994,5.334999999999983
1.1049999999999998,0.8954545454545418,-0.850272727272727,5.956181818181818
1.1249999999999998,1.451909090909088,-0.5470000000000034,5.25227272727274
1.1449999999999998,1.4441000000000008,-0.26520000000000105,3.285500000000012
1.1649999999999998,0.6173636363636469,0.1601818181818146,1.3158181818181989
1.1849999999999998,0.1436363636363567,-0.4258181818181723,0.4470909090909124
1.2049999999999996,1.7303333333333057,-1.4193333333333136,-0.1098333333333204
1.2249999999999996,1.0398333333333698,-1.49150000000001,-0.2500000000000073
1.2449999999999997,-0.5823333333333152,-0.980333333333336,0.6773333333333132
1.2649999999999997,-0.6989999999999995,-1.1619999999999975,1.2689999999999937
1.2849999999999997,-1.1291818181818147,-0.8537272727272757,1.8510909090909096
1.3049999999999997,-1.4989999999999961,-0.5508461538461559,1.4505384615384678
1.3249999999999997,-1.321272727272731,-0.6266363636363631,0.937727272727277
1.3449999999999998,-0.6700000000000139,-0.5929999999999994,0.7380000000000009
1.3649999999999998,-0.33090909090909465,-0.8475454545454517,0.6825454545454552
1.3849999999999998,0.6138181818181754,-1.1874545454545447,0.7717272727272713
1.4049999999999998,0.7513333333333346,-0.8961666666666716,0.9601666666666642
1.4249999999999996,0.6210909090909115,-0.6412727272727284,1.5446363636363531
1.4449999999999996,0.5438333333333351,-0.698166666666662,1.9386666666666632
1.4649999999999996,0.05966666666667614,-1.2706666666666564,1.8336666666666703
1.4849999999999997,-1.2939999999999665,-1.9729999999999885,1.1310000000000195
1.5049999999999997,-2.1264999999999894,-2.665799999999986,0.1315000000000187
1.5249999999999997,-2.329,-3.113999999999998,-0.8359999999999921
1.5449999999999997,-1.8383333333333458,-3.0435555555555562,-0.9814444444444433
1.5649999999999997,-0.5890000000000465,-3.578999999999976,-0.7790000000000117
1.5849999999999997,0.6769999999999861,-4.185999999999994,-0.4890000000000027
1.6049999999999998,1.206999999999996,-4.439999999999997,-0.7339999999999955
1.6249999999999996,0.620076923076942,-4.515615384615386,-0.8300769230769229
1.6449999999999996,-1.2853333333333052,-3.129000000000027,-0.07900000000001534
1.6649999999999996,-2.8909999999999862,-0.9810000000000382,0.8579999999999861
1.6849999999999996,-2.4940000000000135,0.5379999999999657,1.66499999999998
1.7049999999999996,-1.8794545454545577,1.3057272727272646,2.1730909090909023
1.7249999999999996,-0.8810000000000254,1.4879999999999962,2.436999999999995
1.7449999999999997,0.2869999999999643,1.2430000000000148,1.9670000000000225
1.7649999999999997,0.5289354838709632,1.0004193548387144,1.6611935483871025
1.7849999999999997,0.8024000000000028,0.21800000000000233,0.10170000000001456
1.8049999999999997,0.6950909090909094,0.23345454545454464,-0.37454545454545096
1.8249999999999997,1.0249999999999955,0.4499999999999956,-0.2040000000000037
1.8449999999999995,0.5127777777778038,0.3482222222222229,0.15844444444443168
1.8649999999999995,0.30350000000000477,0.6069545454545379,0.5533636363636255
1.8849999999999996,-0.14199999999999946,0.9970000000000016,1.5759999999999939
1.9049999999999996,-0.16400000000000034,1.0222999999999984,1.7233999999999978
1.9249999999999996,-0.3029999999999945,1.0170000000000001,1.9259999999999966
1.9449999999999996,-0.4011111111111094,0.8535555555555636,1.9694444444444434
1.9649999999999996,-0.7191818181818139,0.5463636363636363,2.3593636363636303
1.9849999999999997,-0.8230000000000007,0.49500000000000244,2.6539999999999946
2.005,-0.435,0.28,2.812
2.025,-0.345,0.37,3.191
2.0449999999999995,0.21699999999997957,0.28200000000000247,3.9119999999999795
2.0649999999999995,1.088416666666647,0.35174999999999956,4.6372499999999865
2.0849999999999995,1.7872727272727051,0.2585454545454618,5.065181818181807
2.1049999999999995,2.557833333333323,-0.2417499999999926,5.105916666666669
2.1249999999999996,2.9599999999999933,-0.8469999999999869,4.752000000000007
2.1449999999999996,3.1129999999999938,-1.1609999999999923,4.38500000000001
2.1649999999999996,3.504545454545445,-1.8705454545454328,3.9237272727272847
2.1849999999999996,3.8069999999999946,-2.5249999999999893,3.5290000000000075
2.2049999999999996,3.593090909090914,-2.153545454545464,3.3149090909090932
2.2249999999999996,3.1279166666666733,-1.0945833333333495,3.43883333333333
2.2449999999999997,2.7456363636363705,0.020363636363622595,3.658636363636362
2.2649999999999997,2.4525000000000015,0.38233333333333114,3.4872500000000026
2.2849999999999997,2.4675000000000002,0.24616666666666948,3.1250000000000044
2.3049999999999997,2.248000000000007,-0.6119999999999777,2.7700000000000014
2.3249999999999997,1.3680000000000156,-1.8779999999999708,2.28600000000005
2.3449999999999998,0.820000000000014,-3.8019999999999543,-0.2909999999999504
2.3649999999999998,0.3257142857142941,-4.418190476190466,-0.7100476190476119
2.3849999999999993,0.012000000000000488,-5.568,-1.1409999999999998
2.4049999999999994,-0.6799999999999873,-4.8740000000000245,-0.46800000000001857
2.4249999999999994,-1.5802727272727062,-3.5353636363636616,0.5342727272727136
2.4449999999999994,-2.1366363636363492,-2.701727272727302,0.9697272727272579
2.4649999999999994,-2.3869999999999947,-2.3120000000000083,1.1519999999999961
2.4849999999999994,-2.8599999999999977,-1.765153846153848,0.9396153846153948
2.5049999999999994,-3.128999999999994,-1.8309999999999984,0.26345454545455577
2.5249999999999995,-3.4581818181818127,-2.0829999999999944,-0.4236363636363515
2.5449999999999995,-3.918999999999987,-2.391999999999994,-1.1439999999999833
2.5649999999999995,-4.672272727272712,-2.592363636363629,-1.828181818181808
2.5849999999999995,-5.164090909090901,-2.7978181818181795,-2.0799999999999974
2.6049999999999995,-5.571454545454544,-2.69254545454546,-1.8531818181818256
2.6249999999999996,-5.776090909090905,-2.5392727272727273,-1.7398181818181753
2.6449999999999996,-5.854,-2.6419999999999955,-2.1039999999999894
2.6649999999999996,-5.865000000000004,-2.9519999999999733,-2.5629999999999695
2.6849999999999996,-5.850999999999999,-3.371999999999992,-2.8859999999999943
2.7049999999999996,-5.816700000000006,-3.6423000000000014,-2.7036000000000113
2.7249999999999996,-5.5202941176470635,-3.5520000000000014,-2.3194705882352986
2.7449999999999997,-4.518166666666677,-3.628666666666664,-1.6071666666666724
2.7649999999999997,-3.925428571428575,-3.8611428571428554,-1.3852857142857156
2.7849999999999997,-2.5581818181818234,-5.079181818181808,-1.8981818181818084
2.8049999999999993,-2.659999999999991,-5.186000000000001,-2.4219999999999824
2.8249999999999993,-2.7387999999999977,-4.995600000000012,-2.2786000000000124
2.8449999999999993,-2.6240000000000077,-3.5490000000000794,-1.8020000000000216
2.8649999999999993,-2.3030000000000586,-1.9850000000002028,-1.270000000000071
2.8849999999999993,-1.5098333333333636,-1.54916666666667,-1.0125000000000037
2.9049999999999994,-0.1340000000000261,-1.9279999999999904,-0.8980000000000018
2.9249999999999994,0.6689999999999856,-2.008999999999999,-0.9929999999999973
2.9449999999999994,1.2002727272727114,-2.6342727272726982,-1.0818181818181818
2.9649999999999994,1.2962399999999974,-2.982839999999989,-0.9915600000000033
2.9849999999999994,1.3656923076923055,-3.261615384615396,0.2136153846153554
3.0049999999999994,1.566999999999995,-2.331545454545481,1.551999999999971
3.0249999999999995,1.6769166666666673,-1.1351666666667004,2.522583333333319
3.0449999999999995,1.6210000000000022,0.12999999999997075,2.904999999999995
3.0649999999999995,1.8369999999999937,0.8529090909090802,2.72572727272728
3.0849999999999995,2.096799999999992,1.2280999999999924,2.433700000000011
3.1049999999999995,2.3784999999999954,1.3925833333333322,2.051166666666673
3.1249999999999996,2.5439999999999987,1.339000000000002,1.6220000000000077
3.1449999999999996,2.2872500000000056,1.0975833333333362,1.4098333333333357
3.1649999999999996,2.006500000000001,0.5735000000000109,1.4848999999999941
3.1849999999999996,2.003153846153846,0.2637692307692335,1.8300769230769176
3.2049999999999996,2.3010999999999906,0.268099999999993,2.732799999999976
3.224999999999999,2.6579999999999835,0.5069999999999902,3.513999999999969
3.244999999999999,3.1559999999999766,0.8009999999999873,3.943999999999984
3.2649999999999992,3.4302857142857035,0.95719047619047,4.071619047619043
3.2849999999999993,4.292363636363616,1.0968181818181881,4.390909090909088
3.3049999999999993,4.714999999999987,0.9080000000000066,4.581999999999995
3.3249999999999993,4.9639999999999915,0.5910000000000191,4.337000000000019
3.3449999999999993,5.045999999999999,-0.43199999999995015,3.5920000000000307
3.3649999999999993,4.873000000000031,-1.618999999999881,3.0350000000000508
3.3849999999999993,4.4700000000000175,-2.052416666666662,2.7922500000000063
3.4049999999999994,4.143000000000004,-2.039000000000003,2.8879999999999955
3.4249999999999994,3.9746666666666735,-1.4320000000000257,3.3974999999999795
3.4449999999999994,3.5339444444444528,-0.1281666666666853,4.186277777777771
3.4649999999999994,3.028000000000037,0.8979999999999307,4.509999999999986
3.4849999999999994,2.6884545454545554,1.313727272727267,4.184545454545473
3.5049999999999994,2.30700000000001,0.6060000000000202,3.0250000000000288
3.5249999999999995,1.7256428571428681,-0.3654285714285496,1.6185714285714519
3.5449999999999995,1.111125000000011,-1.5608124999999728,0.5236250000000147
3.5649999999999995,0.26260000000002737,-2.965399999999976,-0.24469999999998737
3.5849999999999995,-0.678099999999985,-3.578899999999996,-0.6499999999999947
3.6049999999999995,-1.26090909090908,-3.55554545454546,-0.883272727272722
3.6249999999999996,-1.5083333333333315,-3.172666666666675,-0.9143333333333352
3.6449999999999996,-1.5651000000000017,-2.3530500000000094,-0.19540000000001143
3.664999999999999,-1.3956000000000053,-1.7849000000000148,0.5057999999999855
3.684999999999999,-1.3549999999999993,-1.5580000000000074,0.6419999999999998
3.704999999999999,-1.555999999999989,-1.6509999999999931,0.18300000000002714
3.724999999999999,-1.922999999999982,-1.8139999999999923,-0.5779999999999668
3.744999999999999,-2.3449999999999815,-1.9189999999999998,-0.9659999999999892
3.7649999999999992,-2.6009999999999884,-1.8820000000000014,-1.0039999999999982
3.7849999999999993,-3.138599999999993,-1.9116999999999988,-1.1505999999999956
3.8049999999999993,-3.357583333333325,-1.9508333333333316,-1.3079166666666604
3.8249999999999993,-3.6929999999999827,-1.9519999999999964,-1.5199999999999878
3.8449999999999993,-4.034999999999975,-2.2479999999999802,-1.9599999999999695
3.8649999999999993,-4.270454545454537,-2.3707272727272684,-2.153636363636357
3.8849999999999993,-5.274999999999986,-2.77999999999999,-2.8819999999999855
3.9049999999999994,-5.499999999999997,-3.2549999999999897,-3.3259999999999925
3.9249999999999994,-5.465315789473692,-3.376105263157895,-3.124421052631586
3.9449999999999994,-4.615000000000025,-3.3970999999999965,-2.713600000000003
3.9649999999999994,-3.1317000000000355,-3.7783999999999756,-2.7313999999999856
3.9849999999999994,-2.212000000000015,-4.798999999999975,-3.3389999999999844
4.005,-2.5434000000000068,-5.653900000000002,-3.8431999999999977
4.0249999999999995,-3.001533333333322,-5.541466666666675,-3.520000000000012
4.045,-3.4636818181818163,-3.8430454545454404,-2.1592727272727186
4.0649999999999995,-3.337318181818184,-2.9639545454545595,-1.6247272727272815
4.085,-1.7229999999999766,-0.907666666666661,-0.45522222222221936
4.1049999999999995,-0.32588888888892686,-0.6847777777777826,-0.4136666666666633
4.125,0.683142857142866,-0.5418571428571441,-0.5243571428571449
4.145,1.4343749999999897,-0.8423124999999876,-0.7600624999999955
4.165,1.8216363636363646,-1.6709999999999918,-0.8556363636363663
4.185,1.608,-2.242,-0.527
4.205,0.9797272727272623,-1.894181818181806,0.19000000000000744
4.225,0.31253846153847276,-0.969769230769251,0.5868461538461496
4.245,-0.14025000000000165,-0.04284999999999342,0.7983500000000011
4.265,-0.1970000000000191,0.51649999999993,0.8659999999999982
4.285,0.435,1.01,0.858
4.305,1.0232222222222087,1.1206666666666718,0.9572222222222146
4.324999999999999,1.4029999999999974,0.926857142857155,1.2455714285714177
4.345,1.4457391304347826,0.5202173913043532,1.5576956521739094
4.364999999999999,1.440521739130435,0.32456521739131117,1.6916086956521692
4.385,1.641,-0.159,2.067
4.404999999999999,1.9199999999999957,-0.06472727272727652,2.5441818181818125
4.425,2.236153846153839,0.23799999999999344,2.964307692307687
4.444999999999999,2.6467499999999924,0.4622499999999971,3.2088124999999974
4.465,3.1411666666666638,0.5140000000000019,3.402833333333332
4.484999999999999,3.5199999999999845,0.24300000000001296,3.6059999999999905
4.505,3.674538461538462,-0.01900000000000246,3.5586923076923056
4.5249999999999995,3.7269999999999976,-0.351999999999975,3.3490000000000126
4.545,3.903359999999999,-1.1967999999999959,3.16156
4.5649999999999995,4.016959999999999,-1.644799999999996,3.1271600000000004
4.585,4.289166666666666,-2.0216666666666705,3.727333333333329
4.6049999999999995,4.45044444444445,-1.3537777777778093,4.347888888888871
4.625,4.272461538461538,-0.27253846153844496,4.773846153846157
4.645,4.264235294117646,0.9962352941176392,4.903705882352941
4.665,4.410599999999999,1.7208000000000003,4.607200000000006
4.685,4.381,1.505,3.952
4.705,3.7557272727272815,0.589000000000012,2.8284545454545564
4.725,3.123125000000011,-0.553874999999974,1.9153125000000137
4.744999999999999,2.227428571428615,-1.991285714285676,1.253857142857152
4.765,0.8907272727272881,-2.8643636363636316,1.0990000000000004
4.784999999999999,-0.2833333333333059,-3.1078888888888923,1.033888888888889
4.805,-0.9915999999999868,-2.8686000000000136,1.1070999999999946
4.824999999999999,-1.4488571428571309,-2.2798571428571597,1.306285714285712
4.845,-1.7404117647058808,-1.7864117647058857,1.284235294117648
4.864999999999999,-1.939199999999986,-1.3992000000000118,0.9924000000000237
4.885,-2.1770999999999936,-1.2787000000000033,0.5319000000000113
4.904999999999999,-2.436090909090906,-1.1989090909090896,0.05154545454546006
4.925,-2.5829230769230764,-1.3500769230769216,-0.5226153846153794
4.944999999999999,-2.673947368421051,-1.4973157894736824,-1.0978947368421028
4.965,-2.946799999999998,-1.796199999999997,-1.4761999999999977
4.984999999999999,-3.181333333333321,-2.0348888888888856,-1.7932222222222174
5.005,-3.5008888888888943,-2.2051111111111146,-1.8454444444444422
5.0249999999999995,-3.8677142857142837,-2.3604285714285713,-1.6227142857142882
5.045,-4.0218,-2.3891199999999997,-1.4417599999999997
5.0649999999999995,-4.0498,-2.4603199999999994,-1.4593599999999998
5.085,-4.302125000000005,-3.044625000000008,-1.8763750000000043
5.1049999999999995,-4.578799999999996,-3.283600000000001,-1.998800000000001
5.125,-4.570285714285717,-3.137428571428572,-1.8314285714285732
5.145,-3.7110000000000074,-3.1804999999999968,-1.4368750000000017
5.164999999999999,-2.7164000000000246,-3.7595999999999736,-1.3875999999999804
5.185,-2.557222222222219,-4.027777777777772,-1.868555555555536
5.204999999999999,-2.5446666666666746,-4.2857777777777715,-2.5697777777777575
5.225,-2.4420909090909038,-4.1710909090909185,-3.116090909090907
5.244999999999999,-2.957999999999987,-2.9905000000000648,-2.9515000000000433
5.265,-2.9514000000000133,-1.671200000000027,-1.780300000000034
5.284999999999999,-2.1238000000000627,-0.7798000000000284,-0.6324000000000349
5.305,-1.0094444444444728,-0.42511111111111255,-0.252000000000001
5.324999999999999,-0.13960000000003006,-0.48539999999998595,-0.23040000000000244
5.345,0.38599999999999624,-0.9217999999999938,-0.18020000000000053
5.364999999999999,0.8192222222222043,-1.619333333333303,-0.19966666666666338
5.385,0.946,-1.8859999999999992,-0.18810526315789522
5.404999999999999,0.6630000000000125,-1.5620000000000163,0.07699999999999256
5.425,0.1240000000000041,-0.58180000000001,0.3947999999999977
5.444999999999999,-0.145200000000003,0.2969999999999927,0.5633999999999986
5.465,0.13839999999999641,0.6335999999999976,0.6319999999999997
5.484999999999999,0.42057142857142477,0.7925714285714269,0.6594285714285711
5.505,0.78825,0.761,0.81325
5.5249999999999995,0.944999999999992,0.6220000000000085,1.0629999999999875
5.545,1.0315714285714277,0.3557142857142888,1.3945714285714264
5.5649999999999995,1.2233636363636247,0.06881818181818564,1.6768181818181702
5.584999999999999,1.5625999999999751,0.05859999999999382,1.9627999999999863
5.6049999999999995,2.0568888888888774,0.22155555555554574,2.180888888888886
5.624999999999999,2.447999999999977,0.46818181818181276,2.009090909090923
5.645,3.2453636363636122,0.6672727272727216,1.8311818181818098
5.664999999999999,3.9405999999999795,0.7722000000000026,2.463399999999936
5.685,4.312222222222209,0.6690000000000089,3.630555555555527
5.704999999999999,4.764399999999987,0.28960000000002156,4.530399999999973
5.725,4.906999999999999,-0.10422222222221539,4.817333333333337
5.744999999999999,4.7797000000000125,-0.5542999999999839,4.4458000000000215
5.765,4.365500000000002,-1.4308749999999917,3.556625000000006
5.784999999999999,3.8691000000000195,-2.159600000000001,3.0194999999999954
5.805,3.382000000000011,-1.7712222222222473,3.2931111111110956
5.824999999999999,2.987300000000006,-0.5948000000000473,3.808299999999991
5.845,2.8138000000000014,0.6927999999999894,3.9737999999999993
5.864999999999999,2.7330000000000005,1.5948749999999912,3.911250000000014
5.885,2.7429999999999994,1.4254545454545426,3.337454545454543
5.904999999999999,2.5014545454545507,0.6183636363636467,2.701363636363644
5.925,2.1833846153846133,-0.23323076923077798,2.1089999999999947
5.944999999999999,1.8086153846154007,-1.9649999999999608,1.4900000000000038
5.965,1.222,-3.005,1.437
5.984999999999999,0.19988888888890355,-3.30155555555556,1.7312222222222153
6.004999999999999,-0.5851999999999647,-2.7918000000000514,2.1815999999999782
6.0249999999999995,-1.207923076923073,-1.8210769230769297,2.3847692307692325
6.044999999999999,-1.5685999999999896,-1.0562000000000302,2.09100000000002
6.0649999999999995,-1.7625555555555525,-0.6386666666666698,1.703222222222228
6.084999999999999,-1.8566521739130424,-0.5538260869565224,1.4641739130434848
6.1049999999999995,-1.951249999999995,-0.7689999999999898,0.8575000000000133
6.124999999999999,-2.192636363636349,-1.1591818181818045,0.42109090909092334
6.145,-2.5309999999999957,-1.5385555555555468,0.04400000000000593
6.164999999999999,-2.833249999999986,-1.9999999999999867,-0.3007499999999885
6.185,-3.092789473684209,-2.2849999999999984,-0.545210526315788
6.204999999999999,-3.354222222222215,-2.550555555555546,-0.9439999999999832
6.225,-3.4833999999999974,-2.6646999999999994,-1.2083999999999901
6.244999999999999,-3.5978888888888787,-2.713999999999996,-1.5455555555555311
6.265,-3.702434782608696,-2.835391304347826,-1.8953913043478263
6.284999999999999,-3.6920000000000006,-2.9379999999999957,-2.0179999999999945
6.305,-3.9421999999999975,-3.2330000000000014,-2.2008000000000014
6.324999999999999,-4.222777777777777,-3.008222222222232,-1.945444444444462
6.345,-4.024714285714291,-2.995642857142856,-1.6659285714285752
6.364999999999999,-3.0843076923077066,-3.567307692307683,-1.7761538461538418
6.385,-2.4525714285714257,-4.329000000000006,-2.452714285714293
6.404999999999999,-2.7230952380952296,-4.2429047619047715,-3.094666666666655
6.424999999999999,-3.279777777777752,-3.602333333333399,-3.607999999999995
6.444999999999999,-3.4961111111111154,-2.3400000000000243,-3.264444444444461
6.464999999999999,-2.978600000000041,-0.8269000000000613,-2.0680000000000565
6.484999999999999,-2.376708333333357,-0.19895833333334786,-1.4274583333333513
6.504999999999999,-0.5132000000000381,-0.11989999999998771,-1.0158999999999976
6.5249999999999995,0.32209999999998384,-0.576699999999978,-1.1781999999999926
6.544999999999999,0.7260909090908967,-1.3184545454545125,-1.4049999999999911
6.5649999999999995,0.9799999999999993,-2.041399999999986,-1.4976000000000076
6.584999999999999,0.9187500000000037,-2.233299999999997,-1.293950000000007
6.6049999999999995,0.5258000000000124,-1.797300000000026,-0.5670000000000214
6.624999999999999,0.13630000000001485,-0.9716000000000362,0.017199999999982667
6.645,-0.04490000000000405,-0.060600000000024745,0.4653999999999866
6.664999999999999,0.03909999999999737,0.5651999999999805,0.7264999999999968
6.685,0.1337142857142855,0.8684285714285711,0.7542857142857143
6.704999999999999,0.5692999999999886,0.9919000000000026,0.6294000000000058
6.725,0.7116666666666707,0.8030000000000106,0.4803333333333382
6.744999999999999,0.6738999999999955,0.39000000000001706,0.39049999999999896
6.765,0.7885999999999977,-0.08399999999999555,0.47999999999999743
6.784999999999999,1.1809999999999898,-0.5438181818181782,0.973999999999984
6.805,1.6407692307692292,-0.577769230769231,1.667923076923075
6.824999999999999,2.1619999999999835,-0.3094000000000127,2.369999999999977
6.845,2.6536666666666666,0.060000000000000005,2.894
6.864999999999999,3.1244615384615213,0.39223076923076317,3.3209999999999886
6.884999999999999,3.823599999999961,0.5104000000000012,3.644599999999991
6.904999999999999,4.616499999999976,0.495399999999998,3.7482999999999973
6.924999999999999,5.107999999999981,0.40240000000001974,3.768000000000003
6.944999999999999,5.474333333333321,-0.2079999999999704,3.6970000000000063
6.964999999999999,5.665333333333337,-1.2733333333332788,3.4900000000000047
6.984999999999999,5.558333333333337,-1.8298333333333243,3.486583333333332
7.004999999999999,5.127272727272745,-1.3689090909091448,3.9628181818181614
7.0249999999999995,4.790909090909098,-0.054272727272760335,4.386999999999992
7.044999999999999,4.6011999999999995,1.322199999999938,4.6275999999999975
7.0649999999999995,4.700714285714285,1.7585238095238118,4.456666666666672
7.084999999999999,4.585700000000024,1.143200000000036,3.723800000000033
7.1049999999999995,3.797000000000025,0.04510000000004641,2.7905000000000295
7.124999999999999,2.9756666666667155,-1.3256666666666002,2.089333333333359
7.145,1.8178181818182089,-2.572454545454526,1.7421818181818203
7.164999999999999,0.6915454545454751,-3.1923636363636305,1.7349999999999972
7.185,0.20000000000000667,-3.219500000000002,1.8294999999999981
7.204999999999999,-0.9580909090908973,-2.3305454545454776,1.9777272727272688
7.225,-1.4107999999999932,-1.3242000000000156,2.144799999999999
7.244999999999999,-1.648909090909091,-0.6306363636363733,2.11436363636364
7.265,-1.584,-0.36633333333333334,1.8523333333333334
7.284999999999999,-1.5614193548387096,-0.3569999999999995,1.58829032258065
7.304999999999999,-1.586555555555551,-0.5549999999999798,0.6864444444444975
7.324999999999999,-1.741727272727268,-0.9808181818181729,-0.1945454545454363
7.344999999999999,-1.9971999999999865,-1.4101999999999735,-0.8453999999999744
7.364999999999999,-2.228333333333328,-1.7226666666666606,-1.0826666666666716
7.384999999999999,-2.2506969696969708,-1.875575757575747,-1.0321818181818199
7.404999999999999,-2.3349999999999103,-2.0579999999999723,-0.8760000000001172
7.424999999999999,-2.5204545454545424,-2.507272727272692,-0.2568181818181867
7.444999999999999,-2.8631999999999884,-3.042799999999992,-0.509799999999989
7.464999999999999,-3.554999999999959,-3.5593333333333015,-1.1073333333333022
7.484999999999999,-4.06713333333332,-3.7943999999999987,-1.443999999999993
7.504999999999999,-5.090599999999997,-3.328400000000015,-2.1715999999999918
7.5249999999999995,-4.953600000000007,-3.0683999999999987,-2.3247999999999984
7.544999999999999,-4.297363636363676,-3.8409090909090207,-2.5757272727272547
7.5649999999999995,-3.8459999999999908,-4.8136666666666645,-2.9946666666666624
7.584999999999999,-3.986066666666664,-4.785266666666669,-3.055733333333332
7.6049999999999995,-4.352099999999974,-4.17820000000004,-3.2617999999999974
7.624999999999999,-5.037999999999989,-2.5698000000001104,-2.9234000000000546
7.645,-4.410000000000025,-1.1778000000000157,-1.9312000000000176
7.664999999999999,-2.7926363636364044,-0.7933636363636319,-1.2088181818181902
7.685,-1.7568928571428681,-0.9484642857142835,-1.059535714285715
7.704999999999999,0.6145454545454032,-1.4955454545454314,-1.0855454545454442
7.724999999999999,1.1482000000000046,-2.064599999999966,-1.3229999999999869
7.744999999999999,0.796272727272739,-2.3410909090909082,-1.3643636363636402
7.764999999999999,0.29640000000002786,-2.0912000000000384,-1.0926000000000224
7.784999999999999,0.08546666666667088,-1.7105333333333441,-0.8874000000000053
7.804999999999999,0.011999999999991299,-0.36540000000005457,0.06759999999995164
7.824999999999999,0.2514545454545275,0.47081818181814894,0.7103636363636172
7.844999999999999,0.6554999999999858,0.9889999999999894,0.8735454545454557
7.864999999999999,1.2313636363636158,1.3309999999999913,0.7628181818181887
7.884999999999999,1.5860833333333155,1.428499999999998,0.6265833333333412
7.904999999999999,1.7449090909090885,1.2361818181818267,0.3763636363636402
7.924999999999999,1.9289999999999794,0.655000000000038,0.28722222222222266
7.944999999999999,2.338199999999991,0.26140000000000246,0.45959999999999185
7.964999999999999,2.80299999999998,0.21600000000000025,0.8529999999999838
7.984999999999999,3.1935714285714263,0.16928571428571423,1.2291428571428547
8.004999999999999,3.870636363636346,0.46472727272725967,1.8287272727272517
8.024999999999999,4.372599999999953,0.8659999999999585,2.4771999999999323
8.045,4.921636363636374,1.1390000000000013,3.0949090909090975
8.065,5.37853333333331,1.1490000000000011,3.3517333333333226
8.084999999999999,5.878833333333314,0.9460000000000154,3.280500000000011
8.104999999999999,6.283727272727243,0.4054545454546165,2.971727272727313
8.125,6.591727272727275,-0.7080000000000182,2.47336363636363
8.145,6.6149090909090935,-1.635545454545435,2.1729090909090933
8.165,6.508000000000007,-1.998866666666651,2.163999999999999
8.184999999999999,6.195736842105279,-2.008842105263166,2.3939999999999872
8.204999999999998,5.15900000000005,-0.23609090909102132,3.2204545454545075
8.225,4.528666666666667,1.151,3.5736666666666665
8.245,4.063500000000025,1.7144999999999957,3.602500000000004
8.264999999999999,3.503333333333369,1.5641666666666962,3.380500000000027
8.284999999999998,3.035714285714302,1.0782142857143087,2.9472857142857345
8.305,2.117000000000036,-0.8044999999999336,1.9395000000000173
8.325,1.2313636363636646,-2.1885454545454164,1.7335454545454554
8.344999999999999,0.10681818181826558,-3.032727272727247,1.8643636363636213
8.364999999999998,-1.1514444444443543,-3.157333333333339,1.5575555555556204
8.385,-1.6711304347826026,-2.9296521739130488,1.1713478260869612
8.405,-2.1302000000000025,-1.6750000000000094,1.1745999999999988
8.424999999999999,-1.9689090909090927,-1.3135454545454637,1.2352727272727244
8.444999999999999,-2.0504444444444316,-1.1304444444444441,1.1667777777777992
8.465,-2.1967777777777724,-1.1551111111111099,0.7971111111111255
8.485,-2.2939999999999974,-1.175666666666666,0.5482222222222289
8.504999999999999,-2.7154999999999867,-1.219000000000001,-0.05349999999999046
8.524999999999999,-3.099818181818158,-1.1933636363636302,-0.26054545454544886
8.545,-3.3313333333333333,-1.2863333333333333,-0.22733333333333333
8.565,-3.5047272727272705,-1.3495454545454495,-0.249636363636358
8.584999999999999,-3.551899999999998,-1.4228999999999983,-0.34014999999999734
8.604999999999999,-3.5888999999999966,-1.4598999999999966,-0.3946499999999949
8.624999999999998,-3.739400000000001,-2.1823999999999413,-1.0395999999999532
8.645,-3.722272727272727,-2.791454545454527,-1.427363636363625
8.665,-3.7416249999999995,-3.154249999999991,-1.6333749999999951
8.684999999999999,-3.7688518518518523,-3.2662962962962983,-1.5761111111111168
8.704999999999998,-3.323500000000075,-3.2774999999999803,-1.3744999999999936
8.725,-2.33981818181821,-3.6801818181817945,-1.5922727272727135
8.745,-2.0354999999999865,-4.253999999999997,-2.206499999999976
8.764999999999999,-2.4649999999999803,-4.042500000000014,-2.4754999999999914
8.784999999999998,-2.706090909090894,-3.8339090909091063,-2.5177272727272735
8.805,-3.5434999999999968,-2.208166666666743,-1.9090000000000455
8.825,-3.0580000000000394,-0.9145000000000192,-0.9170000000000295
8.844999999999999,-2.06736363636371,-0.9090909090908846,-0.48827272727273535
8.864999999999998,-1.2563750000000882,-1.18149999999997,-0.5197499999999887
8.885,-0.49936363636363634,-1.396,-0.7031818181818182
8.905,0.2924999999999842,-1.8334999999999826,-1.0439999999999965
8.924999999999999,0.44050000000000133,-2.0000000000000067,-0.9710000000000106
8.944999999999999,0.36150000000000254,-1.5700000000000283,-0.6210000000000204
8.965,0.2515000000000104,-0.806000000000038,-0.03750000000003012
8.985,0.13500000000000345,-0.3710000000000131,0.3129999999999893
9.004999999999999,0.02949999999999529,0.7454999999999731,1.0224999999999966
9.024999999999999,0.32159999999996813,1.1823999999999792,0.8652000000000233
9.044999999999998,0.9625454545453997,1.3759090909090872,0.43418181818185736
9.065,1.3234999999999881,1.2940000000000196,0.10950000000001531
9.084999999999999,1.4126551724137928,1.0475862068965567,-0.02393103448275731
9.104999999999999,1.5643999999999636,0.2636000000000535,0.08339999999996461
9.124999999999998,2.1149999999999363,-0.1189999999999833,0.6674999999999287
9.145,2.739999999999979,-0.15600000000000658,1.458499999999965
9.165,3.0830909090908953,0.05536363636362536,2.124909090909063
9.184999999999999,3.2244999999999955,0.1699999999999961,2.366999999999993
9.204999999999998,4.118333333333238,0.551111111111069,3.1035555555554755
9.225,4.914999999999964,0.8609999999999914,3.761999999999974
9.245,5.639999999999973,0.8920000000000033,4.106499999999994
9.264999999999999,6.074499999999986,0.7280000000000157,3.8735000000000253
9.284999999999998,6.16767857142857,0.47828571428572997,3.5187857142857353
9.305,6.067636363636364,-1.0533636363636172,2.2290000000000108
9.325,6.084499999999997,-1.9304999999999783,1.8075000000000048
9.344999999999999,6.039545454545469,-1.8540000000000283,2.021272727272704
9.364999999999998,5.73560000000013,-1.054800000000318,2.47279999999986
9.385,5.2379999999999995,0.014500000000000013,2.926
9.405,4.211428571428584,2.187999999999974,3.5109999999999966
9.424999999999999,3.789181818181843,2.420363636363649,3.3843636363636533
9.444999999999999,3.1691818181818516,1.9000000000000385,2.8656363636363986
9.464999999999998,2.8055000000000216,0.930500000000166,2.1340000000001003
9.485,2.7186764705882376,0.31988235294119105,1.7968823529411837
9.504999999999999,2.0040000000006946,-1.2199999999990851,1.2270000000002506
9.524999999999999,1.1230000000000238,-2.1034999999999844,1.242999999999993
9.544999999999998,0.7895000000000122,-2.0665000000000346,1.4849999999999783
9.565,0.785,-1.706,1.641
9.584999999999999,0.8183200000000009,-1.271280000000003,1.7938799999999993
9.604999999999999,-0.009727272727236058,-0.7068181818181936,1.9258181818181834
9.624999999999998,-0.5659999999999631,-0.6084999999999938,1.7915000000000212
9.645,-0.8526666666666572,-0.7053333333333235,1.483666666666688
9.665,-1.0304999999999909,-1.0484999999999838,0.9615000000000254
9.684999999999999,-1.3913999999999662,-1.4457999999999798,0.45260000000002615
9.704999999999998,-1.7855806451612752,-1.659838709677413,0.2909032258064508
9.725,-1.9675161290322518,-1.735967741935481,0.30058064516128996
9.745,-2.7808888888888665,-1.6174444444444422,0.3795555555555732
9.764999999999999,-3.082428571428538,-1.8585714285713888,0.008714285714324421
9.784999999999998,-3.4196538461538335,-2.218846153846142,-0.32969230769229696
9.805,-4.312363636363631,-2.959909090909084,-1.1192727272727183
9.825,-4.705727272727252,-3.351454545454533,-1.8377272727272338
9.844999999999999,-4.948714285714287,-3.4129999999999985,-2.5205714285713605
9.864999999999998,-4.706333333333382,-3.3640000000000057,-2.935333333333313
9.884999999999998,-4.342652173913063,-3.407217391304342,-3.022086956521737
9.905,-3.334545454545461,-4.578090909090897,-2.821454545454552
9.924999999999999,-2.9674000000000174,-5.065999999999993,-2.3110000000000377
9.944999999999999,-2.9623999999999815,-4.628200000000077,-1.7312000000000467
9.964999999999998,-3.350799999999977,-2.942200000000144,-0.8866000000000731
9.985,-3.362000000000037,-1.4532000000001006,-0.113600000000055
10.004999999999999,-2.8926666666666883,-0.6394814814815017,0.3637037037036899
10.024999999999999,-1.4426363636364108,-0.13090909090909678,0.5380000000000112
10.044999999999998,-0.5743636363637147,-0.13136363636362225,0.19281818181822877
10.065,0.22899999999997547,-0.6221999999999732,-0.4271999999999765
10.084999999999999,0.5505294117647052,-1.1422647058823443,-0.8245588235294075
10.104999999999999,0.5646470588235281,-1.2993235294117496,-0.9027941176470512
10.124999999999998,-0.3291999999999344,-1.3780000000000319,-0.773200000000026
10.145,-0.8634999999999857,-0.7695000000000336,-0.4195000000000163
10.165,-1.0032499999999964,-0.28900000000001724,-0.24550000000000488
10.184999999999999,-0.9392500000000048,0.28974999999998996,-0.15150000000000133
10.204999999999998,-0.45420000000002925,0.8267999999999827,-0.0032000000000043816
10.225,0.0014642857142789442,0.9728214285714286,3.5714285716106214e-05
10.245,0.1793214285714263,0.9721071428571428,-0.047821428571427974
10.264999999999999,0.7399999999999773,0.489800000000033,-0.08240000000001507
10.284999999999998,1.195090909090874,-0.054272727272694984,0.21481818181817092
10.304999999999998,1.7439999999999798,-0.4332000000000035,0.3903999999999889
10.325,1.9706666666666532,-0.39386666666666903,0.5150666666666593
10.344999999999999,2.9495999999999727,0.44259999999996646,0.7297999999999882
10.364999999999998,3.263090909090894,0.848181818181803,1.1090909090908796
10.384999999999998,3.6399090909090535,1.0029090909090954,1.6910909090908646
10.405,4.041882352941178,0.7987647058823523,1.923529411764706
10.424999999999999,4.214823529411758,0.6746470588235339,1.9352941176470584
10.444999999999999,4.827399999999981,0.21980000000002872,1.6598000000000201
10.464999999999998,5.177399999999959,-0.6055999999998988,1.4295000000000107
10.485,5.595999999999974,-1.3744999999999743,1.6404999999999732
10.504999999999999,5.863347826086942,-1.456608695652177,1.9975217391304119
10.524999999999999,6.390599999999999,-0.49380000000008983,2.723399999999965
10.544999999999998,6.09340000000003,1.0769999999998827,3.2307999999999595
10.565,5.844000000000007,2.167999999999968,3.6339999999999852
10.584999999999999,5.620400000000024,2.5040000000000022,3.8410000000000015
10.604999999999999,5.151000000000014,2.3260285714285867,3.640857142857157
10.624999999999998,4.971000000000019,2.1294571428571634,3.463714285714304
10.645,3.8047272727272685,-0.013727272727282913,1.9613636363636329
10.665,3.1886000000000405,-1.241199999999918,1.7758000000000003
10.684999999999999,2.688800000000032,-1.9899999999999758,2.039199999999969
10.704999999999998,2.391200000000009,-2.097200000000006,2.3375999999999935
10.724999999999998,2.2685333333333424,-2.0112000000000063,2.42626666666666
10.745,1.182800000000055,-1.118000000000037,2.6985999999999892
10.764999999999999,0.40866666666672924,-0.6736666666667014,2.7676666666666696
10.784999999999998,-0.09039999999997031,-0.4468000000000088,2.497400000000029
10.804999999999998,-0.421142857142839,-0.4562857142857083,2.060571428571455
10.825,-0.9214999999999777,-0.7249999999999834,1.3620000000000267
10.844999999999999,-1.4689999999999601,-1.2429999999999652,0.7562000000000346
10.864999999999998,-1.9991538461538152,-1.6357692307692075,0.3540000000000225
10.884999999999998,-2.5713124999999595,-1.9072499999999941,-0.05337499999997758
10.905,-3.0989999999999998,-1.9917142857142858,-0.286
10.924999999999999,-3.620999999999972,-2.132874999999984,-0.6284999999999588
10.944999999999999,-3.9789999999999592,-2.4013999999999767,-1.1301999999999528
10.964999999999998,-4.337799999999972,-2.7908999999999615,-1.8516999999999295
10.985,-4.725799999999996,-3.202499999999996,-2.498299999999994
11.004999999999999,-4.955249999999999,-3.438583333333333,-2.843249999999998
11.024999999999999,-5.010249999999996,-3.460249999999998,-2.898249999999995
11.044999999999998,-4.3467000000000855,-3.1618999999999615,-2.1404000000000583
11.065,-3.6253636363636663,-3.9074545454545024,-1.7829090909090994
11.084999999999999,-3.1505714285714332,-4.6369999999999925,-1.7891428571428567
11.104999999999999,-3.005600000000009,-4.755449999999997,-1.7284000000000064
11.124999999999998,-3.128799999999959,-4.192000000000075,-1.389600000000034
11.144999999999998,-3.821333333333266,-2.6240000000001777,-0.5530000000001043
11.165,-4.048100000000002,-0.9177000000000132,0.4309999999999927
11.184999999999999,-3.3910000000000537,-0.14163157894738346,0.7939473684210505
11.204999999999998,-1.4503636363637566,-0.3087272727272403,0.3196363636364178
11.224999999999998,-0.2440909090909919,-0.7424545454545073,-0.4459999999999451
11.245,0.6769999999999781,-1.5279999999999707,-1.1606666666666436
11.264999999999999,1.0818181818181736,-2.383818181818151,-1.5687272727272643
11.284999999999998,1.1995000000000067,-2.6962000000000006,-1.505500000000016
11.304999999999998,0.8276666666667037,-2.1006666666667644,-0.7676666666667387
11.325,0.5340000000000069,-0.8616666666667102,-0.0550000000000225
11.344999999999999,0.5446249999999812,0.23512499999990266,0.5579999999999441
11.364999999999998,0.9174999999999658,1.1556999999999138,1.112199999999954
11.384999999999998,0.9854814814814779,1.7368148148148008,1.2674814814814854
11.405,1.192,1.862,1.054
11.424999999999999,1.3608000000000051,1.62620000000001,0.5642000000000179
11.444999999999999,1.3011111111111027,1.0746666666667148,-0.02744444444441023
11.464999999999998,1.4818181818181655,0.3473636363636877,-0.29645454545454925
11.485,1.635333333333327,0.08633333333333768,-0.03133333333334441
11.504999999999999,2.237090909090899,0.05763636363636285,0.7293636363636284
11.524999999999999,2.6459999999999866,0.311999999999968,0.8983333333333389
11.544999999999998,3.5177999999999026,0.5223999999999817,0.8239999999999815
11.564999999999998,4.742199999999901,0.7586999999999666,1.6255999999998891
11.584999999999999,5.66299999999997,1.0239999999999962,2.7709999999999666
11.604999999999999,6.370749999999903,0.9240000000000275,3.418999999999935
11.624999999999998,7.315181818181763,0.4490000000000567,3.9916363636363292
11.644999999999998,7.591333333333318,-0.5159999999998721,4.307999999999971
11.665,7.606600000000001,-1.7444999999999917,4.512599999999998
11.684999999999999,7.3209705882353076,-2.057235294117643,4.501176470588245
11.704999999999998,7.178029411764718,-2.1007647058823493,4.398823529411773
11.724999999999998,5.295700000000137,-0.6886000000001704,3.7852999999999883
11.745,4.26233333333336,0.9779999999999507,3.8640000000000017
11.764999999999999,3.829000000000015,1.8768181818181628,3.6032727272727425
11.784999999999998,3.591375000000022,1.8800625000000202,3.307437500000019
11.804999999999998,3.317461538461545,1.4007307692308,2.9881153846154014
11.825,3.1707500000000186,0.4430000000000688,2.503750000000033
11.844999999999999,2.5788000000000424,-1.2034999999998999,1.732100000000045
11.864999999999998,1.695727272727342,-2.3448181818181175,1.3609090909091064
11.884999999999998,0.9121250000000508,-2.792999999999979,1.3164374999999977
11.905,0.45965517241379517,-2.908206896551725,1.4368965517241372
11.924999999999999,0.3272413793103493,-2.8516551724137953,1.4851724137931017
11.944999999999999,-0.1859999999999935,-2.1410000000000204,2.0047999999999755
11.964999999999998,-0.5286666666666202,-1.824333333333356,2.381333333333312
11.984999999999998,-0.9138181818181689,-1.678363636363641,2.3584545454545527
12.004999999999999,-1.0598787878787792,-1.6262424242424274,2.2766363636363685
12.024999999999999,-1.8175999999999612,-1.7023999999999841,0.9529000000000925
12.044999999999998,-2.3099999999999232,-1.8477499999999754,0.19825000000008355
12.064999999999998,-2.927999999999936,-2.0216666666666487,-0.23133333333329265
12.084999999999999,-3.466555555555536,-2.1475555555555537,-0.5099999999999935
12.104999999999999,-4.0975862068965405,-2.1046896551724132,-0.7522413793103391
12.124999999999998,-4.366551724137914,-2.1164137931034475,-0.8853448275861988
12.144999999999998,-5.5624999999999085,-2.750999999999941,-2.050999999999929
12.165,-6.042099999999998,-3.1503999999999963,-2.673499999999994
12.184999999999999,-6.087466666666669,-3.326000000000003,-3.323999999999968
12.204999999999998,-5.888275862068983,-3.2520689655172483,-3.7441034482758546
12.224999999999998,-5.726206896551744,-3.186551724137939,-3.8158275862068876
12.245,-3.9847777777778046,-3.376888888888868,-3.046666666666682
12.264999999999999,-3.0693000000000596,-4.4040999999999295,-2.911299999999999
12.284999999999998,-2.7186875000000152,-4.741874999999998,-2.9360000000000044
12.304999999999998,-2.551967741935482,-4.604451612903247,-2.86070967741936
12.325,-2.5693870967741934,-4.420580645161293,-2.8174838709677426
12.344999999999999,-3.17477777777778,-1.6104444444444972,-1.4365555555555927
12.364999999999998,-2.434000000000073,-0.6404166666667,-0.6025833333333745
12.384999999999998,-0.9938666666667678,-0.5399333333333155,-0.21260000000000967
12.404999999999998,0.08570588235290971,-0.8639411764705747,-0.19552941176470243
12.424999999999999,0.34747058823528865,-0.9762941176470564,-0.22435294117646998
12.444999999999999,1.3672999999999904,-2.3993999999999254,-1.0366999999999627
12.464999999999998,1.2226000000000354,-2.855799999999976,-0.998800000000042
12.484999999999998,0.9340000000000261,-2.337800000000108,-0.22800000000011567
12.504999999999999,0.7744594594594633,-1.4933243243243428,0.4113513513513409
12.524999999999999,0.703108108108115,-1.1441351351351687,0.6097297297297106
12.544999999999998,0.9691818181817924,0.73345454545448,1.519545454545417
12.564999999999998,1.251181818181784,1.1438181818181572,1.661909090909088
12.584999999999999,1.636874999999995,1.2396875,1.5676250000000016
12.604999999999999,2.0083333333333266,1.1510952380952444,1.4538571428571454
12.624999999999998,2.138999999999992,0.8330000000000515,1.3440000000000072
12.644999999999998,2.244699999999982,0.3096000000000473,1.3922999999999905
12.665,2.554090909090891,-0.030363636363628696,1.5947272727272621
12.684999999999999,3.0513333333333055,-0.02966666666667278,1.9806666666666413
12.704999999999998,3.5349999999999677,0.2228181818181551,2.491181818181785
12.724999999999998,4.001181818181765,0.6422727272726938,2.8963636363636036
12.745,4.727181818181807,0.9216363636363593,3.151454545454541
12.764999999999999,5.515666666666591,1.0329999999999988,3.376666666666647
12.784999999999998,6.146363636363606,0.9647272727272813,3.487272727272727
12.804999999999998,6.535444444444428,0.727925925925951,3.430851851851858
12.824999999999998,6.7589999999998245,0.16900000000064663,3.3620000000000374
12.844999999999999,7.12079999999999,-1.618199999999955,3.3793999999999986
12.864999999999998,7.239600000000002,-2.014600000000006,3.7767999999999446
12.884999999999998,7.024285714285749,-1.509142857142931,4.183285714285673
12.904999999999998,6.549482758620724,-0.45582758620698016,4.650068965517213
12.924999999999999,6.335000000000019,0.06899999999995332,4.827999999999984
12.944999999999999,5.15280000000002,1.8463999999999956,4.826800000000011
12.964999999999998,4.5853333333333754,1.473000000000052,4.283666666666719
12.984999999999998,4.125666666666711,0.5140000000001347,3.3896666666667867
13.004999999999999,3.8762500000000046,-0.5127499999999788,2.6442500000000106
13.024999999999999,3.7643750000000074,-0.9896249999999682,2.404875000000016
13.044999999999998,2.016600000000135,-3.626599999999889,1.7360000000000089
13.064999999999998,1.0784285714286481,-3.89514285714286,1.7859999999999874
13.084999999999999,0.08522222222225306,-3.493222222222241,1.9539999999999975
13.104999999999999,-0.5980714285714064,-2.8216428571428844,2.01542857142857
13.124999999999998,-0.9253448275861943,-2.217448275862098,2.0165172413793138
13.144999999999998,-1.0212068965517098,-1.9960689655172748,1.9903103448275903
13.165,-1.4185999999999872,-1.4032000000000016,1.2828000000000201
13.184999999999999,-1.6670526315789402,-1.3980526315789459,0.7533157894737013
13.204999999999998,-2.0093846153846084,-1.5888461538461505,0.12776923076923885
13.224999999999998,-2.1328461538461414,-1.6484615384615324,-0.02030769230767715
13.245,-2.256307692307685,-1.7080769230769195,-0.1683846153846063
13.264999999999999,-4.666818181818117,-2.1750000000000034,-1.6580909090908904
13.284999999999998,-5.2350588235294,-2.1454705882352942,-1.9342352941176348
13.304999999999998,-5.444449999999992,-2.2103499999999916,-2.366299999999966
13.324999999999998,-5.473800000000001,-2.5791999999999606,-3.1259999999999315
13.344999999999999,-5.331000000000005,-2.9541999999999846,-3.5083999999999893
13.364999999999998,-5.274000000000004,-3.137666666666663,-3.4413333333333433
13.384999999999998,-5.12150000000003,-3.101000000000015,-2.9835000000000793
13.404999999999998,-4.771400000000024,-3.1160857142856995,-2.2921428571428835
13.424999999999999,-4.603400000000004,-3.2229428571428542,-2.1035714285714335
13.444999999999999,-3.1616000000000293,-4.746699999999955,-2.114899999999971
13.464999999999998,-2.9745000000000186,-5.121499999999971,-2.461285714285688
13.484999999999998,-2.9747333333333024,-5.062733333333403,-2.557600000000014
13.504999999999999,-3.313483870967738,-3.8298064516129386,-2.0782903225806617
13.524999999999999,-3.38122580645161,-3.182709677419379,-1.778935483870979
13.544999999999998,-1.8521818181819767,-0.8419090909091236,-0.2959090909091168
13.564999999999998,-0.22160000000020474,-0.756600000000002,-0.3041999999999804
13.584999999999999,0.961599999999966,-0.91579999999999,-0.6151999999999844
13.604999999999999,1.5280937499999852,-1.3504062499999825,-1.0160624999999863
13.624999999999998,1.7349687499999804,-1.593531249999977,-1.2073124999999818
13.644999999999998,1.787666666666703,-2.120000000000032,-1.4280000000000344
13.665,1.317692307692335,-1.4590769230769707,-0.8272307692308092
13.684999999999999,0.9240000000000149,-0.24390000000007328,0.11609999999994669
13.704999999999998,0.9412499999999948,0.6599999999999355,0.7264999999999606
13.724999999999998,0.9884999999999939,0.922499999999976,0.8864999999999854
13.744999999999997,1.1650000000000593,1.4796666666666065,1.1826666666666894
13.764999999999999,1.2289999999999943,1.3932000000000087,1.016600000000006
13.784999999999998,1.2166000000000041,1.1598000000000175,0.8846000000000053
13.804999999999998,1.3715714285714091,0.6770000000000311,0.8718571428571363
13.824999999999998,1.8286249999999122,0.06262500000009125,1.1177499999999472
13.844999999999999,2.5134545454545187,-0.3360909090908982,1.4722727272727132
13.864999999999998,3.1011818181817663,-0.29100000000001813,2.0282727272726584
13.884999999999998,3.4906923076922887,0.08799999999997403,2.5784615384615095
13.904999999999998,3.890333333333295,0.4263333333333194,2.9833333333333147
13.924999999999999,4.744499999999825,0.6284999999999641,3.239999999999955
13.944999999999999,5.769599999999942,0.7036000000000032,3.3692999999999955
13.964999999999998,6.451999999999951,0.6315000000000038,3.3467500000000077
13.984999999999998,7.01369999999993,0.3745000000000589,3.1130000000000426
14.004999999999999,7.4173636363636195,-0.30372727272724154,2.948909090909094
14.024999999999999,7.663363636363636,-1.1485454545454339,3.0077272727272653
14.044999999999998,7.292000000000061,-1.5535000000000305,3.5329999999999377
14.064999999999998,6.719363636363711,-1.1058181818182495,3.7583636363636255
14.084999999999999,5.690545454545495,0.12227272727267213,3.923090909090903
14.104999999999999,5.016296296296311,1.1330740740740513,3.9482222222222263
14.124999999999998,4.540000000000192,1.9799999999997335,3.5410000000003357
14.144999999999998,4.31754545454548,1.6460909090909646,3.0845454545455095
14.164999999999997,4.124600000000017,0.7401000000001543,2.398000000000106
14.184999999999999,3.960461538461557,-0.3809230769230075,1.7724615384615734
14.204999999999998,3.577062500000015,-1.4014062499999724,1.4081875000000035
14.224999999999998,3.36831250000002,-1.784531249999964,1.3619375000000042
14.244999999999997,1.7340000000000928,-2.7530000000000157,1.8108181818181273
14.264999999999999,1.1314285714285994,-2.2827142857143183,2.187428571428555
14.284999999999998,0.5990000000000523,-1.5680000000000627,2.568999999999965
14.304999999999998,-0.09911111111104631,-1.0945555555555924,2.8343333333333174
14.324999999999998,-0.5717499999999709,-0.9881250000000016,2.7241250000000257
14.344999999999999,-1.0358333333333034,-1.0311666666666572,1.943666666666742
14.364999999999998,-1.645272727272636,-1.2069090909090694,1.1706363636364423
14.384999999999998,-2.855899999999919,-1.3834999999999857,0.35900000000004473
14.404999999999998,-3.7730322580644753,-1.4418387096774141,-0.14019354838706424
14.424999999999999,-4.057548387096764,-1.4792580645161277,-0.3672903225806367
14.444999999999999,-4.244999999999994,-1.6995454545454487,-1.0622727272727237
14.464999999999998,-4.538799999999982,-1.8938999999999788,-0.971300000000009
14.484999999999998,-4.677923076923039,-1.9670000000000032,-1.1843846153845898
14.504999999999999,-4.957999999999999,-2.0983999999999976,-1.3197999999999985
14.524999999999999,-4.6958333333333755,-2.575499999999957,-1.5269999999999917
14.544999999999998,-4.314454545454572,-3.0390909090908846,-1.327454545454564
14.564999999999998,-3.9740000000000313,-3.389099999999972,-0.8390000000000739
14.584999999999997,-3.7147857142857656,-3.304,-0.41714285714289745
14.604999999999999,-3.0438333333333563,-3.842666666666637,-0.324166666666661
14.624999999999998,-2.8167777777777734,-4.6217777777777345,-0.772444444444412
14.644999999999998,-3.0959999999999748,-4.81499999999999,-0.9279999999999918
14.664999999999997,-3.6509999999999305,-4.363000000000081,-1.0409999999999922
14.684999999999999,-4.218769230769199,-3.062692307692398,-0.8940000000000177
14.704999999999998,-4.505285714285723,-1.4458571428572178,-0.49771428571431076
14.724999999999998,-3.3241666666668115,-0.5845000000000515,0.05449999999994731
14.744999999999997,-1.7890000000001225,-0.39699999999999613,0.40199999999998404
14.764999999999999,-0.2830000000001296,-0.5979999999999822,0.3530000000000121
14.784999999999998,0.7224615384614679,-0.9841538461538009,-0.01199999999996365
14.804999999999998,1.297749999999969,-1.7152499999999478,-0.6343749999999572
14.824999999999998,1.3663636363636666,-2.1208181818181844,-1.0618181818181698
14.844999999999999,1.0718181818181878,-1.5130000000000283,-0.7418181818181923
14.864999999999998,0.9109090909090999,-0.5602727272727935,-0.4090909090909312
14.884999999999998,0.7596000000000095,0.4669999999999415,-0.026400000000022877
14.904999999999998,0.9676666666666338,1.1253333333332893,0.464666666666623
14.924999999999999,1.523818181818167,1.5970909090909033,0.8405454545454587
14.944999999999999,1.887999999999984,1.7166666666666632,0.6593333333333471
14.964999999999998,2.1392727272727403,1.5678181818182049,0.2280909090909428
14.984999999999998,2.0527692307692362,1.3490769230769455,0.021307692307703345
15.004999999999997,2.181999999999979,1.067000000000022,-0.1094999999999908
15.024999999999999,2.793999999999946,0.6140000000000319,-0.04800000000001475
15.044999999999998,3.3569999999999602,0.6449999999999929,0.36299999999996885
15.064999999999998,3.743727272727228,0.8046363636363247,0.7796363636363045
15.084999999999997,4.341818181818114,1.081727272727254,1.3446363636363137
15.104999999999999,4.969999999999938,1.2019999999999924,1.7449999999999657
15.124999999999998,5.381428571428545,1.1896190476190485,1.922142857142846
15.144999999999998,6.635999999999941,0.8640000000000183,2.4539999999999624
15.164999999999997,6.961076923076902,0.6672307692307954,2.612307692307688
15.184999999999999,7.3568181818181575,-0.22754545454538933,2.2336363636363905
15.204999999999998,7.759999999999981,-1.364090909090847,2.0182727272727274
15.224999999999998,7.748000000000008,-1.7329999999999883,2.394999999999959
15.244999999999997,7.640727272727285,-1.6666363636363717,2.630454545454517
15.264999999999999,6.414818181818241,0.09827272727262437,3.517454545454507
15.284999999999998,5.425454545454624,1.5191818181817456,3.904454545454535
15.304999999999998,4.727000000000063,1.9969999999999724,3.847000000000018
15.324999999999998,4.494500000000035,1.9836666666666687,3.6978333333333557
15.344999999999999,3.7660000000000347,1.107000000000078,2.6170000000000777
15.364999999999998,3.484000000000029,-0.25899999999986967,1.651000000000082
15.384999999999998,2.7860000000000755,-1.543999999999893,1.152000000000032
15.404999999999998,1.9400000000000688,-2.5039999999999134,1.1399999999999924
15.424999999999997,1.702962962962998,-2.771407407407368,1.238518518518504
15.444999999999999,0.6428181818182306,-2.4175454545454977,2.020727272727241
15.464999999999998,0.3023333333333498,-1.6039166666667077,2.4181666666666466
15.484999999999998,-0.15018181818175186,-1.057727272727327,2.6017272727272602
15.504999999999997,-0.8236666666665797,-0.7996666666666924,2.3675833333333856
15.524999999999999,-1.0408076923076774,-0.7771153846153858,2.109576923076942
15.544999999999998,-1.626999999999972,-1.0609999999999769,0.8160000000000731
15.564999999999998,-2.1909999999999146,-1.374916666666625,0.0008333333334393789
15.584999999999997,-2.96799999999986,-1.6169999999999716,-0.6169999999999133
15.604999999999999,-3.6909090909090536,-1.687818181818183,-0.9080909090908937
15.624999999999998,-4.115562499999968,-1.6375625000000023,-1.0789374999999841
15.644999999999998,-4.51299999999998,-1.6859999999999937,-1.5099999999999698
15.664999999999997,-4.841818181818129,-1.8798181818181434,-1.778818181818132
15.684999999999999,-5.0212727272727316,-2.295272727272709,-2.184363636363626
15.704999999999998,-4.90700000000001,-2.842999999999953,-2.4759999999999773
15.724999999999998,-4.797476190476207,-2.988714285714264,-2.589333333333317
15.744999999999997,-4.2350000000000545,-2.700000000000034,-2.3690000000000437
15.764999999999999,-3.8080000000000296,-2.9099999999999637,-2.074000000000013
15.784999999999998,-3.2012727272727712,-4.09645454545446,-2.387545454545423
15.804999999999998,-2.7980000000000187,-5.089999999999946,-2.8719999999999724
15.824999999999998,-2.794521739130435,-5.106521739130433,-2.8415652173913073
15.844999999999997,-3.3689999999999087,-3.8120000000002694,-2.0630000000001494
15.864999999999998,-3.4039090909091025,-2.07136363636374,-0.8270000000000827
15.884999999999998,-2.4050000000001206,-1.0130000000000667,0.3019999999999208
15.904999999999998,-1.007272727272914,-0.7616363636363859,0.6799999999999622
15.924999999999997,-0.4208800000000644,-0.7160000000000046,0.7583599999999919
15.944999999999999,1.268249999999953,-1.1115833333333067,0.34716666666670004
15.964999999999998,1.7353333333333076,-1.7933333333332697,-0.43849999999992006
15.984999999999998,1.5470000000000244,-1.9840000000000018,-0.9189999999999802
16.004999999999995,1.0140000000001168,-1.5220000000001193,-0.8090000000000459
16.025,0.8084827586206934,-1.1488965517241447,-0.6476206896551754
16.044999999999995,0.3530000000000355,0.6809999999996654,-0.039000000000108004
16.064999999999998,0.4346363636363541,1.315545454545419,0.359363636363611
16.084999999999997,0.8248181818181544,1.6991818181818004,0.6416363636363529
16.104999999999997,1.2549285714285263,1.7759285714285709,0.5830714285714431
16.124999999999996,1.470499999999999,1.5730000000000373,0.3355000000000254
16.144999999999996,1.3720000000000163,0.9060000000001145,0.1920000000000004
16.164999999999996,1.4323333333333113,0.44100000000009,0.38474999999994675
16.184999999999995,1.8089999999999233,-0.04299999999993412,0.8539999999999142
16.204999999999995,2.5199999999998575,-0.09500000000000781,1.5629999999998618
16.224999999999998,3.3439999999999004,0.1403999999999642,2.249799999999936
16.244999999999997,4.150999999999856,0.3949999999999596,2.671999999999939
16.264999999999997,5.364199999999823,0.6349999999999851,3.0066999999999684
16.284999999999997,6.727199999999845,0.7159999999999875,3.2981999999999645
16.304999999999996,7.808583333333108,0.7701666666666628,3.563499999999941
16.324999999999996,8.114735294117585,0.7542352941176511,3.6145588235294026
16.344999999999995,9.36099999999973,-0.7609999999993259,3.3980000000001502
16.364999999999995,9.477000000000007,-1.855999999999856,3.3289999999999993
16.384999999999994,9.090000000000167,-2.03199999999998,3.2950000000000115
16.404999999999998,8.02500000000021,-1.2090000000001855,3.3409999999999793
16.424999999999997,6.762384615384751,0.12307692307677143,3.7726923076922527
16.444999999999997,5.53160000000011,1.1680999999999924,3.9412000000000393
16.464999999999996,4.725000000000131,1.0920000000000336,3.5790000000000712
16.484999999999996,4.096000000000108,0.5350000000001247,3.178000000000069
16.504999999999995,3.2662105263159216,-0.5079999999998087,2.5511578947369573
16.524999999999995,2.2327000000003823,-1.7948999999996993,1.7946000000001727
16.544999999999995,0.9220000000004553,-2.663999999999746,1.357000000000106
16.564999999999998,-0.541999999999742,-2.899999999999989,1.2030000000000272
16.584999999999997,-1.4248571428570336,-2.7811428571429206,1.0045714285714433
16.604999999999997,-2.0909999999999314,-1.9840000000001434,1.172999999999965
16.624999999999996,-2.101434782608694,-1.6718260869565795,1.2738695652173726
16.644999999999996,-1.6209230769230947,-0.8540769230769709,1.5309230769230728
16.664999999999996,-1.476363636363672,-0.694,1.1752727272728398
16.684999999999995,-1.5792499999999632,-0.6316666666666746,0.512500000000135
16.704999999999995,-1.8684166666666109,-0.6927916666666678,-0.1486249999999371
16.724999999999994,-2.056749999999933,-0.6886250000000014,-0.36112499999992453
16.744999999999997,-2.4015714285714087,-0.7924285714285606,-0.7042857142857121
16.764999999999997,-2.8261999999999445,-0.9685999999999662,-0.5218000000000205
16.784999999999997,-3.173999999999952,-1.2309999999999548,-0.383000000000021
16.804999999999996,-3.3390476190475926,-1.7204761904761325,-0.38314285714284496
16.824999999999996,-3.566999999999563,-2.2379999999989875,-0.5019999999997513
16.844999999999995,-3.872153846153772,-2.987999999999805,-0.8779230769229648
16.864999999999995,-4.401999999999914,-3.4429999999999614,-1.3709999999999387
16.884999999999994,-4.930363636363594,-3.209181818181951,-1.7108181818181538
16.904999999999998,-4.870571428571482,-2.802285714285707,-1.8379285714285556
16.924999999999997,-3.929833333333407,-3.279777777777698,-2.0449444444444254
16.944999999999997,-3.259000000000209,-4.1352499999995835,-2.295499999999829
16.964999999999996,-3.2994615384615193,-4.288615384615393,-2.490923076923055
16.984999999999996,-3.611999999999945,-3.8130000000001223,-2.7149999999999683
17.004999999999995,-3.706461538461645,-2.235384615384969,-2.4366923076924762
17.024999999999995,-3.050913043478402,-0.9090434782609457,-1.6597391304348723
17.044999999999995,-2.569173913043623,-0.6499130434783389,-1.3545217391305266
17.064999999999998,-0.4684545454546846,-0.7228181818181596,-0.6872727272727492
17.084999999999997,0.8399999999997538,-1.0279999999999265,-0.5410000000000175
17.104999999999997,1.7964166666666301,-1.6417499999999625,-0.7474166666666443
17.124999999999996,1.9896250000000033,-1.8839687500000046,-0.9169375000000002
17.144999999999996,1.962125000000004,-1.8433437500000056,-0.9156875000000002
17.164999999999996,1.4603636363637214,-0.6482727272729324,-0.33081818181830885
17.184999999999995,1.1020000000000398,0.33949999999974134,0.2632999999998391
17.204999999999995,1.0580666666666427,1.1559999999998696,0.7375333333332827
17.224999999999994,1.2259999999998685,1.6939999999997275,0.857
17.244999999999997,1.3630370370370226,1.7702962962962883,0.7725555555555644
17.264999999999997,1.9451538461538274,1.752538461538472,0.5882307692307627
17.284999999999997,1.9861999999999922,1.3161000000000793,0.7301999999999697
17.304999999999996,2.093857142857118,0.7048571428571939,1.0007142857142484
17.324999999999996,2.4278437499999597,0.2298750000000184,1.408437499999962
17.344999999999995,2.564718749999957,0.16737500000001979,1.5371874999999593
17.364999999999995,3.4838999999998923,0.3162999999999244,2.221999999999892
17.384999999999994,3.8290999999999027,0.6061999999999192,2.5978999999998984
17.404999999999998,4.2918461538460875,0.8692307692307515,2.902307692307659
17.424999999999997,4.989999999999833,0.9390000000000075,3.17399999999995
17.444999999999997,5.313846153846091,0.8274615384615598,3.2878461538461323
17.464999999999996,6.317399999999972,0.30480000000008756,3.3273000000000392
17.484999999999996,6.52238461538459,-0.49938461538449425,3.0057692307692756
17.504999999999995,6.595785714285751,-2.215428571428435,2.6577857142856747
17.524999999999995,6.396285714285718,-2.4989285714286185,2.9363571428570827
17.544999999999995,6.382000000000004,-2.337500000000043,3.143499999999945
17.564999999999994,5.339800000000155,-0.1268000000004879,4.235999999999848
17.584999999999997,4.840900000000053,1.4704999999998472,4.6839999999999575
17.604999999999997,4.493800000000037,2.321733333333321,4.852000000000034
17.624999999999996,4.225125000000009,2.167375000000027,4.464781250000031
17.644999999999996,4.147625000000011,1.934875000000032,4.200406250000037
17.664999999999996,3.4171111111112156,0.00533333333381783,2.356444444444746
17.684999999999995,2.981785714285885,-1.5729999999997024,1.5427142857143923
17.704999999999995,2.059571428571574,-2.716428571428518,1.1120000000000319
17.724999999999994,1.2962000000002232,-2.743000000000072,1.1345999999999314
17.744999999999997,0.552000000000114,-2.3990000000000675,1.484999999999929
17.764999999999997,0.23580952380954517,-2.042809523809548,1.7526190476190295
17.784999999999997,-0.061199999999964685,-1.0312000000000567,2.4922999999999895
17.804999999999996,-0.4184545454544978,-0.6558181818181926,2.41454545454551
17.824999999999996,-0.7972399999999579,-0.6238799999999832,1.863920000000088
17.844999999999995,-0.9420399999999629,-0.6814799999999852,1.5623200000000772
17.864999999999995,-1.6409999999999316,-0.8529999999999828,0.4990000000000836
17.884999999999994,-2.1852857142855844,-1.053714285714236,-0.009571428571317653
17.904999999999998,-2.893636363636304,-1.2765454545454475,-0.48818181818179385
17.924999999999997,-3.6461333333333203,-1.3219333333333303,-0.795199999999994
17.944999999999997,-3.8674666666666404,-1.3712666666666609,-0.8971999999999879
17.964999999999996,-4.4619999999999616,-1.6595999999999347,-1.4583999999999138
17.984999999999996,-4.552444444444453,-2.061444444444221,-1.8546666666665195
18.004999999999995,-4.5650833333332885,-2.7117499999999,-2.2549999999999324
18.024999999999995,-4.778499999999992,-2.9757857142857076,-2.483857142857139
18.044999999999995,-4.813499999999993,-3.0036428571428515,-2.5024285714285677
18.064999999999994,-4.293200000000164,-2.8027999999998987,-2.1646000000000756
18.084999999999997,-3.539454545454599,-3.5761818181817326,-2.058454545454528
18.104999999999997,-3.0701818181818674,-4.351363636363563,-2.29299999999995
18.124999999999996,-2.8488888888888937,-4.613888888888899,-2.417000000000012
18.144999999999996,-2.96633333333329,-4.192111111111276,-2.2341111111111815
18.164999999999996,-3.2439999999999958,-2.594000000000382,-1.4244000000002486
18.184999999999995,-3.076000000000052,-1.1850000000002052,-0.38800000000016877
18.204999999999995,-1.9650666666669387,-0.5718666666666793,0.3281333333332911
18.224999999999994,-0.5431935483871926,-0.5841935483870818,0.47422580645161955
18.244999999999997,-0.14512903225812834,-0.6461290322580546,0.4464838709677464
18.264999999999997,1.4123999999999395,-1.3949999999998828,-0.2809999999998529
18.284999999999997,1.5438888888889104,-1.7660000000000022,-0.8578888888888394
18.304999999999996,1.3386000000000209,-1.5563000000000764,-1.0594000000000139
18.324999999999996,1.1513571428571625,-0.7739285714286652,-0.7884285714286139
18.344999999999995,1.064928571428589,-0.36321428571436903,-0.6027142857143235
18.364999999999995,1.1067999999998737,0.9397999999998637,0.2899999999998384
18.384999999999994,1.5892222222220849,1.4309999999998875,0.8871111111109861
18.404999999999994,1.9578571428571,1.7088571428571355,1.1140000000000052
18.424999999999997,2.0217333333333354,1.6954666666666705,1.0082000000000035
18.444999999999997,1.9890666666666705,1.6301333333333412,0.9502000000000069
18.464999999999996,2.0969999999999738,0.7610000000000898,0.6900000000000132
18.484999999999996,2.599888888888718,0.17000000000011606,0.8766666666665358
18.504999999999995,3.011666666666618,-0.024666666666658774,1.2913333333332666
18.524999999999995,3.7125555555554333,0.22933333333321174,2.2749999999998387
18.544999999999995,4.036722222222156,0.5837777777776982,2.6661111111110416
18.564999999999994,4.617666666666521,0.9969999999999289,2.9003333333332986
18.584999999999997,5.774599999999919,1.157800000000005,3.1625999999999825
18.604999999999997,6.768749999999906,1.0345000000000184,3.4409999999999883
18.624999999999996,7.251923076923021,0.8754615384615991,3.3813846153846594
18.644999999999996,7.5193333333332735,0.16355555555585977,3.053111111111189
18.664999999999996,7.669000000000013,-1.1219999999997208,2.8997999999999746
18.684999999999995,7.413000000000054,-1.9719999999999787,3.148499999999946
18.704999999999995,7.06188888888901,-1.7666666666669066,3.5565555555554096
18.724999999999994,6.319500000000257,-0.4620000000004998,4.173249999999853
18.744999999999997,5.858480000000045,0.4930799999998918,4.421159999999979
18.764999999999997,5.362909090909131,1.662181818181819,4.481000000000045
18.784999999999997,4.967363636363761,1.352000000000149,4.085727272727412
18.804999999999996,4.45811111111117,0.43122222222252493,3.3016666666669066
18.824999999999996,4.178000000000052,-0.7179999999998081,2.5170000000001176
18.844999999999995,3.6911621621622173,-1.664864864864791,2.0997297297297512
18.864999999999995,3.4187297297297836,-2.03189189189182,1.9937837837838046
18.884999999999994,1.2597272727275786,-3.3288181818182614,1.9659090909090324
18.904999999999994,0.426166666666806,-2.856666666666847,2.254833333333258
18.924999999999997,-0.17599999999989052,-1.99600000000017,2.647999999999917
18.944999999999997,-0.4398888888888836,-1.4341944444444639,2.866999999999993
18.964999999999996,-0.4843333333333254,-1.2714166666666957,2.9269999999999894
18.984999999999996,-0.7917777777776835,-1.0203333333333016,1.934222222222449
19.004999999999995,-1.1507272727272353,-1.2254545454544834,1.034818181818336
19.024999999999995,-1.415599999999955,-1.5449999999999777,0.305760000000052
19.044999999999995,-1.659599999999929,-1.664999999999965,0.024160000000082005
19.064999999999994,-2.9999999999997637,-2.176999999999958,-0.7883999999999095
19.084999999999997,-3.9227272727271663,-2.3261818181818157,-1.1692727272726786
19.104999999999997,-4.4900999999999245,-2.2773000000000225,-1.4998999999999394
19.124999999999996,-4.876499999999951,-2.238500000000003,-1.9334999999999225
19.144999999999996,-5.014249999999995,-2.2167500000000055,-2.189249999999976
19.164999999999996,-5.038340909090903,-2.1908409090909156,-2.2969772727272453
19.184999999999995,-4.91318181818187,-2.613363636363601,-3.1409090909090756
19.204999999999995,-4.41777777777802,-2.6946666666666887,-3.002666666666755
19.224999999999994,-3.434181818182024,-2.742545454545355,-2.6387272727273485
19.244999999999994,-2.951708333333408,-3.137833333333199,-2.4964583333333397
19.264999999999997,-2.770699999999975,-4.519799999999941,-2.4274000000000715
19.284999999999997,-2.90372727272726,-4.682818181818239,-1.8539090909091729
19.304999999999996,-3.2213999999998606,-3.874400000000319,-1.3812000000001148
19.324999999999996,-3.736699999999985,-2.0604000000003837,-0.5858000000001969
19.344999999999995,-3.564500000000082,-0.9685000000001658,0.017999999999897126
19.364999999999995,-1.663800000000365,0.32489999999999103,0.6720000000000586
19.384999999999994,0.13345454545403798,0.3607272727272394,0.1606363636365702
19.404999999999994,1.4718888888886594,0.2934444444445429,-0.4955555555553766
19.424999999999997,2.0919999999999743,-0.23489999999990252,-1.1171999999999278
19.444999999999997,2.1126086956521792,-0.6745217391304087,-1.3989999999999865
19.464999999999996,1.8286923076923718,-1.4205384615384506,-1.546000000000046
19.484999999999996,1.406666666666741,-1.1246666666668592,-1.043666666666883
19.504999999999995,1.282599999999983,-0.3580000000001517,-0.04260000000024422
19.524999999999995,1.4784999999999355,0.19519999999988902,0.9095999999998156
19.544999999999995,1.682111111111071,0.5177407407406844,1.4003333333332604
19.564999999999994,2.526999999999742,0.9683333333332875,1.7976666666666297
19.584999999999997,3.067538461538411,1.0193846153846169,1.8958461538461369
19.604999999999997,3.4609999999999523,0.9722500000000092,2.0482499999999857
19.624999999999996,3.7106666666666177,0.9061111111111512,2.0921111111111275
19.644999999999996,3.841239999999979,0.794480000000019,2.0544800000000047
19.664999999999996,4.186899999999948,0.6333999999999812,2.2630999999999193
19.684999999999995,4.4818999999999365,0.7728999999999715,2.7532999999999017
19.704999999999995,4.832818181818058,0.9405454545454126,3.234181818181698
19.724999999999994,5.253899999999838,1.0782999999999738,3.597499999999907
19.744999999999994,5.827199999999806,1.0627000000000646,3.8141999999999845
19.764999999999997,6.383888888888793,0.7932222222223204,3.814777777777798
19.784999999999997,6.765999999999961,0.3733000000000778,3.6504000000000474
19.804999999999996,6.887384615384583,-0.1589999999998661,3.3590769230769855
19.824999999999996,7.213058823529377,-1.3188235294116244,2.97535294117649
19.844999999999995,7.437666666666623,-2.332333333333287,3.0813333333332276
19.864999999999995,7.526000000000078,-2.3283000000000973,3.5604999999998848
19.884999999999994,6.9795000000001775,-1.3650000000004787,4.129499999999838
19.904999999999994,6.420888888888996,0.5242222222217527,4.599888888888787
19.924999999999997,6.243299999999997,2.0184999999998876,4.860699999999972
19.944999999999997,6.232217391304352,2.339608695652212,4.98682608695652
19.964999999999996,6.207000000000004,2.1170000000000395,4.998999999999998
19.984999999999996,5.027454545454653,0.3801818181820451,3.6798181818183684
20.004999999999995,4.239300000000199,-1.2073999999997076,2.5197000000001726
20.024999999999995,3.0356000000002963,-2.583199999999747,1.8142000000001104
20.044999999999995,2.3291666666667847,-3.1032499999999272,1.5532500000000433
20.064999999999994,0.9556000000002692,-3.3290000000001374,1.317199999999963
20.084999999999994,0.25909090909111077,-2.8637272727274037,1.5680909090908361
20.104999999999997,-0.3369230769230069,-2.440692307692379,1.8032307692307419
20.124999999999996,-0.8241999999999357,-1.8046000000001117,1.967400000000014
20.144999999999996,-0.99047368421051,-1.491421052631616,1.8178421052632021
20.164999999999996,-1.231181818181777,-1.2369090909090825,0.9398181818183199
20.184999999999995,-1.712399999999833,-1.3583999999999696,-0.03479999999979008
20.204999999999995,-2.452454545454373,-1.3503636363636742,-0.7293636363635205
20.224999999999994,-2.9588749999998565,-1.32574999999999,-1.2363749999998246
20.244999999999994,-3.2255599999999536,-1.3187600000000097,-1.5467599999999508
20.264999999999997,-3.8653636363635897,-1.2528181818181867,-1.8798181818181694
20.284999999999997,-4.362636363636296,-1.3469999999999678,-2.1019090909090434
20.304999999999996,-4.8063636363635815,-1.6283636363635778,-2.4642727272726694
20.324999999999996,-5.040111111111082,-1.9463888888888394,-2.75222222222218
20.344999999999995,-5.144461538461549,-2.616923076923072,-3.226230769230746
20.364999999999995,-4.972000000000051,-2.5831000000000364,-3.2070000000000665
20.384999999999994,-4.54320000000019,-2.2768000000000463,-2.568600000000207
20.404999999999994,-3.6455000000004008,-2.5204999999996893,-1.964750000000078
20.424999999999997,-2.503000000000088,-3.5613999999998858,-2.0443999999999427
20.444999999999997,-2.2653076923077076,-3.9549230769230324,-2.3044615384614975
20.464999999999996,-2.1076666666666006,-4.593666666666768,-2.7536666666666907
20.484999999999996,-2.6105454545453632,-3.2604545454550484,-2.155272727273041
20.504999999999995,-2.5385555555557464,-1.5863333333336667,-0.7908888888892894
20.524999999999995,-1.5738571428577635,-0.6702857142859415,0.4464285714282285
20.544999999999995,-0.4013200000001951,-0.32688000000003825,0.9253199999999574
20.564999999999994,2.0487999999995514,0.05899999999995524,1.1538000000000468
20.584999999999994,3.2243999999997244,-0.10859999999982799,0.8308000000001874
20.604999999999997,3.7106666666666297,-0.6705555555554301,0.26066666666679167
20.624999999999996,3.5138000000001073,-1.2051999999999636,-0.19159999999997754
20.644999999999996,2.6792000000001015,-1.168000000000054,-0.1542000000000375
20.664999999999996,2.188545454545496,-0.5885454545455832,0.25354545454536026
20.684999999999995,2.120153846153833,0.08999999999986064,0.797153846153726
20.704999999999995,2.577499999999856,0.7849999999998465,1.5202999999998268
20.724999999999994,2.983285714285536,1.1631428571427223,1.9622857142855603
20.744999999999994,3.2446470588234844,1.3363529411764494,2.1971764705881918
20.764999999999997,3.3669999999999782,1.3939999999999897,2.3159999999999785
20.784999999999997,4.009333333333297,1.2433333333333965,3.020166666666639
20.804999999999996,4.123727272727257,0.9055454545455222,3.117909090909073
20.824999999999996,4.189499999999966,0.6075000000000589,3.2394999999999365
20.844999999999995,4.293037037037018,0.5062222222222296,3.419888888888857
20.864999999999995,4.817999999999888,0.5749999999999371,3.9894999999999006
20.884999999999994,5.216636363636268,0.7447272727272705,4.235545454545425
20.904999999999994,5.680399999999874,0.6044000000000793,4.314599999999988
20.924999999999997,6.102818181818101,0.4510000000000294,4.382636363636348
20.944999999999997,6.298799999999978,0.3082000000000281,4.414799999999997
20.964999999999996,6.4943999999999935,-0.3923999999998903,4.334200000000011
20.984999999999996,6.763399999999877,-1.522399999999624,4.13520000000007
21.004999999999995,7.010454545454527,-2.531727272727228,3.976999999999978
21.024999999999995,7.1004000000000325,-2.2454000000002083,4.237199999999869
21.044999999999995,6.875153846153901,-1.5928461538462713,4.563538461538412
21.064999999999994,6.240636363636377,1.0114545454541786,5.169909090909032
21.084999999999994,6.389909090909061,1.9818181818180691,5.330818181818151
21.104999999999997,6.443181818181866,1.9139090909091867,5.312454545454579
21.124999999999996,6.054866666666775,1.403666666666793,4.99900000000009
21.144999999999996,5.298285714285793,0.31742857142869185,4.102714285714379
21.164999999999996,4.232000000000219,-1.9331818181815132,2.735818181818323
21.184999999999995,2.9700000000004856,-3.0888888888886625,2.322444444444503
21.204999999999995,1.6485000000002819,-3.2875000000000636,2.2604999999999826
21.224999999999994,0.8252307692309371,-2.8603076923078676,2.335076923076918
21.244999999999994,0.462166666666735,-2.346833333333479,2.387222222222197
21.264999999999997,0.025363636363640064,-1.3761818181818752,2.422545454545459
21.284999999999997,-0.009799999999982382,-0.8922000000000304,2.259800000000049
21.304999999999996,-0.30546153846147844,-0.7623846153846265,1.7507692307693334
21.324999999999996,-0.6691999999999289,-0.8065999999999632,0.9346000000002019
21.344999999999995,-0.8822727272726774,-0.9330909090908769,0.48163636363644574
21.364999999999995,-1.7369999999998391,-1.1549999999999596,-0.15549999999992276
21.384999999999994,-2.132874999999947,-1.3042499999999662,-0.331374999999977
21.404999999999994,-2.2920416666666275,-1.4059166666666418,-0.4005416666666498
21.424999999999994,-3.0374999999997776,-1.4665000000000281,-0.5682499999999674
21.444999999999997,-3.5389999999999366,-1.4449999999999976,-0.6709999999999833
21.464999999999996,-3.7608823529411515,-1.7885882352940594,-0.9968823529411249
21.484999999999996,-4.313909090908998,-2.306454545454482,-1.6256363636362892
21.504999999999995,-4.815999999999876,-2.5664999999999325,-1.9559999999999094
21.524999999999995,-5.033249999999967,-2.672187499999986,-2.1581874999999617
21.544999999999995,-4.991800000000042,-2.5106000000000144,-2.2405199999999965
21.564999999999994,-3.243000000000346,-2.896272727272498,-2.1297272727272936
21.584999999999994,-2.571545454545391,-3.6787272727272,-2.0894545454545566
21.604999999999997,-2.726222222222235,-3.7342222222222325,-2.104999999999981
21.624999999999996,-2.9354999999998945,-3.285000000000165,-2.280999999999968
21.644999999999996,-3.2902499999999635,-2.54675000000009,-2.318500000000001
21.664999999999996,-2.825153846154029,-0.8640769230770202,-1.329153846154002
21.684999999999995,-1.2970909090912457,-0.6158181818181677,-0.4669090909091741
21.704999999999995,0.35049999999961573,-0.5060000000000331,-0.2385000000000037
21.724999999999994,1.6109999999997484,-0.6144999999999057,-0.3769999999999286
21.744999999999994,2.052499999999915,-0.8424999999999422,-0.5317499999999636
21.764999999999997,2.207636363636374,-1.0167272727272878,-0.7512727272727295
21.784999999999997,2.039909090909128,-0.665727272727388,-0.5739090909091489
21.804999999999996,1.8580909090909392,0.1335454545452786,-0.22718181818188687
21.824999999999996,1.7815000000000052,0.9034999999999008,0.19399999999991258
21.844999999999995,1.7828235294117614,1.2362352941175743,0.5719999999999041
21.864999999999995,1.9919999999999478,1.5625833333333194,1.2464166666666
21.884999999999994,2.3124999999999303,1.5215000000000347,1.534499999999927
21.904999999999994,2.4729999999999883,1.227333333333405,1.8153333333332742
21.924999999999994,2.5554999999999555,0.7190000000001733,2.2509999999998507
21.944999999999997,2.675749999999979,0.3851250000000502,2.485999999999969
21.964999999999996,3.384499999999925,-0.5404999999999358,3.2209999999999113
21.984999999999996,3.8174999999999355,-0.8279999999999709,3.8329999999998736
22.004999999999995,4.188909090909011,-0.8060909090909434,4.606090909090742
22.024999999999995,4.493499999999932,-0.5205000000000634,5.4954999999997876
22.044999999999995,4.79213043478251,-0.34621739130439627,5.889347826086874
22.064999999999994,5.990181818181582,-0.2897272727272405,6.299363636363646
22.084999999999994,6.710999999999841,-0.4164999999999856,6.003500000000141
22.104999999999997,7.039999999999967,-0.4929999999999638,5.4130000000001095
22.124999999999996,7.210999999999971,-0.8559999999999262,5.011000000000059
22.144999999999996,7.605052631578895,-1.8612631578945902,4.675736842105297
22.164999999999996,7.789,-2.320545454545543,4.82509090909083
22.184999999999995,7.545818181818277,-1.1906363636366208,5.3412727272726075
22.204999999999995,6.375500000000347,0.6134999999995157,5.939999999999903
22.224999999999994,6.51142857142868,1.4377142857139464,6.1287142857143015
22.244999999999994,6.142000000000125,2.0379999999998737,5.868000000000117
22.264999999999993,5.998909090909291,1.2709090909093375,4.909090909091205
22.284999999999997,5.495000000000071,0.1918888888892547,3.93755555555583
22.304999999999996,5.146916666666788,-1.1268333333330862,3.081000000000147
22.324999999999996,4.365000000000166,-2.2404999999998667,2.602000000000027
22.344999999999995,3.816000000000075,-2.6513333333332807,2.655666666666645
22.364999999999995,2.368500000000283,-2.272000000000176,2.989499999999945
22.384999999999994,1.540666666666864,-1.5180000000002487,3.0748888888888994
22.404999999999994,1.0015000000001018,-0.9075000000001392,2.8655000000001016
22.424999999999994,0.662600000000093,-0.5886000000000606,2.488600000000128
22.444999999999997,0.4330000000000237,-0.5275714285714178,2.1115714285714793
22.464999999999996,-0.11499999999986263,-0.9194444444443975,1.07611111111129
22.484999999999996,-0.6685555555554035,-1.2129999999998815,0.3807777777779504
22.504999999999995,-1.2571818181816807,-1.6452727272726568,-0.08445454545448292
22.524999999999995,-1.9074999999998996,-1.8499999999999763,-0.23499999999999052
22.544999999999995,-2.415947368420917,-1.921684210526303,-0.30405263157892615
22.564999999999994,-3.403909090908911,-1.7037272727273214,-0.3263636363636575
22.584999999999994,-3.939444444444317,-1.5851111111111338,-0.3833333333332923
22.604999999999997,-4.262777777777723,-1.7462222222221253,-0.7815555555553371
22.624999999999996,-4.4062727272727,-2.1040909090908344,-1.5692727272725784
22.644999999999996,-4.444176470588236,-2.3172352941176184,-1.982941176470534
22.664999999999996,-4.351999999999933,-2.4065000000000305,-2.5089999999999275
22.684999999999995,-4.023666666666893,-2.2982222222221917,-2.520444444444502
22.704999999999995,-3.1736250000003805,-2.8526249999995548,-2.3851250000000044
22.724999999999994,-2.5282000000001634,-3.78599999999971,-2.365000000000057
22.744999999999994,-2.331720000000034,-4.016239999999989,-2.2597200000000273
22.764999999999993,-2.1804999999998924,-3.4550000000004917,-1.8785000000001515
22.784999999999997,-2.416399999999992,-1.447800000000472,-1.2464000000001774
22.804999999999996,-2.143400000000143,0.2927999999997344,-0.364000000000194
22.824999999999996,-1.2235714285718458,0.8412857142856649,0.27699999999983355
22.844999999999995,-0.1843181818183346,0.942227272727261,0.5447272727272545
22.864999999999995,1.3949999999998615,0.8637272727273586,0.3280909090909854
22.884999999999994,1.8673999999999522,0.052400000000290436,-0.2925999999998033
22.904999999999994,1.8467777777778343,-0.8459999999997395,-0.7613333333332425
22.924999999999994,1.7260000000000346,-1.2759999999999005,-0.7830000000000261
22.944999999999997,1.583285714285721,-1.1137142857143074,-0.2859047619048007
22.964999999999996,1.617727272727279,-0.1119090909092707,0.7709999999998782
22.984999999999996,1.6524999999999619,0.6789999999998935,1.3784999999998895
23.004999999999995,1.8379999999999423,1.204499999999877,1.8849999999999072
23.024999999999995,2.1018333333330856,1.4388333333332988,2.0020000000000535
23.044999999999995,2.4950909090908415,1.4598181818181848,1.89768181818184
23.064999999999994,2.9087647058823576,1.182176470588312,1.6838823529411855
23.084999999999994,2.9565999999999457,0.6242000000001751,1.714199999999962
23.104999999999993,3.3362727272725814,0.15790909090918898,2.0077272727271405
23.124999999999996,3.799999999999928,-0.019499999999991118,2.587499999999873
23.144999999999996,4.010285714285689,0.017285714285702622,3.0338571428570793
23.164999999999996,4.72066666666645,0.30833333333323665,3.9099999999997985
23.184999999999995,5.412499999999814,0.5754999999999473,4.512999999999851
23.204999999999995,6.235199999999764,0.7387999999999614,5.064199999999891
23.224999999999994,7.016888888888682,0.6441111111111764,5.2387777777777655
23.244999999999994,7.667333333333211,0.31944444444455866,5.089555555555636
23.264999999999993,7.873199999999968,0.0022000000000686193,4.899600000000038
23.284999999999997,8.33655555555548,-1.6429999999995737,4.327222222222324
23.304999999999996,8.41500000000001,-2.5767999999999627,4.0718000000000245
23.324999999999996,8.23044444444454,-2.146111111111347,4.153666666666599
23.344999999999995,7.747000000000086,-0.8650000000002629,4.491499999999926
23.364999999999995,7.3645882352941525,0.691941176470439,4.869117647058787
23.384999999999994,7.259882352941211,1.138411764705738,4.976176470588201
23.404999999999994,6.831400000000123,1.7610000000002075,5.109000000000017
23.424999999999994,5.9180000000003785,0.8015555555559652,4.718333333333569
23.444999999999997,5.182545454545581,-0.5944545454542175,4.033818181818323
23.464999999999996,4.347578947368488,-1.9807894736841545,3.471368421052654
23.484999999999996,3.9528421052632354,-2.3134210526315138,3.339263157894763
23.504999999999995,1.114545454545742,-3.020818181818277,2.6949090909091518
23.524999999999995,0.14700000000015395,-2.2823333333335123,2.3800000000000545
23.544999999999995,-0.33536363636356964,-1.468454545454723,2.1270000000000464
23.564999999999994,-0.4497000000000003,-0.8925000000000928,2.0759000000000025
23.584999999999994,-0.31600000000009243,-0.3956666666667795,1.8890000000001421
23.604999999999993,-0.2514999999999615,-0.32149999999999707,1.4070000000001812
23.624999999999996,-0.36081818181816255,-0.571272727272685,0.6725454545455503
23.644999999999996,-0.8226249999998516,-0.8554999999999421,0.0367500000001289
23.664999999999996,-1.3463999999998852,-1.1415999999999398,-0.3183999999999471
23.684999999999995,-1.8673333333332012,-1.1505000000000385,-0.3735000000000148
23.704999999999995,-2.405909090908985,-1.0759090909091027,-0.43536363636358905
23.724999999999994,-2.980666666666448,-1.0390000000000024,-0.7093333333332063
23.744999999999994,-3.412999999999917,-1.0758333333333285,-1.084749999999886
23.764999999999993,-3.6738799999999636,-1.1578399999999804,-1.4706799999999423
23.784999999999997,-3.9785999999998602,-1.4561999999998396,-1.9391999999998268
23.804999999999996,-4.351909090909032,-1.727363636363625,-2.1959090909090704
23.824999999999996,-4.39436363636373,-1.7297272727272996,-2.1209090909091772
23.844999999999995,-4.064333333333422,-1.815666666666612,-1.8796666666666901
23.864999999999995,-3.4681052631580203,-2.607736842105106,-1.9292105263157424
23.884999999999994,-2.607400000000127,-3.6375999999998125,-2.321399999999911
23.904999999999994,-2.2988000000000666,-4.080399999999884,-2.6423999999999523
23.924999999999994,-2.1096000000000106,-3.94600000000025,-2.6678000000000637
23.944999999999993,-2.0710000000000286,-2.4576000000005096,-1.863600000000358
23.964999999999996,-1.8096842105263788,-0.5201578947369606,-0.29742105263168933
23.984999999999996,-0.1788461538465269,0.8370769230767736,0.8253076923076011
24.004999999999995,1.9807999999995938,1.3273999999999513,0.9646000000000188
24.024999999999995,2.7918181818180687,1.3708181818181824,0.8444545454545724
24.044999999999995,3.439785714285655,0.9808571428572481,0.36000000000008203
24.064999999999994,3.6048157894736974,-0.09107894736834402,-0.24789473684206464
24.084999999999994,3.5611315789473825,-0.3526578947367577,-0.38578947368416605
24.104999999999993,2.4458000000006614,-1.398000000000164,-0.24920000000046427
24.124999999999996,1.7540000000000686,-0.722333333333503,0.7649999999997845
24.144999999999996,1.7543333333332827,0.0916666666665017,1.8796666666664543
24.164999999999996,2.0677241379309943,0.7561379310344014,2.552965517241328
24.184999999999995,2.2097931034482334,1.0451034482757753,2.73572413793098
24.204999999999995,3.1081249999998977,1.768249999999967,2.4745000000000816
24.224999999999994,3.454399999999898,1.7542000000000386,2.2328000000000467
24.244999999999994,3.7374999999999114,1.5890000000000628,2.067000000000051
24.264999999999993,4.029333333333283,1.2563333333334008,2.000333333333333
24.284999999999997,4.373666666666626,0.8270000000000651,2.1983333333332866
24.304999999999996,4.6113333333332855,0.6786666666666841,2.6679999999998936
24.324999999999996,4.97390909090903,0.7441818181817939,3.199636363636284
24.344999999999995,5.26618749999998,0.9912812499999742,3.6917812499999583
24.364999999999995,5.354937499999978,1.1044062499999716,3.8749062499999543
24.384999999999994,6.2505833333331315,1.2524166666667322,4.289916666666694
24.404999999999994,6.898333333333157,0.7506666666669004,4.072333333333436
24.424999999999994,6.998000000000043,0.1560000000002558,3.772000000000147
24.444999999999993,7.001399999999951,-0.8906999999995538,3.366400000000127
24.464999999999996,7.226999999999935,-2.046499999999707,3.3139999999999232
24.484999999999996,7.143500000000062,-2.3421000000000625,3.90469999999985
24.504999999999995,6.711875000000134,-1.6820000000002557,4.485249999999867
24.524999999999995,5.946500000000173,-0.07320000000039395,4.82109999999996
24.544999999999995,5.493700000000038,1.4609999999997398,4.671200000000078
24.564999999999994,5.643999999999921,2.141499999999907,4.260000000000147
24.584999999999994,5.84309999999997,1.9678000000001998,3.614100000000207
24.604999999999993,5.701000000000205,1.0534285714291398,2.886285714286159
24.624999999999996,5.198500000000062,-0.4948999999997387,1.9508000000001169
24.644999999999996,4.4510000000002234,-1.8829999999997538,1.7179999999999847
24.664999999999996,3.328000000000571,-2.658666666666466,2.025999999999768
24.684999999999995,1.7450000000002368,-2.7753333333334,2.671999999999911
24.704999999999995,0.803333333333525,-2.118000000000237,2.903666666666647
24.724999999999994,0.2108181818183192,-1.2576363636365933,2.819363636363691
24.744999999999994,-0.0675999999999369,-0.6948000000001375,2.447800000000146
24.764999999999993,-0.1477647058823422,-0.38341176470594684,2.0871176470589012
24.784999999999993,-0.30666666666658576,-0.25744444444443987,1.2635555555557674
24.804999999999996,-0.5231818181817746,-0.4471818181817667,0.5466363636365053
24.824999999999996,-0.8827999999999088,-0.8135999999999156,-0.199099999999858
24.844999999999995,-1.3229999999999105,-1.0446999999999698,-0.7020999999999348
24.864999999999995,-1.5513636363635814,-1.0412727272727356,-0.7966818181818021
24.884999999999994,-2.0033999999999175,-1.0192999999999872,-0.8801000000000182
24.904999999999994,-2.258909090909022,-0.9950909090909105,-0.6819090909091567
24.924999999999994,-2.676090909090778,-1.0396363636363453,-0.5426363636363826
24.944999999999993,-2.8796666666666417,-1.3109999999997868,-0.6013333333332751
24.964999999999996,-2.9216521739130386,-1.5888260869564916,-0.7031739130434662
24.984999999999996,-3.1427999999999514,-2.042699999999953,-1.41839999999985
25.004999999999995,-3.340444444444431,-2.2322222222221586,-2.218333333333117
25.024999999999995,-3.068333333333382,-2.363999999999995,-2.773666666666589
25.044999999999995,-2.5490000000001665,-2.96719999999978,-3.0247999999999684
25.064999999999994,-2.2730344827586015,-3.547344827586199,-2.9754482758620915
25.084999999999994,-2.3606206896551516,-3.5832068965517156,-2.874068965517266
25.104999999999993,-3.4453999999997555,-2.4467000000004178,-2.50650000000003
25.124999999999996,-4.026599999999955,-0.7974000000002379,-2.2006000000000676
25.144999999999996,-3.199600000000312,0.332099999999841,-1.5426000000001672
25.164999999999996,-2.082128205128292,0.5101794871794971,-1.0458461538461812
25.184999999999995,-1.7149487179488268,0.4681282051282176,-0.9304615384615726
25.204999999999995,0.9275999999997109,-0.17379999999990023,-0.7577999999999557
25.224999999999994,2.05090909090883,-0.837545454545249,-1.1246363636362315
25.244999999999994,2.4182352941176353,-1.2687058823529003,-1.3512941176470563
25.264999999999993,2.318939393939422,-1.2056363636364196,-1.1328484848485472
25.284999999999993,2.243787878787903,-1.0547272727273214,-0.9649696969697512
25.304999999999996,2.006999999999986,0.76744444444431,0.6358888888887715
25.324999999999996,2.3302222222220865,1.3686666666665266,1.297777777777558
25.344999999999995,2.5919999999999597,1.694999999999943,1.8369999999999027
25.364999999999995,2.7348333333333206,1.8523333333333363,2.1264999999999907
25.384999999999994,2.7742777777777663,1.8434444444444469,2.1548333333333254
25.404999999999994,3.0999999999999504,1.2052500000001718,1.870750000000052
25.424999999999994,3.159363636363625,0.824545454545597,1.830727272727272
25.444999999999993,3.3067999999997917,0.3154000000004169,1.9515999999998643
25.464999999999996,3.5823999999999856,-0.039066666666662246,2.240233333333314
25.484999999999996,3.706399999999978,-0.07639999999999338,2.400899999999971
25.504999999999995,4.4539999999998665,0.14549999999991342,3.2242499999998646
25.524999999999995,5.177444444444197,0.3357777777777001,3.4649999999999643
25.544999999999995,6.0246363636361915,0.6423636363635994,3.5511818181818327
25.564999999999994,6.655241379310271,0.7123448275861866,3.4529310344827797
25.584999999999994,6.91593103448268,0.7847586206896335,3.3784482758620915
25.604999999999993,7.038000000000083,-0.2152222222218558,2.6435555555556727
25.624999999999993,6.876400000000023,-1.4911999999995977,2.426800000000041
25.644999999999996,6.630300000000082,-1.9052000000000358,2.551399999999927
25.664999999999996,6.395272727272737,-1.4010909090909807,2.9338181818181392
25.684999999999995,6.339515151515165,-0.9980606060607016,3.1732121212120648
25.704999999999995,5.791111111111073,2.634444444444043,4.375333333333231
25.724999999999994,6.317599999999828,3.2259999999999316,4.466400000000013
25.744999999999994,6.834499999999904,3.016500000000132,4.488000000000031
25.764999999999993,7.045058823529439,2.202764705882492,4.162941176470665
25.784999999999993,6.972705882352968,1.8421764705883708,3.9652941176471335
25.804999999999996,5.63940000000014,-1.653699999999715,2.4164000000000665
25.824999999999996,4.486600000000248,-2.7423999999998667,2.515599999999899
25.844999999999995,3.8235833333334455,-2.7704166666667858,3.114666666666485
25.864999999999995,3.5885454545454634,-2.1446363636364167,3.653181818181798
25.884999999999994,3.549909090909101,-1.9087272727273337,3.74363636363634
25.904999999999994,2.2493333333337207,-0.1426666666668877,4.082333333333404
25.924999999999994,1.315200000000185,0.3182999999999264,3.6084000000002145
25.944999999999993,0.8658181818183264,0.2532727272728299,2.7942727272730603
25.964999999999996,0.4788055555555746,-0.11533333333331361,1.8729722222222644
25.984999999999996,0.3182500000000285,-0.2819999999999704,1.5157500000000634
26.004999999999995,-1.1475555555552819,-1.5005555555554062,-0.5406666666664673
26.024999999999995,-2.0737999999997463,-1.6923999999999841,-0.7875999999999819
26.044999999999995,-2.7411999999998415,-1.6788000000000052,-0.47600000000014775
26.064999999999994,-3.068676470588201,-1.6880294117647106,-0.4161470588235091
26.084999999999994,-3.1963235294117314,-1.6709705882352985,-0.49085294117645106
26.104999999999993,-3.8291999999999335,-1.4841999999999942,-1.4889999999998274
26.124999999999993,-4.066124999999873,-1.553874999999967,-2.1251249999996813
26.144999999999996,-4.342599999999942,-1.4104000000000547,-2.541199999999976
26.164999999999996,-4.572058823529433,-1.303588235294089,-2.4431176470588998
26.184999999999995,-4.278000000000222,-2.112399999999703,-2.0520000000000937
26.204999999999995,-2.8571111111116,-3.5868888888883115,-1.8711111111111145
26.224999999999994,-2.127363636363736,-4.714090909090747,-2.141999999999914
26.244999999999994,-1.9452307692308055,-4.64184615384626,-2.278461538461526
26.264999999999993,-1.9664615384615043,-3.6802307692310654,-2.2731538461538756
26.284999999999993,-2.151999999999968,-1.3005000000019593,-1.604500000000929
26.304999999999996,-1.2807777777779719,0.6331111111109442,-0.2938888888890368
26.324999999999996,0.532249999999709,1.0927499999999737,0.14374999999999732
26.344999999999995,1.8999999999998156,1.177499999999983,-0.44849999999980583
26.364999999999995,2.404720000000012,1.0147600000000836,-1.6741599999998233
26.384999999999994,1.8832000000004194,-0.09499999999928382,-2.9401999999995243
26.404999999999994,1.133545454545714,-1.071999999999787,-3.3084545454545764
26.424999999999994,0.20700000000036478,-1.1386666666668104,-2.5310000000004975
26.444999999999993,-0.2207272727272627,-0.4750000000001902,-0.9291818181822483
26.464999999999996,-0.08245945945947453,0.005135135135097557,0.08232432432425445
26.484999999999996,-0.011108108108122836,0.18297297297293624,0.4131351351350669
26.504999999999995,1.0775999999998054,1.0321999999999523,1.625799999999917
26.524999999999995,1.7397499999998376,1.0351250000000154,1.8754999999999389
26.544999999999995,1.9747499999999392,0.9986666666666982,1.9874999999999912
26.564999999999994,2.2299999999999516,0.7452000000000532,2.003599999999996
26.584999999999994,2.6840909090907914,0.39790909090915666,2.140090909090869
26.604999999999993,3.393374999999683,0.1061250000001209,2.439874999999847
26.624999999999993,3.889499999999804,0.03387499999997502,2.784874999999815
26.644999999999996,4.157333333333283,0.19699999999996684,3.1143999999999394
26.664999999999996,4.524620689655143,0.41324137931033483,3.5322758620689445
26.684999999999995,4.705999999999968,0.4759999999999888,3.6639999999999766
26.704999999999995,6.253999999999725,0.7105555555555345,4.43355555555545
26.724999999999994,7.119999999999811,0.686200000000006,4.587799999999949
26.744999999999994,7.661999999999876,0.45900000000009133,4.447285714285776
26.764999999999993,8.249714285714152,-0.3162857142854835,4.060000000000083
26.784999999999993,9.21011111111086,-2.0994444444440137,3.52488888888901
26.804999999999996,9.447999999999988,-2.3062000000000573,3.7961999999999194
26.824999999999996,9.058272727272884,-1.1375454545458459,4.513727272727083
26.844999999999995,8.148000000000252,0.7231111111106332,5.199888888888699
26.864999999999995,7.465142857142962,1.7628571428570028,5.496571428571382
26.884999999999994,6.617444444444598,2.1467777777778667,5.440333333333429
26.904999999999994,6.025222222222408,1.211222222222517,4.766111111111321
26.924999999999994,5.236875000000269,0.002125000000386623,3.8777500000002623
26.944999999999993,4.160142857143224,-1.1951428571425207,3.2292857142858824
26.964999999999993,3.0756666666668857,-2.133999999999825,2.8180000000000778
26.984999999999996,1.7474000000003018,-2.756799999999984,2.3308000000001377
27.004999999999995,0.7418000000002268,-2.3048000000001956,1.9470000000000596
27.024999999999995,0.3116923076923708,-1.5433076923078641,1.9416153846153514
27.044999999999995,0.2073846153845885,-0.7113076923078588,2.16084615384612
27.064999999999994,0.37853846153844134,-0.10007692307702482,2.1669230769231063
27.084999999999994,0.24428571428580204,0.1502857142857005,1.7294285714287816
27.104999999999993,0.013533333333409656,0.10186666666668756,1.0482666666668614
27.124999999999993,-0.4749999999997564,-0.19728571428550545,-0.022571428570905383
27.144999999999996,-0.8924666666665817,-0.46339999999996306,-0.5147999999999451
27.164999999999996,-1.4619565217390866,-0.6573478260869495,-0.7551304347826046
27.184999999999995,-2.0008571428570225,-0.7608571428570894,-0.8502857142856537
27.204999999999995,-2.2958888888888267,-0.9857777777777199,-0.9079999999999953
27.224999999999994,-2.347749999999999,-1.3504999999998542,-0.975499999999961
27.244999999999994,-2.382799999999968,-1.7485999999999402,-1.1717999999999393
27.264999999999993,-2.441800000000003,-1.8769999999999623,-1.4165199999999438
27.284999999999993,-2.561999999999645,-2.3099999999996905,-1.8489999999995668
27.304999999999996,-3.3313999999998893,-2.2418000000000466,-2.1621999999999804
27.324999999999996,-3.818199999999964,-1.8764000000000665,-2.172200000000001
27.344999999999995,-3.1880666666668556,-2.3427999999998406,-2.188133333333318
27.364999999999995,-2.3216250000000467,-3.3077499999999036,-2.390999999999967
27.384999999999994,-2.3669999999997913,-3.81099999999993,-2.7559999999998293
27.404999999999994,-3.213454545454243,-3.0405454545458244,-2.8117272727272993
27.424999999999994,-3.6765000000000123,-1.0928000000005014,-2.3810000000001397
27.444999999999993,-2.800461538461916,0.3816923076918949,-1.3990769230773017
27.464999999999993,-1.5462068965519418,0.9345517241379164,-0.5705517241380175
27.484999999999996,-0.9000000000001148,0.9779999999999922,-0.3140000000000456
27.504999999999995,2.1689999999997998,0.6460000000000782,-0.8519999999998527
27.524999999999995,2.6608999999999163,-0.1458999999997871,-1.5716999999998231
27.544999999999995,2.520000000000071,-0.9934999999998031,-1.900666666666639
27.564999999999994,2.0220000000001965,-1.2769999999999788,-1.4600000000001967
27.584999999999994,1.6673809523809866,-0.8114761904763323,-0.6702857142858658
27.604999999999993,1.4071111111112529,0.46722222222175985,0.40644444444412486
27.624999999999993,1.4069999999999232,1.0619999999998593,1.06999999999976
27.644999999999996,1.6715454545454038,1.389909090909018,1.6574545454544216
27.664999999999996,2.117999999999849,1.482166666666673,1.8526666666666538
27.684999999999995,2.5351538461537926,1.3373076923077276,1.8626153846153732
27.704999999999995,2.6898181818181564,1.0990000000000484,1.9342727272727092
27.724999999999994,2.825818181818132,0.8213636363637172,1.9504545454545499
27.744999999999994,3.3232999999998523,0.6134000000000467,1.9591999999999912
27.764999999999993,3.8018333333332235,0.5681666666666612,2.246666666666559
27.784999999999993,4.388444444444166,0.7055555555554689,2.8338888888886062
27.804999999999993,4.704521739130309,0.7804347826086668,3.0406521739129664
27.824999999999996,5.880818181818021,0.9936363636363812,3.626909090909028
27.844999999999995,6.55190909090895,0.8730000000000436,3.8533636363635946
27.864999999999995,7.292999999999839,0.5365454545455299,3.980999999999976
27.884999999999994,7.741363636363566,0.19900000000006782,3.985181818181829
27.904999999999994,7.765193548387094,0.07345161290326482,3.954806451612913
27.924999999999994,7.8808749999999215,-1.141624999999666,3.770125000000035
27.944999999999993,7.899000000000059,-1.7719999999999254,3.932999999999904
27.964999999999993,7.510764705882476,-1.3122941176472378,4.2532352941175455
27.984999999999996,7.070588235294154,-0.3296470588236482,4.672588235294079
28.004999999999995,6.9317647058823875,0.12505882352929776,4.823764705882315
28.024999999999995,6.779727272727247,2.063545454545404,4.951272727272777
28.044999999999995,6.865999999999999,1.7640000000001903,4.51700000000017
28.064999999999994,6.7170000000000964,0.8840000000003367,3.913000000000247
28.084999999999994,6.1700000000006865,-0.39099999999833507,3.125000000000886
28.104999999999993,5.911904761904869,-1.1605238095234904,2.8611904761905853
28.124999999999993,4.312166666666996,-2.732833333333176,2.8156666666665977
28.144999999999996,2.970272727272995,-2.8870000000000338,2.978909090909076
28.164999999999996,1.8060000000001657,-2.2210000000001244,2.879000000000029
28.184999999999995,1.136066666666777,-1.493533333333457,2.605400000000055
28.204999999999995,0.6766666666667427,-0.8216666666668049,2.2926666666667512
28.224999999999994,0.44428571428575775,-0.47371428571432345,1.8761428571429575
28.244999999999994,0.15890909090916314,-0.5275454545454233,1.1100000000001695
28.264999999999993,-0.45999999999972935,-0.7219999999999425,0.30900000000025934
28.284999999999993,-1.2939999999997094,-0.7949999999999638,-0.27199999999980745
28.304999999999993,-1.589483870967642,-0.8891935483870649,-0.46941935483864294
28.324999999999996,-2.546999999999892,-0.719000000000043,-1.156999999999928
28.344999999999995,-2.7539999999999796,-0.5000000000000394,-1.3859999999999573
28.364999999999995,-2.7860000000000142,-0.32883333333336573,-1.568083333333296
28.384999999999994,-2.753259259259254,-0.42840740740737937,-1.7445185185184897
28.404999999999994,-3.1029999999991973,-0.8989999999992468,-2.2389999999992183
28.424999999999994,-3.6389285714284068,-1.3184999999998934,-2.654642857142719
28.444999999999993,-4.087416666666546,-1.5815833333332885,-3.11874999999989
28.464999999999993,-4.392769230769142,-1.659692307692282,-3.204769230769244
28.484999999999996,-4.392629629629648,-1.749851851851828,-2.9519629629629986
28.504999999999995,-3.4222000000003856,-2.427099999999772,-2.6209999999999662
28.524999999999995,-2.2381666666669138,-3.0079999999999054,-2.74374999999997
28.544999999999995,-1.5253333333334913,-3.054666666666636,-2.6743333333333696
28.564999999999994,-0.9541818181817938,-3.420181818182015,-2.4072727272728596
28.584999999999994,-1.125999999999937,-2.4856363636366527,-1.77272727272747
28.604999999999993,-1.1904117647058645,-2.0202941176471994,-1.3799411764707104
28.624999999999993,-0.04500000000434856,-0.5340000000011724,0.6269999999966889
28.644999999999992,1.2860909090903894,-0.38163636363643616,1.1710909090907335
28.664999999999996,2.3866363636361343,-0.07590909090916315,1.2823636363636428
28.684999999999995,3.0866428571427837,0.031357142857142674,1.136785714285749
28.704999999999995,3.6509999999998914,0.004999999999992895,0.5910000000003446
28.724999999999994,3.3190769230770467,0.1678461538461075,0.3590769230769721
28.744999999999994,2.5188181818183457,0.5657272727271696,0.04563636363643939
28.764999999999993,2.0408181818182682,1.0348181818180744,-0.17163636363633764
28.784999999999993,1.853714285714312,1.4150714285713724,-0.0250714285714827
28.804999999999993,1.789999999999936,1.7749999999997914,0.7139999999992372
28.824999999999996,1.941999999999977,1.71200000000002,1.2349999999999255
28.844999999999995,1.914454545454567,1.4474545454546106,1.6755454545453603
28.864999999999995,1.7770833333333573,1.0562500000000865,1.9762499999999443
28.884999999999994,1.7779999999999603,0.6470000000001223,2.3389999999998614
28.904999999999994,1.8495789473684003,0.5433157894737143,2.431105263157868
28.924999999999994,2.6221818181816716,0.05263636363640644,2.9552727272726154
28.944999999999993,3.1019999999998378,-0.0060000000000106565,3.3919999999998267
28.964999999999993,3.5129999999998445,0.13999999999993293,3.8399999999998244
28.984999999999996,4.095999999999877,0.2919999999999861,4.29699999999992
29.004999999999995,4.9209999999998475,0.25100000000000533,4.55999999999995
29.024999999999995,5.703699999999818,0.016100000000078968,4.597700000000008
29.044999999999995,6.289391304347733,-0.2600869565216955,4.627521739130432
29.064999999999994,6.832111111111049,-0.49944444444441183,4.617333333333344
29.084999999999994,7.6412777777777,-1.1601666666665353,4.534611111111102
29.104999999999993,7.939041666666678,-1.7347500000000253,4.720749999999943
29.124999999999993,7.899875000000014,-1.6497500000000302,4.915749999999931
29.144999999999992,7.577000000000183,-0.8970000000002858,5.543999999999868
29.164999999999996,6.709363636363837,0.6289090909086932,5.930909090909003
29.184999999999995,6.39393939393948,1.1779393939392484,5.982393939393929
29.204999999999995,5.737363636363594,2.56363636363647,5.472727272727438
29.224999999999994,5.743727272727305,2.0518181818183407,4.849090909091075
29.244999999999994,5.4067692307693145,0.977384615384909,3.9396923076925456
29.264999999999993,5.294000000000028,-0.6359999999993764,2.9340000000003434
29.284999999999993,4.877160000000059,-2.22743999999986,2.4642800000000222
29.304999999999993,4.680360000000079,-2.6962399999998103,2.38988000000003
29.324999999999996,3.6410000000001235,-2.9300000000000703,2.738999999999941
29.344999999999995,3.0767500000000907,-2.2415000000001273,3.025749999999958
29.364999999999995,2.3626875000001495,-1.3876875000001494,3.2621874999999694
29.384999999999994,1.3404901960784577,-0.541490196078452,3.184274509803949
29.404999999999994,1.2502941176470843,-0.4712941176470786,3.08976470588238
29.424999999999994,1.1600980392157108,-0.40109803921570536,2.99525490196081
29.444999999999993,0.7279166666667738,-0.703749999999895,-0.07549999999965362
29.464999999999993,0.005636363636727926,-1.1767272727271885,-1.399909090908803
29.484999999999992,-1.299759999999777,-1.4525199999999387,-2.207959999999944
29.504999999999995,-1.7749599999998786,-1.5829199999999666,-2.3271599999999695
29.524999999999995,-3.3969999999998413,-1.652000000000031,-2.1110000000000757
29.544999999999995,-3.712181818181794,-1.6628181818181365,-1.7536363636364063
29.564999999999994,-3.856733333333276,-1.8217999999999657,-1.6402000000000403
29.584999999999994,-4.139636363636342,-2.050636363636324,-1.7654090909090645
29.604999999999993,-4.212363636363607,-2.1833636363635818,-1.8535909090908729
29.624999999999993,-4.503999999999974,-2.4869999999999504,-2.113999999999936
29.644999999999992,-4.888399999999961,-2.57310000000006,-2.2548000000000497
29.664999999999996,-4.753750000000152,-2.501499999999968,-2.066187500000045
29.684999999999995,-3.7704400000001317,-2.7053999999999627,-1.774720000000025
29.704999999999995,-3.3192400000001157,-2.8333999999999673,-1.6891200000000217
29.724999999999994,-2.6840000000000765,-2.7680000000000833,-1.8049999999999322
29.744999999999994,-2.220300000000053,-2.664300000000222,-2.1384999999999543
29.764999999999993,-2.154812499999989,-1.6815625000002725,-2.157312500000064
29.784999999999993,-2.078500000000067,-0.294200000000163,-1.6722000000001103
29.804999999999993,-1.3643000000003909,0.5575999999999843,-0.8999000000001637
29.824999999999996,-0.11861538461573073,0.438846153846228,-0.5553076923077449
29.844999999999995,1.6159999999996746,-0.16090909090891703,-0.5730909090908795
29.864999999999995,2.6383749999998884,-0.8994374999998185,-0.6496875000000192
29.884999999999994,3.028999999999858,-1.814999999999369,-0.45900000000020036
29.904999999999994,2.924238095238121,-2.122619047618972,-0.17519047619054579
29.924999999999994,2.1740000000001696,-1.64000000000026,1.3949999999996163
29.944999999999993,1.8933999999999978,-0.4606000000002274,2.180266666666564
29.964999999999993,1.9816153846153388,0.6851538461536288,2.6489230769230234
29.984999999999992,2.2049999999998713,1.5623999999997913,2.827600000000021
30.004999999999995,2.701923076922974,1.9360769230768902,2.613692307692387
30.024999999999995,3.2279999999998945,2.1169999999999614,2.13500000000011
30.044999999999995,3.3947692307692163,2.0514615384615644,1.7366153846154544
30.064999999999994,3.3860000000000343,1.686000000000111,1.2796000000000989
30.084999999999994,3.403499999999968,1.050166666666749,1.1271666666666118
30.104999999999993,3.539421052631534,0.7907368421053189,1.3556315789472948
30.124999999999993,4.00199999999985,0.6939999999999878,2.1789999999997485
30.144999999999992,4.466499999999855,0.7733333333333314,2.784666666666562
30.164999999999996,4.987999999999901,0.6840000000000368,3.173999999999923
30.184999999999995,5.575999999999775,0.5571666666667722,3.6154999999999027
30.204999999999995,6.475899999999791,0.15510000000003923,3.933099999999954
30.224999999999994,7.222545454545259,0.07127272727276057,4.015909090909109
30.244999999999994,7.968399999999756,-0.20799999999975843,3.892100000000066
30.264999999999993,8.841699999999777,-1.2159999999996496,3.691900000000001
30.284999999999993,9.301444444444506,-1.9074444444444418,3.751222222222132
30.304999999999993,9.058000000000094,-1.6860000000001332,4.014999999999915
30.324999999999992,8.615423076923241,-0.7206538461541323,4.354076923076828
30.344999999999995,8.263884615384724,-0.11373076923095582,4.555615384615322
30.364999999999995,6.652916666666815,2.281166666666565,5.357916666666691
30.384999999999994,6.09900000000022,2.427000000000034,5.23600000000006
30.404999999999994,5.3324545454547465,1.6113636363639365,4.374636363636627
30.424999999999994,4.738666666666814,0.5675000000003123,3.5001666666669156
30.444999999999993,4.042833333333514,-1.0608333333329036,2.7355000000001644
30.464999999999993,2.8520000000003978,-2.591999999999622,2.1300000000001775
30.484999999999992,1.612175438596565,-3.1434736842105218,1.6679122807017646
30.504999999999995,1.4556842105263612,-3.15294736842105,1.6461578947368485
30.524999999999995,1.2991929824561852,-3.162421052631576,1.624403508771936
30.544999999999995,1.0685454545455992,-3.116909090909164,1.6048181818181848
30.564999999999994,-0.22666666666656798,-0.8755000000001155,2.5985833333333535
30.584999999999994,-0.6022222222221321,-0.5221111111111401,2.3306666666669
30.604999999999993,-0.8449999999999284,-0.483,1.5640000000002676
30.624999999999993,-1.2339999999997928,-0.6998888888888007,0.6385555555558247
30.644999999999992,-1.813666666666503,-0.9674444444443944,-0.1348888888886527
30.664999999999996,-2.2784736842104483,-1.1193684210526238,-0.7547368421051951
30.684999999999995,-2.743083333333274,-1.0980833333333566,-1.1004999999999674
30.704999999999995,-2.958199999999977,-1.0713999999999717,-1.2185999999999861
30.724999999999994,-3.073799999999941,-1.215999999999953,-1.2639999999999703
30.744999999999994,-3.32099999999991,-1.4429999999999106,-1.3939999999999513
30.764999999999993,-3.592545454545396,-1.9808181818179806,-1.86227272727248
30.784999999999993,-3.803111111111057,-2.441333333333278,-2.5539999999997867
30.804999999999993,-3.966800000000001,-2.5164000000000804,-3.218199999999835
30.824999999999992,-3.7383333333337116,-2.320111111111047,-3.4038888888890533
30.844999999999995,-2.9268000000002266,-2.7655999999997922,-3.0252000000000643
30.864999999999995,-2.313444444444483,-3.4477777777777137,-2.674888888889049
30.884999999999994,-2.190000000000042,-3.542999999999995,-2.2860000000001017
30.904999999999994,-1.9395714285713843,-3.222928571428852,-2.3837142857142584
30.924999999999994,-2.2233333333332483,-1.6063333333339234,-2.2623333333335625
30.944999999999993,-2.3153333333334793,0.0604444444440747,-1.3996666666670061
30.964999999999993,-1.4238000000005715,0.8571999999999054,-0.41920000000028057
30.984999999999992,-0.11900000000049182,0.9207692307692535,0.059999999999868825
31.004999999999995,1.6261999999996712,0.4492000000001935,0.1586000000000756
31.024999999999995,2.6405384615382625,-0.34384615384595635,-0.23069230769219792
31.044999999999995,2.947,-1.3069999999998425,-0.8493846153845139
31.064999999999994,2.46100000000014,-1.6697142857142453,-1.066285714285712
31.084999999999994,1.8096000000000732,-1.2662000000002682,-0.49440000000022033
31.104999999999993,1.6216363636364377,-0.14427272727315005,0.4797272727269145
31.124999999999993,1.502333333333361,0.781666666666324,1.263083333333044
31.144999999999992,2.117888888888647,1.6587777777775836,1.868999999999929
31.164999999999996,2.750999999999858,2.12671428571419,1.9735714285714248
31.184999999999995,3.192933333333322,2.4601999999999924,1.7442000000000681
31.204999999999995,3.2606666666666686,2.360666666666823,1.2573333333335088
31.224999999999994,3.268153846153842,1.8730769230770368,0.7680000000001033
31.244999999999994,3.430363636363584,1.137181818181983,0.503363636363594
31.264999999999993,3.671199999999882,0.5502000000001516,0.8963999999997287
31.284999999999993,4.028199999999812,0.3649999999999883,1.703399999999674
31.304999999999993,4.462799999999907,0.3831999999999875,2.5035999999997633
31.324999999999992,4.89999999999979,0.32609090909095406,3.070636363636231
31.344999999999995,5.3931428571427436,0.21642857142859773,3.3341428571428073
31.364999999999995,6.096999999999888,0.2891999999999647,3.3554000000000466
31.384999999999994,6.422272727272679,0.44390909090908887,3.1366363636364007
31.404999999999994,6.654999999999911,0.19300000000016476,2.916000000000095
31.424999999999994,7.189636363636225,-0.9899999999997623,2.6667272727272913
31.444999999999993,7.700363636363489,-1.6293636363636106,2.651727272727286
31.464999999999993,8.081749999999927,-1.630000000000174,2.598249999999992
31.484999999999992,7.968400000000206,-0.6150000000007074,2.789999999999781
31.504999999999995,7.478909090909197,1.1289999999997016,3.4167272727271354
31.524999999999995,7.01800000000013,2.4675454545453177,4.084818181818078
31.544999999999995,6.486800000000108,2.6578000000001847,4.502799999999978
31.564999999999994,5.960166666666882,1.865500000000179,4.477666666666769
31.584999999999994,4.92036363636378,0.743181818182195,3.6177272727275755
31.604999999999993,4.592153846153901,-0.2497692307689923,2.843769230769405
31.624999999999993,3.498272727273174,-2.0479090909087563,1.4960909090911712
31.644999999999992,2.1812000000004916,-2.567600000000025,0.9228000000000594
31.664999999999992,0.9058888888895164,-2.322333333333721,0.7875555555554234
31.684999999999995,-0.21729999999978228,-1.5303000000002258,1.2193999999997873
31.704999999999995,-0.8667999999999471,-0.7846000000001352,1.9055999999998432
31.724999999999994,-1.1019999999999552,-0.24760000000010543,2.4687999999999533
31.744999999999994,-1.2193636363636355,0.049909090909083395,2.450454545454671
31.764999999999993,-1.170000000000015,-0.005111111111046944,1.7275555555559172
31.784999999999993,-1.2390999999998977,-0.19359999999993882,0.8954000000002477
31.804999999999993,-1.644699999999859,-0.3572999999999247,0.2912000000002059
31.824999999999992,-1.9653333333332283,-0.7974444444442353,-0.22911111111089924
31.844999999999995,-2.110000000000004,-1.103899999999956,-0.5631999999999867
31.864999999999995,-2.080799999999988,-1.3203999999999791,-0.5694000000000263
31.884999999999994,-2.214999999999949,-1.3068999999999789,-0.4673999999999821
31.904999999999994,-2.378799999999926,-1.5270999999998869,-0.585299999999961
31.924999999999994,-2.655699999999905,-1.9143999999998542,-0.7441999999999078
31.944999999999993,-2.928799999999973,-2.3928999999998335,-1.1350999999998008
31.964999999999993,-3.070666666666548,-2.5534444444445255,-1.6775555555553419
31.984999999999992,-3.3862999999999173,-2.3483999999999567,-1.8602000000000716
32.004999999999995,-3.329555555555713,-2.842666666666357,-1.5840000000000616
32.025,-2.6632999999999916,-4.074600000000025,-1.56730000000001
32.044999999999995,-2.8253999999998287,-4.186500000000125,-1.911999999999923
32.06499999999999,-3.5766999999994638,-3.3806000000006717,-2.391799999999782
32.084999999999994,-4.4633999999999245,-1.5314000000006343,-2.5335000000000605
32.105,-3.84525,0.012749999999999997,-2.15475
