timestamp,gyro_x,gyro_y,gyro_z
0.026,0.08,-0.38,0.35
0.046,-0.3,0.34,0.05
0.066,-0.49,0.265,-0.22999999999999998
0.086,-0.6,0.59,-0.45
0.106,-0.6346153846153846,1.0423076923076924,-0.6038461538461538
0.126,-0.5966666666666667,1.2033333333333334,-0.89
0.146,-0.58,1.031764705882353,-1.0282352941176471
0.166,-0.6345833333333334,0.6570833333333334,-1.4575
0.186,-0.905,0.16999999999999998,-2.2300000000000004
0.206,-1.25,-0.19,-2.4050000000000002
0.226,-1.3650000000000002,-0.045,-2.6799999999999997
0.246,-1.5675000000000001,0.94,-2.92
0.266,-1.62,1.27,-3.09
0.28600000000000003,-1.168,0.806,-2.846
0.30600000000000005,-0.3049999999999997,1.000000000000004,-2.014999999999999
0.326,-0.252,1.556,-1.71
0.34600000000000003,-0.7600000000000017,1.0733333333333301,-1.5033333333333325
0.36600000000000005,-0.9344444444444445,0.6666666666666663,-1.403333333333333
0.386,-1.39,0.316,-1.57
0.406,-1.3433333333333333,1.9966666666666668,-1.6833333333333333
0.42600000000000005,-1.2199999999999993,2.669999999999995,-1.9866666666666664
0.446,-0.395,1.335,-1.525
0.466,-0.1747058823529412,1.134705882352941,-1.4611764705882353
0.48600000000000004,0.4000000000000002,0.16666666666666624,-1.4766666666666668
0.506,0.4633333333333333,-0.36,-1.7433333333333334
0.526,0.23,-0.7949999999999999,-2.005
0.546,-1.3066666666666666,-1.85,-2.543333333333333
0.5660000000000001,-1.5999999999999996,-1.8400000000000012,-2.655
0.5860000000000001,-1.0199999999999922,-1.8400000000000056,-2.59
0.606,-0.89,-1.9533333333333334,-2.2133333333333334
0.626,-1.415,-2.075,-1.645
0.646,-2.565,-2.23,-1.475
0.666,-2.81,-1.9928571428571429,-1.907142857142857
0.686,-2.425,-2.37,-2.065
0.7060000000000001,-1.966666666666666,-2.61,-1.7399999999999989
0.7260000000000001,-2.0350000000000015,-2.194999999999997,-1.6150000000000004
0.746,-2.5733333333333333,-0.9366666666666666,-1.8166666666666667
0.766,-2.996666666666667,0.31333333333333335,-2.074
0.786,-3.21,0.7133333333333333,-2.103333333333333
0.806,-3.08,0.30000000000000004,-1.865
0.8260000000000001,-2.6866666666666648,-0.15666666666666926,-1.69
0.8460000000000001,-2.366666666666666,-0.7800000000000017,-1.7333333333333336
0.866,-2.0114285714285716,-1.2385714285714287,-1.9128571428571428
0.886,-1.76125,-1.41125,-1.775
0.906,-1.385,-1.52,-1.13
0.926,-1.1966666666666665,-1.42,-0.54
0.9460000000000001,-0.9899999999999989,-1.466666666666667,-0.13333333333333186
0.9660000000000001,-0.8174999999999998,-1.4749999999999996,0.10000000000000056
0.986,-0.735,-1.085,0.575
1.006,-0.5699999999999993,-0.4299999999999978,1.1333333333333346
1.026,-0.22499999999999723,0.33500000000000385,1.4150000000000005
1.046,0.17,0.24,1.2
1.066,0.5300000000000015,-0.5133333333333361,0.8799999999999992
1.086,0.98,-1.02,0.92
1.106,1.1783333333333335,-0.776666666666666,1.02
1.1260000000000001,1.079999999999999,-0.23499999999999388,1.220000000000001
1.1460000000000001,0.7699999999999986,0.3466666666666686,1.0933333333333328
1.1660000000000001,0.75,0.5433333333333338,1.323333333333336
1.186,0.79,1.06,2.11
1.206,0.4150000000000028,0.5700000000000089,2.3550000000000004
1.226,0.26,-0.18,2.68
1.246,0.48,-0.29,2.83
1.266,0.6880000000000002,-1.114000000000001,2.261999999999999
1.286,0.7483333333333335,-1.7233333333333352,1.3383333333333314
1.306,0.8,-2.506666666666668,0.5633333333333316
1.326,0.79,-2.96,0.13
1.346,0.75,-3.12,-0.08
1.366,0.7377777777777778,-3.22,0.09111111111111125
1.3860000000000001,0.6649999999999999,-3.500000000000001,0.5100000000000007
1.4060000000000001,0.5933333333333328,-4.120000000000003,0.9033333333333343
1.4260000000000002,0.4399999999999978,-4.570000000000004,1.0200000000000007
1.446,0.21,-4.8,1.12
1.466,-0.3255555555555554,-4.871111111111111,1.4666666666666666
1.486,-1.07,-4.77,1.58
1.506,-1.615,-4.415,1.29
1.526,-1.6466666666666663,-3.2266666666666635,0.8066666666666656
1.546,-1.52,-2.49,0.76
1.566,-1.3163636363636364,-2.1563636363636363,0.9018181818181819
1.586,-1.2469230769230768,-2.1046153846153848,0.9176923076923078
1.606,-0.8557142857142852,-1.9742857142857138,0.8814285714285713
1.6260000000000001,-0.2699999999999956,-1.4199999999999948,0.6299999999999978
1.6460000000000001,0.16000000000000222,-0.8399999999999941,0.48999999999999927
1.6660000000000001,0.2953846153846156,-0.47615384615384543,0.49769230769230777
1.6860000000000002,0.14999999999999777,0.28000000000000447,0.760000000000003
1.706,-0.01,0.68,1.04
1.726,-0.1285714285714284,0.941428571428571,1.405714285714285
1.746,-0.26,1.46,1.94
1.766,-0.36,1.69,2.15
1.786,-0.63,1.76,2.34
1.806,-0.88,1.8800000000000001,2.375
1.826,-1.2,1.86,2.25
1.846,-1.4200000000000002,1.7033333333333331,2.07
1.866,-1.5785714285714287,1.507142857142857,1.837142857142857
1.8860000000000001,-1.6474999999999995,1.2274999999999996,1.6374999999999997
1.9060000000000001,-1.519999999999999,1.21,1.5649999999999995
1.9260000000000002,-1.369999999999999,1.27,1.4899999999999978
1.946,-1.2525000000000004,1.31,1.347500000000001
1.966,-1.1433333333333335,1.31,1.1400000000000006
1.986,-1.01,1.28,0.94
2.006,-0.89,1.27,0.81
2.026,-0.8713636363636365,1.27,0.7913636363636365
2.046,-0.87,1.27,0.7810526315789476
2.066,-0.96,0.82,0.64
2.086,-0.8340000000000005,0.5460000000000004,0.5380000000000003
2.106,-0.6309090909090912,0.43363636363636376,0.5163636363636362
2.126,-0.2633333333333333,0.23666666666666666,0.7033333333333333
2.146,0.08,0.02,0.84
2.166,0.42,-0.1,0.85
2.186,0.53,-0.15,0.79
2.206,0.8350000000000005,-0.6100000000000011,0.3474999999999992
2.226,0.91,-1.01,0.05
2.246,0.9387500000000001,-1.1637500000000007,-0.036250000000000414
2.266,1.07,-1.65,-0.33
2.286,1.11,-1.71,-0.55
2.306,1.11,-1.67,-0.83
2.326,1.18,-1.64,-1.11
2.3459999999999996,1.3099999999999972,-1.64,-1.419999999999994
2.3659999999999997,1.43,-1.7166666666666637,-1.8066666666666593
2.3859999999999997,1.3700000000000045,-1.8399999999999956,-2.239999999999987
2.4059999999999997,1.1133333333333357,-1.9966666666666657,-2.716666666666664
2.4259999999999997,0.6466666666666702,-2.1966666666666654,-3.0999999999999983
2.4459999999999997,0.09333333333333728,-2.25,-3.333333333333333
2.4659999999999997,-0.47999999999999704,-2.1400000000000015,-3.3433333333333346
2.4859999999999998,-0.8799999999999989,-1.6900000000000022,-3.060000000000001
2.506,-1.0733333333333328,-0.9800000000000044,-2.6633333333333358
2.526,-1.04,-0.2,-2.31
2.546,-0.8,0.66,-1.98
2.566,-0.48,1.37,-1.75
2.586,-0.17,1.75,-1.61
2.606,0.13,1.89,-1.49
2.626,0.38,1.79,-1.39
2.646,0.54,1.47,-1.33
2.666,0.62,1.08,-1.36
2.686,0.66,0.630000000000003,-1.41
2.706,0.65,0.23666666666666863,-1.4066666666666672
2.726,0.55,0.0,-1.34
2.746,0.3,-0.1,-1.12
2.766,0.0,-0.04666666666666667,-0.7933333333333333
2.786,-0.19,0.16,-0.31
2.806,-0.31,0.47,0.31
2.826,-0.3,0.61,0.9
2.8459999999999996,-0.26,0.8299999999999941,1.3599999999999928
2.8659999999999997,-0.40499999999999337,0.95,1.669999999999991
2.8859999999999997,-0.6666666666666657,0.7933333333333343,1.9933333333333314
2.9059999999999997,-0.7966666666666657,0.6766666666666672,2.2433333333333314
2.9259999999999997,-0.9174999999999992,0.6674999999999992,2.5324999999999975
2.9459999999999997,-0.9933333333333328,0.6933333333333328,2.743333333333333
2.9659999999999997,-1.0,0.71,2.780000000000001
2.9859999999999998,-1.0,0.6666666666666672,2.6533333333333347
3.006,-0.9875000000000003,0.5025000000000008,2.4400000000000013
3.026,-0.99,0.25,2.14
3.046,-1.01,0.0,1.85
3.066,-1.01,-0.12333333333333284,1.6233333333333342
3.086,-0.96,-0.09,1.52
3.106,-0.8966666666666672,0.15333333333333138,1.5333333333333328
3.126,-0.91,0.5066666666666642,1.6466666666666656
3.146,-1.02,0.83,1.69
3.166,-1.2166666666666657,0.9433333333333328,1.6566666666666672
3.186,-1.33,0.9466666666666671,1.5533333333333343
3.206,-1.35,0.87,1.4266666666666672
3.226,-1.34,0.8266666666666671,1.3033333333333343
3.246,-1.3066666666666673,0.7033333333333343,1.2266666666666672
3.266,-1.2133333333333334,0.58,1.1666666666666665
3.286,-1.0650000000000006,0.5275000000000003,1.11
3.306,-0.8466666666666667,0.4666666666666667,1.0966666666666667
3.326,-0.5720000000000007,0.3660000000000003,1.07
3.346,-0.26666666666666666,0.20333333333333334,0.9966666666666667
3.3659999999999997,0.00999999999999556,-0.00999999999999556,0.8533333333333363
3.3859999999999997,0.22666666666666568,-0.24999999999999853,0.6500000000000015
3.4059999999999997,0.34,-0.5733333333333314,0.40000000000000147
3.4259999999999997,0.37,-0.8899999999999967,0.17000000000000334
3.4459999999999997,0.39,-1.1633333333333327,-0.03666666666666568
3.4659999999999997,0.44333333333333286,-1.1833333333333342,-0.19333333333333286
3.4859999999999998,0.5366666666666657,-0.9666666666666686,-0.2966666666666657
3.506,0.6349999999999989,-0.6350000000000033,-0.47499999999999665
3.526,0.6849999999999989,-0.4200000000000022,-0.8949999999999922
3.546,0.75,-0.36,-1.5449999999999902
3.566,0.8,-0.41333333333333283,-2.216666666666663
3.586,0.7866666666666672,-0.6033333333333314,-2.796666666666664
3.606,0.6650000000000011,-0.7899999999999978,-3.1249999999999964
3.626,0.5133333333333343,-0.89,-3.196666666666667
3.646,0.43,-0.7300000000000011,-3.0550000000000006
3.666,0.41,-0.35750000000000137,-2.790000000000001
3.686,0.45666666666666667,0.12000000000000001,-2.51
3.706,0.5833333333333333,0.5266666666666667,-2.2866666666666666
3.726,0.8049999999999999,0.765,-2.125
3.746,1.0550000000000002,0.765,-2.07
3.766,1.23,0.58,-2.085
3.786,1.3324999999999998,0.3300000000000011,-2.1449999999999996
3.806,1.37,0.02,-2.19
3.826,1.3250000000000002,-0.24,-2.175
3.846,1.18,-0.32,-2.12
3.8659999999999997,0.9950000000000028,-0.23500000000000276,-2.0175000000000014
3.8859999999999997,0.8000000000000023,-0.07000000000000223,-1.8050000000000033
3.9059999999999997,0.5850000000000033,0.10499999999999667,-1.5200000000000045
3.9259999999999997,0.3100000000000074,0.29999999999999555,-1.210000000000006
3.9459999999999997,0.02000000000000333,0.48999999999999777,-0.7600000000000067
3.9659999999999997,-0.20666666666666567,0.6466666666666657,-0.19333333333334024
3.9859999999999998,-0.2533333333333343,0.7033333333333343,0.3133333333333284
4.006,-0.13999999999999557,0.5799999999999955,0.7500000000000089
4.026,-0.0050000000000022206,0.45000000000000445,1.0449999999999935
4.046,0.00333333333333136,0.17999999999999408,1.2533333333333372
4.066,-0.07002726446531354,0.03995910330202969,1.3300272644653137
4.086,-0.07008785216601031,0.039868221750984555,1.3300878521660104
4.106,-0.07014843986670706,0.039777340199939414,1.3301484398667072
4.1259999999999994,-0.07020902756740383,0.03968645864889428,1.330209027567404
4.146,-0.07026961526810058,0.03959557709784914,1.3302696152681006
4.1659999999999995,-0.07033020296879734,0.039504695546804004,1.3303302029687973
4.186,-0.0703907906694941,0.03941381399575886,1.330390790669494
4.2059999999999995,-0.07045137837019086,0.03932293244471373,1.330451378370191
4.226,-0.07051196607088761,0.03923205089366859,1.3305119660708877
4.2459999999999996,-0.07057255377158438,0.039141169342623454,1.3305725537715845
4.266,-0.07063314147228113,0.03905028779157831,1.3306331414722812
4.286,-0.07069372917297789,0.03895940624053318,1.330693729172978
4.306,-0.07075431687367464,0.03886852468948804,1.3307543168736746
4.326,-0.07081490457437141,0.038777643138442904,1.3308149045743716
4.346,-0.07087549227506816,0.03868676158739776,1.3308754922750683
4.366,-0.07093607997576493,0.03859588003635262,1.330936079975765
4.386,-0.07099666767646168,0.03850499848530749,1.3309966676764617
4.406,-0.07105725537715844,0.038414116934262346,1.3310572553771585
4.426,-0.0711178430778552,0.03832323538321721,1.3311178430778552
4.446,-0.07117843077855196,0.03823235383217207,1.331178430778552
4.466,-0.07123901847924871,0.03814147228112693,1.3312390184792489
4.486,-0.07129960617994548,0.038050590730081796,1.3312996061799456
4.506,-0.07136019388064224,0.037959709179036655,1.3313601938806423
4.526,-0.071420781581339,0.03786882762799152,1.331420781581339
4.546,-0.07148136928203576,0.03777794607694638,1.3314813692820358
4.566,-0.07154195698273251,0.037687064525901245,1.3315419569827325
4.586,-0.07160254468342928,0.037596182974856104,1.3316025446834294
4.606,-0.07166313238412603,0.03750530142381097,1.3316631323841261
4.626,-0.07172372008482279,0.03741441987276583,1.3317237200848229
4.646,-0.07178430778551954,0.037323538321720695,1.3317843077855196
4.6659999999999995,-0.0718448954862163,0.03723265677067556,1.3318448954862163
4.686,-0.07190548318691306,0.03714177521963042,1.331905483186913
4.7059999999999995,-0.07196607088760981,0.03705089366858528,1.33196607088761
4.726,-0.07202665858830658,0.036960012117540145,1.3320266585883067
4.7459999999999996,-0.07208724628900333,0.036869130566495004,1.3320872462890034
4.766,-0.0721478339897001,0.03677824901544986,1.3321478339897002
4.786,-0.07220842169039685,0.03668736746440473,1.3322084216903969
4.806,-0.07226900939109361,0.03659648591335959,1.3322690093910936
4.826,-0.07232959709179038,0.03650560436231445,1.3323295970917903
4.846,-0.07239018479248713,0.03641472281126931,1.3323901847924873
4.866,-0.0724507724931839,0.03632384126022418,1.332450772493184
4.886,-0.07251136019388064,0.03623295970917904,1.3325113601938807
4.906,-0.07257194789457741,0.0361420781581339,1.3325719478945774
4.926,-0.07263253559527416,0.03605119660708876,1.3326325355952742
4.946,-0.07269312329597093,0.03596031505604363,1.332693123295971
4.966,-0.07275371099666768,0.03586943350499849,1.3327537109966678
4.986,-0.07281429869736444,0.03577855195395335,1.3328142986973646
5.006,-0.0728748863980612,0.03568767040290821,1.3328748863980613
5.026,-0.07293547409875796,0.03559678885186308,1.332935474098758
5.046,-0.07299606179945471,0.035505907300817936,1.3329960617994547
5.066,-0.07305664950015148,0.0354150257497728,1.3330566495001515
5.086,-0.07311723720084823,0.03532414419872766,1.3331172372008484
5.106,-0.073177824901545,0.03523326264768252,1.3331778249015451
5.126,-0.07323841260224175,0.035142381096637386,1.3332384126022419
5.146,-0.07329900030293851,0.035051499545592245,1.3332990003029386
5.1659999999999995,-0.07335958800363526,0.03496061799454711,1.3333595880036353
5.186,-0.07342017570433203,0.03486973644350197,1.333420175704332
5.2059999999999995,-0.07348076340502878,0.034778854892456836,1.3334807634050287
5.226,-0.07354135110572554,0.034687973341411694,1.3335413511057257
5.2459999999999996,-0.0736019388064223,0.03459709179036656,1.3336019388064224
5.266,-0.07366252650711906,0.03450621023932142,1.3336625265071191
5.286,-0.07372311420781581,0.034415328688276285,1.3337231142078159
5.306,-0.07378370190851258,0.034324447137231144,1.3337837019085126
5.326,-0.07384428960920933,0.03423356558618601,1.3338442896092093
5.346,-0.0739048773099061,0.03414268403514087,1.3339048773099063
5.366,-0.07396546501060285,0.034051802484095735,1.333965465010603
5.386,-0.07402605271129961,0.033960920933050594,1.3340260527112997
5.406,-0.07408664041199636,0.03387003938200546,1.3340866404119964
5.426,-0.07414722811269313,0.03377915783096032,1.3341472281126932
5.446,-0.07420781581338988,0.03368827627991518,1.3342078158133899
5.466,-0.07426840351408664,0.03359739472887004,1.3342684035140868
5.486,-0.0743289912147834,0.0335065131778249,1.3343289912147835
5.506,-0.07438957891548016,0.03341563162677977,1.3343895789154803
5.526,-0.07445016661617691,0.03332475007573463,1.334450166616177
5.546,-0.07451075431687368,0.033233868524689486,1.3345107543168737
5.566,-0.07457134201757043,0.03314298697364435,1.3345713420175704
5.586,-0.0746319297182672,0.03305210542259921,1.3346319297182672
5.606,-0.07469251741896395,0.03296122387155408,1.334692517418964
5.626,-0.07475310511966071,0.032870342320508936,1.3347531051196608
5.646,-0.07481369282035746,0.0327794607694638,1.3348136928203576
5.6659999999999995,-0.07487428052105423,0.03268857921841867,1.3348742805210543
5.686,-0.074934868221751,0.032597697667373526,1.334934868221751
5.7059999999999995,-0.07499545592244775,0.03250681611632839,1.3349954559224477
5.726,-0.0750560436231445,0.03241593456528325,1.3350560436231447
5.7459999999999996,-0.07511663132384126,0.03232505301423812,1.3351166313238414
5.766,-0.07517721902453803,0.032234171463192976,1.3351772190245381
5.786,-0.07523780672523478,0.032143289912147835,1.3352378067252348
5.806,-0.07529839442593154,0.0320524083611027,1.3352983944259316
5.826,-0.0753589821266283,0.03196152681005757,1.3353589821266283
5.846,-0.07541956982732506,0.031870645259012426,1.3354195698273252
5.866,-0.07548015752802181,0.031779763707967285,1.335480157528022
5.886,-0.07554074522871858,0.031688882156922143,1.3355407452287187
5.906,-0.07560133292941533,0.03159800060587701,1.3356013329294154
5.926,-0.0756619206301121,0.031507119054831875,1.3356619206301121
5.946,-0.07572250833080885,0.031416237503786734,1.3357225083308089
5.966,-0.07578309603150561,0.03132535595274159,1.3357830960315056
5.986,-0.07584368373220236,0.03123447440169646,1.3358436837322025
6.006,-0.07590427143289913,0.031143592850651318,1.3359042714328992
6.026,-0.07596485913359588,0.031052711299606184,1.335964859133596
6.046,-0.07602544683429265,0.030961829748561043,1.3360254468342927
6.066,-0.0760860345349894,0.03087094819751591,1.3360860345349894
6.086,-0.07614662223568616,0.030780066646470768,1.3361466222356861
6.106,-0.07620720993638291,0.030689185095425633,1.336207209936383
6.126,-0.07626779763707968,0.030598303544380492,1.3362677976370798
6.146,-0.07632838533777643,0.030507421993335358,1.3363283853377765
6.166,-0.0763889730384732,0.030416540442290217,1.3363889730384733
6.186,-0.07644956073916995,0.03032565889124508,1.33644956073917
6.2059999999999995,-0.07651014843986671,0.030234777340199942,1.3365101484398667
6.226,-0.07657073614056346,0.030143895789154804,1.3365707361405634
6.2459999999999996,-0.07663132384126023,0.030053014238109667,1.3366313238412604
6.266,-0.07669191154195698,0.02996213268706453,1.336691911541957
6.286,-0.07675249924265375,0.02987125113601939,1.3367524992426538
6.306,-0.0768130869433505,0.02978036958497425,1.3368130869433505
6.326,-0.07687367464404726,0.029689488033929116,1.3368736746440473
6.346,-0.07693426234474401,0.029598606482883975,1.336934262344744
6.366,-0.07699485004544078,0.02950772493183884,1.336994850045441
6.386,-0.07705543774613753,0.0294168433807937,1.3370554377461377
6.406,-0.0771160254468343,0.029325961829748566,1.3371160254468344
6.426,-0.07717661314753105,0.029235080278703425,1.3371766131475311
6.446,-0.07723720084822781,0.02914419872765829,1.3372372008482278
6.466,-0.07729778854892456,0.02905331717661315,1.3372977885489246
6.486,-0.07735837624962133,0.028962435625568016,1.3373583762496215
6.506,-0.07741896395031808,0.028871554074522875,1.3374189639503182
6.526,-0.07747955165101485,0.028780672523477737,1.337479551651015
6.546,-0.0775401393517116,0.0286897909724326,1.3375401393517117
6.566,-0.07760072705240836,0.028598909421387462,1.3376007270524084
6.586,-0.07766131475310512,0.028508027870342324,1.3376613147531051
6.606,-0.07772190245380188,0.028417146319297187,1.3377219024538018
6.626,-0.07778249015449865,0.028326264768252046,1.3377824901544988
6.646,-0.0778430778551954,0.028235383217206908,1.3378430778551955
6.666,-0.07790366555589215,0.02814450166616177,1.3379036655558922
6.686,-0.07796425325658891,0.028053620115116633,1.337964253256589
6.7059999999999995,-0.07802484095728567,0.0279627385640715,1.3380248409572857
6.726,-0.07808542865798243,0.027871857013026358,1.3380854286579824
6.7459999999999996,-0.07814601635867918,0.027780975461981224,1.3381460163586794
6.766,-0.07820660405937595,0.027690093910936082,1.338206604059376
6.786,-0.0782671917600727,0.02759921235989095,1.3382671917600728
6.806,-0.07832777946076946,0.027508330808845807,1.3383277794607695
6.826,-0.07838836716146622,0.027417449257800673,1.3383883671614663
6.846,-0.07844895486216298,0.027326567706755532,1.338448954862163
6.866,-0.07850954256285975,0.027235686155710395,1.33850954256286
6.886,-0.0785701302635565,0.027144804604665257,1.3385701302635566
6.906,-0.07863071796425325,0.02705392305362012,1.3386307179642534
6.926,-0.07869130566495001,0.02696304150257498,1.33869130566495
6.946,-0.07875189336564678,0.026872159951529844,1.3387518933656468
6.966,-0.07881248106634353,0.026781278400484703,1.3388124810663435
6.986,-0.0788730687670403,0.026690396849439565,1.3388730687670403
7.006,-0.07893365646773705,0.026599515298394428,1.3389336564677372
7.026,-0.07899424416843381,0.02650863374734929,1.338994244168434
7.046,-0.07905483186913057,0.02641775219630415,1.3390548318691307
7.066,-0.07911541956982733,0.026326870645259015,1.3391154195698274
7.086,-0.07917600727052408,0.026235989094213874,1.339176007270524
7.106,-0.07923659497122085,0.02614510754316874,1.3392365949712208
7.126,-0.0792971826719176,0.0260542259921236,1.3392971826719178
7.146,-0.07935777037261436,0.025963344441078465,1.3393577703726145
7.166,-0.07941835807331112,0.025872462890033324,1.3394183580733112
7.186,-0.07947894577400788,0.02578158133898819,1.339478945774008
7.2059999999999995,-0.07953953347470463,0.025690699787943052,1.3395395334747047
7.226,-0.0796001211754014,0.025599818236897914,1.3396001211754014
7.2459999999999996,-0.07966070887609815,0.025508936685852777,1.3396607088760983
7.266,-0.07972129657679491,0.02541805513480764,1.339721296576795
7.286,-0.07978188427749167,0.0253271735837625,1.3397818842774918
7.306,-0.07984247197818843,0.02523629203271736,1.3398424719781885
7.326,-0.07990305967888518,0.025145410481672223,1.3399030596788852
7.346,-0.07996364737958195,0.025054528930627085,1.339963647379582
7.366,-0.0800242350802787,0.024963647379581948,1.3400242350802787
7.386,-0.08008482278097546,0.024872765828536807,1.3400848227809756
7.406,-0.08014541048167222,0.024781884277491673,1.3401454104816724
7.426,-0.08020599818236898,0.02469100272644653,1.340205998182369
7.446,-0.08026658588306573,0.024600121175401397,1.3402665858830658
7.466,-0.0803271735837625,0.024509239624356256,1.3403271735837625
7.486,-0.08038776128445925,0.024418358073311122,1.3403877612844592
7.506,-0.08044834898515602,0.02432747652226598,1.3404483489851562
7.526,-0.08050893668585277,0.024236594971220847,1.340508936685853
7.546,-0.08056952438654953,0.024145713420175706,1.3405695243865496
7.566,-0.08063011208724628,0.02405483186913057,1.3406301120872464
7.586,-0.08069069978794305,0.02396395031808543,1.340690699787943
7.606,-0.0807512874886398,0.023873068767040293,1.3407512874886398
7.626,-0.08081187518933657,0.023782187215995156,1.3408118751893368
7.646,-0.08087246289003332,0.023691305664950018,1.3408724628900335
7.666,-0.08093305059073008,0.023600424113904877,1.3409330505907302
7.686,-0.08099363829142683,0.023509542562859743,1.340993638291427
7.7059999999999995,-0.0810542259921236,0.023418661011814605,1.3410542259921236
7.726,-0.08111481369282036,0.023327779460769468,1.3411148136928204
7.7459999999999996,-0.08117540139351712,0.02323689790972433,1.341175401393517
7.766,-0.08123598909421387,0.023146016358679192,1.341235989094214
7.786,-0.08129657679491063,0.023055134807634055,1.3412965767949108
7.806,-0.0813571644956074,0.022964253256588914,1.3413571644956075
7.826,-0.08141775219630415,0.02287337170554378,1.3414177521963042
7.846,-0.0814783398970009,0.02278249015449864,1.341478339897001
7.866,-0.08153892759769767,0.022691608603453504,1.3415389275976977
7.886,-0.08159951529839443,0.022600727052408363,1.3415995152983946
7.906,-0.08166010299909118,0.022509845501363226,1.3416601029990913
7.926,-0.08172069069978795,0.022418963950318088,1.341720690699788
7.946,-0.0817812784004847,0.02232808239927295,1.3417812784004848
7.966,-0.08184186610118147,0.022237200848227813,1.3418418661011815
7.986,-0.08190245380187822,0.022146319297182675,1.3419024538018782
8.006,-0.08196304150257498,0.022055437746137534,1.341963041502575
8.026,-0.08202362920327173,0.0219645561950924,1.342023629203272
8.046,-0.0820842169039685,0.021873674644047263,1.3420842169039686
8.066,-0.08214480460466525,0.02178279309300212,1.3421448046046653
8.086,-0.08220539230536202,0.021691911541956984,1.342205392305362
8.106,-0.08226598000605877,0.02160102999091185,1.3422659800060588
8.126,-0.08232656770675553,0.021510148439866712,1.3423265677067555
8.146,-0.08238715540745228,0.021419266888821568,1.3423871554074525
8.166,-0.08244774310814905,0.021328385337776434,1.3424477431081492
8.186,-0.0825083308088458,0.021237503786731296,1.342508330808846
8.206,-0.08256891850954257,0.021146622235686162,1.3425689185095426
8.225999999999999,-0.08262950621023932,0.021055740684641024,1.3426295062102394
8.246,-0.08269009391093608,0.02096485913359588,1.342690093910936
8.266,-0.08275068161163283,0.020873977582550746,1.342750681611633
8.286,-0.0828112693123296,0.020783096031505608,1.3428112693123297
8.306,-0.08287185701302635,0.020692214480460474,1.3428718570130265
8.326,-0.08293244471372312,0.02060133292941533,1.3429324447137232
8.346,-0.08299303241441987,0.020510451378370192,1.34299303241442
8.366,-0.08305362011511663,0.020419569827325058,1.3430536201151166
8.386,-0.08311420781581338,0.02032868827627992,1.3431142078158134
8.406,-0.08317479551651015,0.02023780672523478,1.3431747955165103
8.426,-0.0832353832172069,0.02014692517418964,1.343235383217207
8.446,-0.08329597091790367,0.020056043623144507,1.3432959709179038
8.466,-0.08335655861860042,0.01996516207209937,1.3433565586186005
8.486,-0.08341714631929718,0.019874280521054225,1.3434171463192972
8.506,-0.08347773401999393,0.01978339897000909,1.343477734019994
8.526,-0.0835383217206907,0.019692517418963953,1.3435383217206909
8.546,-0.08359890942138745,0.01960163586791882,1.3435989094213876
8.566,-0.08365949712208422,0.019510754316873675,1.3436594971220843
8.586,-0.08372008482278097,0.019419872765828537,1.343720084822781
8.606,-0.08378067252347773,0.019328991214783403,1.3437806725234778
8.626,-0.08384126022417449,0.019238109663738266,1.3438412602241745
8.646,-0.08390184792487125,0.01914722811269312,1.3439018479248714
8.666,-0.08396243562556802,0.019056346561647987,1.3439624356255682
8.686,-0.08402302332626477,0.01896546501060285,1.3440230233262649
8.706,-0.08408361102696152,0.018874583459557715,1.3440836110269616
8.726,-0.08414419872765828,0.01878370190851257,1.3441441987276583
8.746,-0.08420478642835505,0.018692820357467436,1.344204786428355
8.766,-0.0842653741290518,0.0186019388064223,1.3442653741290518
8.786,-0.08432596182974855,0.018511057255377165,1.3443259618297487
8.806,-0.08438654953044532,0.018420175704332027,1.3443865495304455
8.826,-0.08444713723114208,0.018329294153286883,1.3444471372311422
8.846,-0.08450772493183883,0.01823841260224175,1.344507724931839
8.866,-0.08456831263253559,0.01814753105119661,1.3445683126325356
8.886,-0.08462890033323235,0.018056649500151477,1.3446289003332323
8.906,-0.08468948803392912,0.017965767949106332,1.3446894880339293
8.926,-0.08475007573462587,0.017874886398061195,1.344750075734626
8.946,-0.08481066343532262,0.01778400484701606,1.3448106634353227
8.966,-0.08487125113601938,0.017693123295970923,1.3448712511360195
8.986,-0.08493183883671615,0.01760224174492578,1.3449318388367162
9.006,-0.0849924265374129,0.017511360193880644,1.344992426537413
9.026,-0.08505301423810965,0.017420478642835507,1.3450530142381099
9.046,-0.08511360193880642,0.017329597091790373,1.3451136019388066
9.066,-0.08517418963950318,0.017238715540745228,1.3451741896395033
9.086,-0.08523477734019994,0.017147833989700094,1.3452347773402
9.106,-0.0852953650408967,0.017056952438654956,1.3452953650408968
9.126,-0.08535595274159345,0.016966070887609822,1.3453559527415935
9.146,-0.08541654044229022,0.016875189336564678,1.3454165404422902
9.166,-0.08547712814298697,0.01678430778551954,1.3454771281429871
9.186,-0.08553771584368373,0.016693426234474406,1.3455377158436839
9.206,-0.08559830354438049,0.01660254468342927,1.3455983035443806
9.226,-0.08565889124507725,0.016511663132384124,1.3456588912450773
9.246,-0.085719478945774,0.01642078158133899,1.345719478945774
9.266,-0.08578006664647077,0.016329900030293852,1.3457800666464708
9.286,-0.08584065434716752,0.016239018479248718,1.3458406543471677
9.306,-0.08590124204786428,0.01614813692820358,1.3459012420478644
9.326,-0.08596182974856104,0.016057255377158436,1.3459618297485612
9.346,-0.0860224174492578,0.015966373826113302,1.3460224174492579
9.366,-0.08608300514995455,0.015875492275068164,1.3460830051499546
9.386,-0.08614359285065132,0.01578461072402303,1.3461435928506513
9.406,-0.08620418055134807,0.015693729172977885,1.3462041805513483
9.426,-0.08626476825204484,0.015602847621932751,1.346264768252045
9.446,-0.08632535595274159,0.015511966070887614,1.3463253559527417
9.466,-0.08638594365343835,0.01542108451984248,1.3463859436534384
9.486,-0.0864465313541351,0.015330202968797335,1.3464465313541352
9.506,-0.08650711905483187,0.015239321417752198,1.346507119054832
9.526,-0.08656770675552862,0.015148439866707063,1.3465677067555286
9.546,-0.08662829445622539,0.015057558315661926,1.3466282944562256
9.566,-0.08668888215692214,0.014966676764616781,1.3466888821569223
9.586,-0.0867494698576189,0.014875795213571647,1.346749469857619
9.606,-0.08681005755831565,0.01478491366252651,1.3468100575583157
9.626,-0.08687064525901242,0.014694032111481375,1.3468706452590125
9.646,-0.08693123295970917,0.014603150560436231,1.3469312329597092
9.666,-0.08699182066040594,0.014512269009391093,1.3469918206604061
9.686,-0.08705240836110269,0.01442138745834596,1.3470524083611028
9.706,-0.08711299606179945,0.014330505907300822,1.3471129960617996
9.726,-0.0871735837624962,0.01423962435625568,1.3471735837624963
9.746,-0.08723417146319297,0.014148742805210543,1.347234171463193
9.766,-0.08729475916388973,0.014057861254165409,1.3472947591638897
9.786,-0.08735534686458649,0.013966979703120271,1.3473553468645865
9.806,-0.08741593456528324,0.013876098152075137,1.3474159345652834
9.826,-0.08747652226598,0.013785216601029993,1.3474765222659801
9.846,-0.08753710996667677,0.013694335049984855,1.3475371099666769
9.866,-0.08759769766737352,0.01360345349893972,1.3475976976673736
9.886,-0.08765828536807027,0.013512571947894583,1.3476582853680703
9.906,-0.08771887306876704,0.013421690396849439,1.347718873068767
9.926,-0.0877794607694638,0.013330808845804305,1.347779460769464
9.946,-0.08784004847016055,0.013239927294759167,1.3478400484701607
9.966,-0.0879006361708573,0.013149045743714033,1.3479006361708574
9.986,-0.08796122387155407,0.013058164192668888,1.3479612238715541
10.006,-0.08802181157225084,0.01296728264162375,1.3480218115722509
10.026,-0.08808239927294759,0.012876401090578617,1.3480823992729476
10.046,-0.08814298697364434,0.012785519539533479,1.3481429869736445
10.066,-0.0882035746743411,0.012694637988488338,1.3482035746743413
10.086,-0.08826416237503787,0.0126037564374432,1.348264162375038
10.106,-0.08832475007573462,0.012512874886398066,1.3483247500757347
10.126,-0.08838533777643137,0.012421993335352929,1.3483853377764314
10.146,-0.08844592547712814,0.012331111784307784,1.3484459254771282
10.166,-0.0885065131778249,0.01224023023326265,1.3485065131778249
10.186,-0.08856710087852165,0.012149348682217512,1.3485671008785218
10.206,-0.0886276885792184,0.012058467131172378,1.3486276885792186
10.226,-0.08868827627991517,0.011967585580127234,1.3486882762799153
10.246,-0.08874886398061194,0.011876704029082096,1.348748863980612
10.266,-0.08880945168130869,0.011785822478036962,1.3488094516813087
10.286,-0.08887003938200544,0.011694940926991824,1.3488700393820054
10.306,-0.0889306270827022,0.01160405937594669,1.3489306270827024
10.326,-0.08899121478339897,0.011513177824901546,1.3489912147833991
10.346,-0.08905180248409572,0.011422296273856408,1.3490518024840958
10.366,-0.08911239018479247,0.011331414722811274,1.3491123901847926
10.386,-0.08917297788548924,0.011240533171766137,1.3491729778854893
10.406,-0.089233565586186,0.011149651620720995,1.349233565586186
10.426,-0.08929415328688275,0.011058770069675858,1.349294153286883
10.446,-0.08935474098757952,0.010967888518630724,1.3493547409875797
10.466,-0.08941532868827627,0.010877006967585586,1.3494153286882764
10.486,-0.08947591638897304,0.010786125416540442,1.3494759163889731
10.506,-0.08953650408966979,0.010695243865495307,1.3495365040896699
10.526,-0.08959709179036655,0.01060436231445017,1.3495970917903666
10.546,-0.0896576794910633,0.010513480763405036,1.3496576794910633
10.566,-0.08971826719176007,0.010422599212359891,1.3497182671917602
10.586,-0.08977885489245682,0.010331717661314754,1.349778854892457
10.606,-0.08983944259315359,0.01024083611026962,1.3498394425931537
10.626,-0.08990003029385034,0.010149954559224482,1.3499000302938504
10.646,-0.0899606179945471,0.010059073008179337,1.3499606179945471
10.666,-0.34,-0.05,1.52
10.686,1.74,0.0966666666666568,-2.31
10.706,1.7450000000000045,-0.2149999999999867,-2.3549999999999955
10.726,1.67,-0.41,-2.35
10.746,1.5066666666666628,-0.5766666666666685,-2.226666666666663
10.766,1.3133333333333255,-0.6133333333333314,-2.009999999999994
10.786,1.0200000000000178,-0.5550000000000045,-1.675000000000022
10.806,0.6266666666666864,-0.3766666666666746,-1.2500000000000238
10.826,0.1949999999999778,-0.17499999999998667,-0.7649999999999689
10.846,-0.18000000000000593,0.030000000000005918,-0.18333333333331953
10.866,-0.3566666666666627,0.27999999999998815,0.3233333333333136
10.886,-0.41,0.5433333333333255,0.6699999999999882
10.906,-0.36599999999999927,0.5419999999999986,0.9800000000000035
10.926,-0.36,0.28500000000000003,1.335
10.946,-0.3724999999999989,-0.04999999999999556,1.6174999999999966
10.966,-0.4899999999999911,-0.21,1.8149999999999955
10.986,-0.6766666666666686,-0.17333333333333137,1.9933333333333372
11.006,-0.6933333333333314,-0.09666666666666271,2.223333333333337
11.026,-0.605,-0.045,2.3449999999999998
11.046,-0.55,0.04666666666666272,2.3433333333333373
11.066,-0.6133333333333373,0.08,2.253333333333331
11.086,-0.745,0.09,2.145
11.106,-0.8966666666666686,0.08,2.0533333333333315
11.126,-0.9866666666666627,0.05,1.98
11.146,-1.02,0.10500000000000445,1.9650000000000043
11.166,-1.0666666666666687,0.2433333333333373,2.0266666666666686
11.186,-1.1766666666666685,0.3466666666666686,2.1
11.206,-1.3299999999999912,0.41,2.13
11.226,-1.5133333333333372,0.36333333333333134,2.0733333333333315
11.246,-1.61,0.29,2.0
11.266,-1.5933333333333315,0.25,1.94
11.286,-1.52,0.25,1.89
11.306,-1.4633333333333371,0.26,1.8533333333333373
11.326,-1.37,0.28,1.78
11.346,-1.13,0.34,1.6
11.366,-0.8800000000000119,0.37,1.353333333333349
11.386,-0.6000000000000119,0.27666666666667455,1.0433333333333492
11.406,-0.3699999999999911,0.04999999999999112,0.7649999999999867
11.426,-0.26,-0.13,0.54
11.446,-0.23,-0.24,0.26
11.466,-0.22,-0.22,0.08
11.486,-0.18333333333333135,-0.2,-0.03333333333333728
11.506,-0.07666666666666272,-0.07666666666666272,-0.14666666666666864
11.526,0.0633333333333373,0.14666666666667455,-0.2933333333333373
11.546,0.27,0.44,-0.56
11.566,0.54,0.55,-0.95
11.586,0.8766666666666746,0.3833333333333254,-1.4366666666666805
11.606,1.2166666666666746,-0.046666666666680484,-1.9800000000000118
11.626,1.43,-0.63,-2.47
11.646,1.47,-1.15,-2.85
11.666,1.41,-1.41,-3.07
11.686,1.32,-1.42,-3.09
11.706,1.3,-1.2700000000000022,-3.0250000000000012
11.726,1.38,-0.74,-2.84
11.746,1.48,-0.27,-2.66
11.766,1.56,0.08,-2.49
11.786,1.59,0.2,-2.38
11.806,1.65,0.07,-2.35
11.826,1.69,-0.057777777777777636,-2.37
11.846,1.69,-0.08,-2.37
11.866,1.51,-0.36,-2.52
11.886,1.38,-0.5,-2.35
11.906,1.22,-0.69,-1.93
11.926,0.94,-0.81,-1.48
11.946,0.43,-0.77,-0.94
11.966,0.07,-0.49,-0.59
11.986,-0.15,-0.14,-0.33
12.006,-0.3,0.23,-0.06
12.026,-0.43,0.52,0.26
12.046,-0.61,0.69,0.6
12.066,-0.7550000000000044,0.71,0.9350000000000223
12.086,-0.8,0.72,1.31
12.106,-0.81,0.78,1.58
12.126,-0.85,0.78,1.88
12.146,-0.82,0.54,2.2
12.166,-0.6649999999999934,0.21999999999999112,2.365000000000002
12.186,-0.51,-0.06,2.36
12.206,-0.47,-0.2,2.26
12.226,-0.5150000000000045,-0.3200000000000089,2.1199999999999912
12.246,-0.63,-0.36,2.05
12.266,-0.79,-0.3,2.09
12.286,-0.94,-0.16,2.2
12.306000000000001,-1.03,0.010000000000017764,2.3600000000000088
12.326,-1.07,0.17000000000000887,2.44
12.346,-1.15,0.3,2.39
12.366,-1.29,0.32,2.25
12.386,-1.38,0.32,2.06
12.406,-1.39,0.3,1.9
12.426,-1.39,0.3,1.81
12.446,-1.42,0.4625000000000033,1.8375000000000012
12.466,-1.45,0.79,1.99
12.486,-1.39,0.98,2.12
12.506,-1.24,0.88,2.12
12.526,-0.97,0.6,1.88
12.546,-0.6533333333333432,0.22000000000001182,1.4533333333333491
12.566,-0.24,-0.29,0.73
12.586,0.1,-0.55,0.06
12.606,0.3,-0.54,-0.49
12.626,0.34,-0.39,-0.93
12.646,0.31,-0.11,-1.18
12.666,0.34666666666667456,0.23000000000001183,-1.2833333333333372
12.686,0.5333333333333254,0.42333333333333134,-1.3633333333333315
12.706,0.87,0.41,-1.49
12.726,1.23,0.17,-1.79
12.746,1.49,-0.27,-2.22
12.766,1.64,-0.73,-2.66
12.786,1.69,-1.1433333333333253,-3.0333333333333257
12.806000000000001,1.659999999999991,-1.3700000000000179,-3.290000000000009
12.826,1.5233333333333254,-1.3633333333333255,-3.4033333333333373
12.846,1.3433333333333373,-1.0833333333333433,-3.3866666666666685
12.866,1.19,-0.59,-3.3
12.886,1.1,0.02333333333331952,-3.163333333333337
12.906,1.1466666666666745,0.5400000000000237,-3.0133333333333256
12.926,1.2866666666666629,0.8799999999999941,-2.8766666666666687
12.946,1.44,0.97,-2.8
12.966,1.6466666666666627,0.7833333333333432,-2.6733333333333373
12.986,1.74,0.33749999999998886,-2.419999999999991
13.006,1.63,-0.1,-2.1
13.026,1.3266666666666747,-0.36333333333333134,-1.7466666666666746
13.046,1.000000000000006,-0.33666666666666867,-1.4066666666666745
13.066,0.7833333333333254,-0.24333333333332544,-1.076666666666651
13.086,0.69,-0.14,-0.78
13.106,0.5400000000000059,-0.07,-0.5400000000000059
13.126,0.28500000000001335,-0.04500000000000444,-0.35000000000000886
13.146,0.05999999999998816,0.09666666666667456,-0.09666666666665089
13.166,-0.03333333333333728,0.23,0.23333333333334913
13.186,-0.015,0.125,0.63
13.206,-0.029999999999991117,-0.1349999999999867,1.0899999999999734
13.226,-0.2350000000000133,-0.36000000000000887,1.505000000000022
13.246,-0.5550000000000221,-0.44500000000000445,1.905000000000022
13.266,-0.8166666666666628,-0.4966666666666627,2.3166666666666567
13.286,-0.86,-0.62,2.71
13.306000000000001,-0.6899999999999882,-0.7533333333333373,2.9
13.326,-0.40999999999998227,-0.7649999999999956,2.829999999999991
13.346,-0.12000000000000592,-0.74,2.660000000000006
13.366,0.043333333333331364,-0.73,2.453333333333337
13.386,0.03,-0.6733333333333373,2.263333333333337
13.406,-0.11000000000001185,-0.47999999999998816,2.0933333333333257
13.426,-0.3833333333333254,-0.07000000000001184,2.0066666666666686
13.446,-0.75,0.5,2.03
13.466,-1.1766666666666568,0.9866666666666568,2.1533333333333315
13.486,-1.4750000000000134,1.2100000000000088,2.22
13.506,-1.6833333333333333,1.2133333333333334,2.1766666666666667
13.526,-1.77,1.05,2.0999999999999996
13.546,-1.7100000000000088,0.8450000000000133,2.06
13.566,-1.5249999999999866,0.6899999999999911,2.0750000000000046
13.586,-1.3,0.5666666666666667,2.1133333333333333
13.606,-1.055,0.48,2.14
13.626,-0.8400000000000089,0.3550000000000044,2.1350000000000042
13.646,-0.6849999999999933,0.26499999999999335,2.0449999999999933
13.666,-0.6339999999999986,0.2039999999999986,1.9659999999999977
13.686,-0.44,-0.22,1.44
13.706,-0.2633333333333373,-0.5633333333333255,0.9366666666666804
13.726,-0.10499999999999557,-0.8000000000000089,0.3749999999999689
13.746,0.005000000000004441,-0.9,-0.15000000000002664
13.766,0.10666666666666864,-0.7333333333333254,-0.6400000000000119
13.786,0.21499999999999556,-0.3550000000000222,-1.034999999999978
13.806000000000001,0.3533333333333373,0.05666666666667457,-1.340000000000006
13.826,0.5333333333333373,0.3633333333333373,-1.5633333333333372
13.846,0.755,0.415,-1.7850000000000001
13.866,0.9749999999999867,0.1350000000000222,-2.114999999999978
13.886,1.1633333333333253,-0.3399999999999763,-2.5499999999999763
13.906,1.2049999999999979,-0.8450000000000155,-3.0000000000000133
13.926,1.11,-1.245,-3.39
13.946,0.9460000000000014,-1.39,-3.5939999999999985
13.966,0.7500000000000089,-1.175000000000022,-3.6450000000000045
13.986,0.62,-0.63,-3.54
14.006,0.535,0.235,-3.315
14.026,0.5533333333333315,0.9999999999999822,-3.0466666666666744
14.046,0.7039999999999936,1.4819999999999915,-2.8060000000000063
14.066,1.010000000000009,1.5549999999999957,-2.617499999999998
14.086,1.32,1.255,-2.54
14.106,1.5333333333333372,0.7799999999999881,-2.5866666666666687
14.126,1.6349999999999953,0.3750000000000222,-2.65
14.146,1.58,0.1,-2.67
14.166,1.3349999999999866,-0.04500000000000444,-2.6149999999999958
14.186,1.0859999999999979,0.03600000000000142,-2.473999999999999
14.206,0.7533333333333492,0.07333333333333729,-2.0700000000000234
14.226,0.4433333333333254,-0.060000000000005924,-1.4566666666666508
14.246,0.12999999999999112,-0.2775000000000067,-0.7649999999999778
14.266,-0.21000000000000593,-0.43666666666666865,0.05000000000001776
14.286,-0.40666666666666273,-0.29333333333334916,0.7133333333333017
14.306000000000001,-0.4574999999999967,-0.02499999999999334,1.1425000000000165
14.326,-0.3466666666666627,-0.06500000000000591,1.4666666666666746
14.346,-0.20333333333333137,-0.33000000000000596,1.700000000000006
14.366,-0.22599999999999573,-0.5439999999999936,1.8179999999999978
14.386,-0.4233333333333254,-0.6533333333333373,1.9566666666666628
14.406,-0.5766666666666685,-0.47999999999999404,2.1133333333333373
14.426,-0.6766666666666686,-0.2499999999999941,2.403333333333343
14.446,-0.69,-0.11500000000000221,2.7149999999999936
14.466,-0.6833333333333373,-0.006666666666674563,2.9133333333333256
14.486,-0.7066666666666686,0.08,3.0
14.506,-0.7666666666666686,0.043333333333331364,2.9633333333333316
14.526,-0.8,-0.06,2.87
14.546,-0.79,-0.20333333333332543,2.7366666666666744
14.566,-0.8166666666666687,-0.24333333333333135,2.68
14.586,-0.9066666666666686,-0.03333333333332544,2.7366666666666686
14.606,-1.03,0.32,2.8
14.626,-1.15,0.64,2.78
14.646,-1.2,0.79,2.626666666666663
14.666,-1.17,0.78,2.419999999999994
14.686,-1.13,0.6399999999999941,2.159999999999994
14.706,-1.09,0.42,1.92
14.726,-1.0,0.15,1.77
14.746,-0.86,-0.07,1.66
14.766,-0.7,-0.11,1.58
14.786,-0.57,-0.11,1.5
14.806000000000001,-0.42999999999998223,-0.11,1.3499999999999823
14.826,-0.28,-0.19,1.09
14.846,-0.13,-0.305,0.75
14.866,0.033333333333325436,-0.4166666666666627,0.23333333333336098
14.886,0.11,-0.44,-0.36
14.906,0.11,-0.4,-0.86
14.926,0.1,-0.2499999999999941,-1.2266666666666746
14.946,0.1366666666666667,0.04666666666666666,-1.51
14.966,0.26,0.43,-1.7
14.986,0.51,0.63,-1.9
15.006,0.87,0.5,-2.17
15.026,1.25,0.11,-2.53
15.046,1.5,-0.4,-2.97
15.066,1.56,-0.82,-3.43
15.086,1.44,-1.12,-3.74
15.106,1.422608695652174,-1.1373913043478259,-3.766086956521739
15.126,1.03,-0.93,-3.76
15.146,0.83,-0.42,-3.52
15.166,0.71,0.24,-3.26
15.186,0.73,0.84,-3.02
15.206,0.86,1.17,-2.86
15.226,1.13,1.18,-2.8
15.246,1.35,0.91,-2.76
15.266,1.37,0.62,-2.75
15.286,1.2300000000000089,0.3350000000000133,-2.5850000000000133
15.306000000000001,0.9699999999999822,0.18999999999999556,-2.239999999999978
15.326,0.69,0.25,-1.87
15.346,0.41,0.52,-1.55
15.366,0.17,0.73,-1.17
15.386,-0.01,0.63,-0.66
15.406,-0.14,0.41,-0.2
15.426,-0.23,0.34,0.12
15.446,-0.24,0.39,0.4066666666666667
15.466,-0.15,0.3,0.74
15.486,0.05,-0.03,1.11
15.506,0.02,-0.3,1.37
15.526,-0.4,-0.38,1.59
15.546,-1.02,-0.24,1.84
15.566,-1.55,0.05,2.14
15.586,-1.72,0.23,2.48
15.606,-1.65,0.43,2.66
15.626,-1.62,0.66,2.68
15.646,-1.66,0.76,2.72
15.666,-1.69,0.6,2.75
15.686,-1.65,0.33,2.71
15.706,-1.599992668621701,0.17998533724340177,2.639992668621701
15.726,-1.5999633431085045,0.1799266862170088,2.6399633431085046
15.746,-1.599934017595308,0.17986803519061584,2.639934017595308
15.766,-1.5999046920821116,0.17980938416422287,2.6399046920821116
15.786,-1.599875366568915,0.1797507331378299,2.639875366568915
15.806000000000001,-1.5998460410557185,0.17969208211143695,2.6398460410557187
15.826,-1.599816715542522,0.17963343108504398,2.6398167155425223
15.846,-1.5997873900293256,0.17957478005865102,2.639787390029326
15.866,-1.5997580645161291,0.17951612903225805,2.639758064516129
15.886000000000001,-1.5997287390029327,0.1794574780058651,2.6397287390029325
15.906,-1.5996994134897362,0.17939882697947213,2.639699413489736
15.926,-1.5996700879765398,0.17934017595307916,2.6396700879765396
15.946,-1.5996407624633433,0.17928152492668623,2.639640762463343
15.966,-1.5996114369501466,0.17922287390029326,2.6396114369501467
15.986,-1.5995821114369502,0.1791642228739003,2.63958211143695
16.006,-1.5995527859237537,0.17910557184750733,2.6395527859237538
16.026,-1.5995234604105573,0.17904692082111437,2.6395234604105573
16.046,-1.5994941348973608,0.1789882697947214,2.639494134897361
16.066,-1.5994648093841644,0.17892961876832844,2.6394648093841644
16.086,-1.599435483870968,0.17887096774193548,2.639435483870968
16.106,-1.5994061583577714,0.1788123167155425,2.6394061583577715
16.126,-1.5993768328445748,0.17875366568914955,2.639376832844575
16.146,-1.5993475073313783,0.17869501466275658,2.6393475073313786
16.166,-1.5993181818181819,0.17863636363636362,2.639318181818182
16.186,-1.5992888563049854,0.17857771260997066,2.6392888563049857
16.206,-1.599259530791789,0.17851906158357772,2.6392595307917888
16.226,-1.5992302052785925,0.17846041055718476,2.6392302052785923
16.246,-1.599200879765396,0.1784017595307918,2.639200879765396
16.266000000000002,-1.5991715542521996,0.17834310850439883,2.6391715542521994
16.286,-1.599142228739003,0.17828445747800586,2.639142228739003
16.306,-1.5991129032258065,0.1782258064516129,2.6391129032258065
16.326,-1.59908357771261,0.17816715542521994,2.63908357771261
16.346,-1.5990542521994136,0.17810850439882697,2.6390542521994136
16.366,-1.599024926686217,0.178049853372434,2.639024926686217
16.386,-1.5989956011730206,0.17799120234604104,2.6389956011730207
16.406,-1.5989662756598242,0.17793255131964808,2.6389662756598242
16.426,-1.5989369501466277,0.17787390029325514,2.6389369501466278
16.446,-1.5989076246334313,0.17781524926686215,2.6389076246334313
16.466,-1.5988782991202346,0.1777565982404692,2.638878299120235
16.486,-1.5988489736070381,0.17769794721407625,2.6388489736070384
16.506,-1.5988196480938417,0.1776392961876833,2.638819648093842
16.526,-1.5987903225806452,0.17758064516129032,2.638790322580645
16.546,-1.5987609970674488,0.17752199413489736,2.6387609970674486
16.566,-1.5987316715542523,0.1774633431085044,2.638731671554252
16.586,-1.5987023460410559,0.17740469208211143,2.6387023460410557
16.606,-1.5986730205278594,0.17734604105571847,2.6386730205278592
16.626,-1.5986436950146627,0.1772873900293255,2.638643695014663
16.646,-1.5986143695014663,0.17722873900293254,2.6386143695014663
16.666,-1.5985850439882698,0.17717008797653958,2.63858504398827
16.686,-1.5985557184750734,0.1771114369501466,2.6385557184750734
16.706,-1.598526392961877,0.17705278592375367,2.638526392961877
16.726,-1.5984970674486805,0.1769941348973607,2.6384970674486805
16.746,-1.598467741935484,0.17693548387096775,2.638467741935484
16.766000000000002,-1.5984384164222876,0.17687683284457478,2.6384384164222876
16.786,-1.598409090909091,0.17681818181818182,2.638409090909091
16.806,-1.5983797653958944,0.17675953079178885,2.6383797653958947
16.826,-1.598350439882698,0.1767008797653959,2.6383504398826982
16.846,-1.5983211143695015,0.17664222873900293,2.6383211143695013
16.866,-1.598291788856305,0.17658357771260996,2.638291788856305
16.886,-1.5982624633431086,0.176524926686217,2.6382624633431084
16.906,-1.5982331378299122,0.17646627565982403,2.638233137829912
16.926,-1.5982038123167157,0.1764076246334311,2.6382038123167155
16.946,-1.5981744868035193,0.1763489736070381,2.638174486803519
16.966,-1.5981451612903226,0.17629032258064514,2.6381451612903226
16.986,-1.5981158357771261,0.1762316715542522,2.638115835777126
17.006,-1.5980865102639297,0.17617302052785924,2.6380865102639297
17.026,-1.5980571847507332,0.17611436950146628,2.6380571847507333
17.046,-1.5980278592375368,0.17605571847507331,2.638027859237537
17.066,-1.5979985337243403,0.17599706744868035,2.6379985337243403
17.086,-1.5979692082111439,0.17593841642228739,2.637969208211144
17.106,-1.5979398826979474,0.17587976539589442,2.6379398826979474
17.126,-1.5979105571847507,0.17582111436950146,2.637910557184751
17.146,-1.5978812316715543,0.1757624633431085,2.6378812316715545
17.166,-1.5978519061583578,0.17570381231671553,2.6378519061583576
17.186,-1.5978225806451614,0.17564516129032257,2.637822580645161
17.206,-1.597793255131965,0.17558651026392963,2.6377932551319647
17.226,-1.5977639296187685,0.17552785923753667,2.6377639296187683
17.246,-1.597734604105572,0.1754692082111437,2.637734604105572
17.266000000000002,-1.5977052785923755,0.17541055718475074,2.6377052785923754
17.286,-1.5976759530791789,0.17535190615835777,2.637675953079179
17.306,-1.5976466275659824,0.1752932551319648,2.6376466275659824
17.326,-1.597617302052786,0.17523460410557185,2.637617302052786
17.346,-1.5975879765395895,0.17517595307917888,2.6375879765395895
17.366,-1.597558651026393,0.17511730205278592,2.637558651026393
17.386,-1.5975293255131966,0.17505865102639295,2.6375293255131966
17.406,-1.5975000000000001,0.175,2.6375
17.426000000000002,-1.5974706744868037,0.17494134897360702,2.6374706744868037
17.446,-1.5974413489736072,0.17488269794721406,2.6374413489736073
17.466,-1.5974120234604106,0.1748240469208211,2.637412023460411
17.486,-1.597382697947214,0.17476539589442816,2.6373826979472144
17.506,-1.5973533724340176,0.1747067448680352,2.6373533724340175
17.526,-1.5973240469208212,0.17464809384164223,2.637324046920821
17.546,-1.5972947214076247,0.17458944281524927,2.6372947214076246
17.566,-1.5972653958944283,0.1745307917888563,2.637265395894428
17.586,-1.5972360703812318,0.17447214076246334,2.6372360703812316
17.606,-1.5972067448680354,0.17441348973607038,2.637206744868035
17.626,-1.5971774193548387,0.1743548387096774,2.6371774193548387
17.646,-1.5971480938416422,0.17429618768328445,2.6371480938416423
17.666,-1.5971187683284458,0.17423753665689148,2.637118768328446
17.686,-1.5970894428152493,0.17417888563049852,2.6370894428152494
17.706,-1.5970601173020529,0.17412023460410558,2.637060117302053
17.726,-1.5970307917888564,0.17406158357771262,2.6370307917888565
17.746,-1.59700146627566,0.17400293255131966,2.63700146627566
17.766000000000002,-1.5969721407624635,0.1739442815249267,2.6369721407624636
17.786,-1.5969428152492668,0.17388563049853373,2.636942815249267
17.806,-1.5969134897360704,0.17382697947214076,2.6369134897360706
17.826,-1.596884164222874,0.1737683284457478,2.6368841642228737
17.846,-1.5968548387096775,0.17370967741935484,2.6368548387096773
17.866,-1.596825513196481,0.17365102639296187,2.636825513196481
17.886,-1.5967961876832846,0.1735923753665689,2.6367961876832844
17.906,-1.5967668621700881,0.17353372434017594,2.636766862170088
17.926000000000002,-1.5967375366568917,0.17347507331378298,2.6367375366568915
17.946,-1.596708211143695,0.17341642228739002,2.636708211143695
17.966,-1.5966788856304985,0.17335777126099705,2.6366788856304986
17.986,-1.596649560117302,0.17329912023460411,2.636649560117302
18.006,-1.5966202346041056,0.17324046920821115,2.6366202346041057
18.026,-1.5965909090909092,0.1731818181818182,2.636590909090909
18.046,-1.5965615835777127,0.17312316715542522,2.6365615835777128
18.066,-1.5965322580645163,0.17306451612903226,2.6365322580645163
18.086,-1.5965029325513198,0.1730058651026393,2.63650293255132
18.106,-1.5964736070381234,0.17294721407624633,2.6364736070381234
18.126,-1.5964442815249267,0.17288856304985337,2.636444281524927
18.146,-1.5964149560117302,0.1728299120234604,2.63641495601173
18.166,-1.5963856304985338,0.17277126099706744,2.6363856304985336
18.186,-1.5963563049853373,0.17271260997067447,2.636356304985337
18.206,-1.5963269794721409,0.17265395894428154,2.6363269794721407
18.226,-1.5962976539589444,0.17259530791788857,2.636297653958944
18.246,-1.596268328445748,0.1725366568914956,2.6362683284457478
18.266000000000002,-1.5962390029325515,0.17247800586510265,2.6362390029325513
18.286,-1.5962096774193548,0.17241935483870968,2.636209677419355
18.306,-1.5961803519061584,0.17236070381231672,2.6361803519061584
18.326,-1.596151026392962,0.17230205278592375,2.636151026392962
18.346,-1.5961217008797655,0.1722434017595308,2.6361217008797655
18.366,-1.596092375366569,0.17218475073313783,2.636092375366569
18.386,-1.5960630498533726,0.17212609970674486,2.6360630498533726
18.406,-1.596033724340176,0.1720674486803519,2.636033724340176
18.426000000000002,-1.5960043988269796,0.17200879765395893,2.6360043988269797
18.446,-1.595975073313783,0.17195014662756597,2.6359750733137832
18.466,-1.5959457478005865,0.171891495601173,2.6359457478005863
18.486,-1.59591642228739,0.17183284457478007,2.63591642228739
18.506,-1.5958870967741936,0.1717741935483871,2.6358870967741934
18.526,-1.5958577712609971,0.17171554252199414,2.635857771260997
18.546,-1.5958284457478007,0.17165689149560118,2.6358284457478005
18.566,-1.5957991202346042,0.1715982404692082,2.635799120234604
18.586,-1.5957697947214078,0.17153958944281525,2.6357697947214076
18.606,-1.5957404692082113,0.17148093841642228,2.635740469208211
18.626,-1.5957111436950147,0.17142228739002932,2.6357111436950147
18.646,-1.5956818181818182,0.17136363636363636,2.6356818181818182
18.666,-1.5956524926686217,0.1713049853372434,2.635652492668622
18.686,-1.5956231671554253,0.17124633431085043,2.6356231671554253
18.706,-1.5955938416422288,0.1711876832844575,2.635593841642229
18.726,-1.5955645161290324,0.17112903225806453,2.6355645161290324
18.746,-1.595535190615836,0.17107038123167156,2.635535190615836
18.766000000000002,-1.5955058651026395,0.1710117302052786,2.6355058651026395
18.786,-1.5954765395894428,0.17095307917888564,2.6354765395894426
18.806,-1.5954472140762463,0.17089442815249267,2.635447214076246
18.826,-1.59541788856305,0.1708357771260997,2.6354178885630497
18.846,-1.5953885630498534,0.17077712609970674,2.6353885630498532
18.866,-1.595359237536657,0.17071847507331378,2.635359237536657
18.886,-1.5953299120234605,0.17065982404692082,2.6353299120234603
18.906,-1.595300586510264,0.17060117302052785,2.635300586510264
18.926000000000002,-1.5952712609970676,0.1705425219941349,2.6352712609970674
18.946,-1.595241935483871,0.17048387096774192,2.635241935483871
18.966,-1.5952126099706745,0.17042521994134896,2.6352126099706745
18.986,-1.595183284457478,0.170366568914956,2.635183284457478
19.006,-1.5951539589442816,0.17030791788856306,2.6351539589442816
19.026,-1.5951246334310851,0.1702492668621701,2.635124633431085
19.046,-1.5950953079178887,0.17019061583577713,2.6350953079178887
19.066,-1.5950659824046922,0.17013196480938417,2.6350659824046923
19.086,-1.5950366568914958,0.1700733137829912,2.635036656891496
19.106,-1.5950073313782993,0.17001466275659824,2.6350073313782993
19.126,-1.5949780058651026,0.16995601173020528,2.6349780058651024
19.146,-1.5949486803519062,0.1698973607038123,2.634948680351906
19.166,-1.5949193548387097,0.16983870967741935,2.6349193548387095
19.186,-1.5948900293255133,0.16978005865102638,2.634890029325513
19.206,-1.5948607038123168,0.16972140762463345,2.6348607038123166
19.226,-1.5948313782991204,0.16966275659824048,2.63483137829912
19.246,-1.594802052785924,0.16960410557184752,2.6348020527859237
19.266000000000002,-1.5947727272727275,0.16954545454545455,2.6347727272727273
19.286,-1.5947434017595308,0.1694868035190616,2.634743401759531
19.306,-1.5947140762463343,0.16942815249266863,2.6347140762463344
19.326,-1.5946847507331379,0.16936950146627566,2.634684750733138
19.346,-1.5946554252199414,0.1693108504398827,2.6346554252199414
19.366,-1.594626099706745,0.16925219941348973,2.634626099706745
19.386,-1.5945967741935485,0.16919354838709677,2.6345967741935485
19.406,-1.594567448680352,0.1691348973607038,2.634567448680352
19.426000000000002,-1.5945381231671556,0.16907624633431084,2.6345381231671556
19.446,-1.594508797653959,0.16901759530791788,2.6345087976539587
19.466,-1.5944794721407625,0.16895894428152491,2.6344794721407623
19.486,-1.594450146627566,0.16890029325513195,2.634450146627566
19.506,-1.5944208211143696,0.16884164222873901,2.6344208211143694
19.526,-1.594391495601173,0.16878299120234605,2.634391495601173
19.546,-1.5943621700879766,0.16872434017595309,2.6343621700879765
19.566,-1.5943328445747802,0.16866568914956012,2.63433284457478
19.586,-1.5943035190615837,0.16860703812316716,2.6343035190615836
19.606,-1.5942741935483873,0.1685483870967742,2.634274193548387
19.626,-1.5942448680351906,0.16848973607038123,2.6342448680351906
19.646,-1.5942155425219942,0.16843108504398827,2.634215542521994
19.666,-1.5941862170087977,0.1683724340175953,2.6341862170087977
19.686,-1.5941568914956012,0.16831378299120234,2.6341568914956013
19.706,-1.5941275659824048,0.1682551319648094,2.634127565982405
19.726,-1.5940982404692083,0.16819648093841644,2.6340982404692084
19.746,-1.5940689149560119,0.16813782991202347,2.634068914956012
19.766000000000002,-1.5940395894428154,0.1680791788856305,2.634039589442815
19.786,-1.5940102639296188,0.16802052785923755,2.6340102639296186
19.806,-1.5939809384164223,0.16796187683284458,2.633980938416422
19.826,-1.5939516129032258,0.16790322580645162,2.6339516129032257
19.846,-1.5939222873900294,0.16784457478005865,2.633922287390029
19.866,-1.593892961876833,0.1677859237536657,2.6338929618768328
19.886,-1.5938636363636365,0.16772727272727272,2.6338636363636363
19.906,-1.59383431085044,0.16766862170087976,2.63383431085044
19.926000000000002,-1.5938049853372436,0.1676099706744868,2.6338049853372434
19.946,-1.593775659824047,0.16755131964809383,2.633775659824047
19.966,-1.5937463343108504,0.16749266862170087,2.6337463343108505
19.986,-1.593717008797654,0.1674340175953079,2.633717008797654
20.006,-1.5936876832844575,0.16737536656891497,2.6336876832844576
20.026,-1.593658357771261,0.167316715542522,2.633658357771261
20.046,-1.5936290322580646,0.16725806451612904,2.6336290322580647
20.066,-1.5935997067448682,0.16719941348973608,2.633599706744868
20.086,-1.5935703812316717,0.1671407624633431,2.6335703812316718
20.106,-1.5935410557184753,0.16708211143695015,2.633541055718475
20.126,-1.5935117302052786,0.16702346041055718,2.6335117302052784
20.146,-1.5934824046920821,0.16696480938416422,2.633482404692082
20.166,-1.5934530791788857,0.16690615835777126,2.6334530791788855
20.186,-1.5934237536656892,0.1668475073313783,2.633423753665689
20.206,-1.5933944281524928,0.16678885630498536,2.6333944281524926
20.226,-1.5933651026392963,0.1667302052785924,2.633365102639296
20.246,-1.5933357771260999,0.16667155425219943,2.6333357771260997
20.266000000000002,-1.5933064516129034,0.16661290322580646,2.633306451612903
20.286,-1.5932771260997067,0.1665542521994135,2.6332771260997068
20.306,-1.5932478005865103,0.16649560117302054,2.6332478005865103
20.326,-1.5932184750733138,0.16643695014662757,2.633218475073314
20.346,-1.5931891495601174,0.1663782991202346,2.6331891495601174
20.366,-1.593159824046921,0.16631964809384164,2.633159824046921
20.386,-1.5931304985337245,0.16626099706744868,2.6331304985337245
20.406,-1.593101173020528,0.16620234604105572,2.633101173020528
20.426000000000002,-1.5930718475073316,0.16614369501466275,2.633071847507331
20.446,-1.5930425219941349,0.1660850439882698,2.6330425219941347
20.466,-1.5930131964809384,0.16602639296187682,2.6330131964809382
20.486,-1.592983870967742,0.16596774193548386,2.632983870967742
20.506,-1.5929545454545455,0.16590909090909092,2.6329545454545453
20.526,-1.592925219941349,0.16585043988269796,2.632925219941349
20.546,-1.5928958944281526,0.165791788856305,2.6328958944281524
20.566,-1.5928665689149561,0.16573313782991203,2.632866568914956
20.586,-1.5928372434017597,0.16567448680351907,2.6328372434017595
20.606,-1.5928079178885632,0.1656158357771261,2.632807917888563
20.626,-1.5927785923753666,0.16555718475073314,2.6327785923753666
20.646,-1.59274926686217,0.16549853372434017,2.63274926686217
20.666,-1.5927199413489737,0.1654398826979472,2.6327199413489737
20.686,-1.5926906158357772,0.16538123167155425,2.6326906158357772
20.706,-1.5926612903225807,0.16532258064516128,2.632661290322581
20.726,-1.5926319648093843,0.16526392961876835,2.6326319648093843
20.746,-1.5926026392961878,0.16520527859237538,2.6326026392961874
20.766000000000002,-1.5925733137829914,0.1651466275659824,2.632573313782991
20.786,-1.5925439882697947,0.16508797653958945,2.6325439882697945
20.806,-1.5925146627565983,0.1650293255131965,2.632514662756598
20.826,-1.5924853372434018,0.16497067448680353,2.6324853372434016
20.846,-1.5924560117302053,0.16491202346041056,2.632456011730205
20.866,-1.592426686217009,0.1648533724340176,2.6324266862170087
20.886,-1.5923973607038124,0.16479472140762463,2.6323973607038123
20.906,-1.592368035190616,0.16473607038123167,2.632368035190616
20.926000000000002,-1.5923387096774195,0.1646774193548387,2.6323387096774193
20.946,-1.5923093841642229,0.16461876832844574,2.632309384164223
20.966,-1.5922800586510264,0.16456011730205278,2.6322800586510264
20.986,-1.59225073313783,0.1645014662756598,2.63225073313783
21.006,-1.5922214076246335,0.16444281524926688,2.6322214076246335
21.026,-1.592192082111437,0.1643841642228739,2.632192082111437
21.046,-1.5921627565982406,0.16432551319648095,2.6321627565982406
21.066,-1.5921334310850441,0.16426686217008798,2.6321334310850437
21.086,-1.5921041055718477,0.16420821114369502,2.6321041055718473
21.106,-1.5920747800586512,0.16414956011730206,2.632074780058651
21.126,-1.5920454545454545,0.1640909090909091,2.6320454545454544
21.146,-1.592016129032258,0.16403225806451613,2.632016129032258
21.166,-1.5919868035190616,0.16397360703812316,2.6319868035190614
21.186,-1.5919574780058652,0.1639149560117302,2.631957478005865
21.206,-1.5919281524926687,0.16385630498533726,2.6319281524926685
21.226,-1.5918988269794723,0.1637976539589443,2.631898826979472
21.246,-1.5918695014662758,0.16373900293255134,2.6318695014662756
21.266000000000002,-1.5918401759530794,0.16368035190615837,2.631840175953079
21.286,-1.5918108504398827,0.1636217008797654,2.6318108504398827
21.306,-1.5917815249266862,0.16356304985337244,2.6317815249266863
21.326,-1.5917521994134898,0.16350439882697948,2.63175219941349
21.346,-1.5917228739002933,0.16344574780058652,2.6317228739002934
21.366,-1.5916935483870969,0.16338709677419355,2.631693548387097
21.386,-1.5916642228739004,0.1633284457478006,2.6316642228739004
21.406,-1.591634897360704,0.16326979472140762,2.6316348973607036
21.426000000000002,-1.5916055718475075,0.16321114369501466,2.631605571847507
21.446,-1.5915762463343108,0.1631524926686217,2.6315762463343106
21.466,-1.5915469208211144,0.16309384164222873,2.631546920821114
21.486,-1.591517595307918,0.16303519061583577,2.6315175953079177
21.506,-1.5914882697947215,0.16297653958944283,2.6314882697947213
21.526,-1.591458944281525,0.16291788856304987,2.631458944281525
21.546,-1.5914296187683286,0.1628592375366569,2.6314296187683284
21.566,-1.591400293255132,0.16280058651026394,2.631400293255132
21.586,-1.5913709677419356,0.16274193548387098,2.6313709677419355
21.606,-1.591341642228739,0.162683284457478,2.631341642228739
21.626,-1.5913123167155425,0.16262463343108505,2.6313123167155426
21.646,-1.591282991202346,0.16256598240469208,2.631282991202346
21.666,-1.5912536656891496,0.16250733137829912,2.6312536656891496
21.686,-1.5912243401759532,0.16244868035190616,2.631224340175953
21.706,-1.5911950146627567,0.1623900293255132,2.6311950146627567
21.726,-1.5911656891495602,0.16233137829912025,2.63116568914956
21.746,-1.5911363636363638,0.1622727272727273,2.6311363636363634
21.766000000000002,-1.5911070381231673,0.1622140762463343,2.631107038123167
21.786,-1.5910777126099707,0.16215542521994136,2.6310777126099705
21.806,-1.5910483870967742,0.1620967741935484,2.631048387096774
21.826,-1.5910190615835778,0.16203812316715543,2.6310190615835776
21.846,-1.5909897360703813,0.16197947214076247,2.630989736070381
21.866,-1.5909604105571848,0.1619208211143695,2.6309604105571847
21.886,-1.5909310850439884,0.16186217008797654,2.630931085043988
21.906,-1.590901759530792,0.16180351906158358,2.6309017595307918
21.926000000000002,-1.5908724340175955,0.16174486803519061,2.6308724340175953
21.946,-1.5908431085043988,0.16168621700879765,2.630843108504399
21.966,-1.5908137829912024,0.1616275659824047,2.6308137829912024
21.986,-1.590784457478006,0.16156891495601172,2.630784457478006
22.006,-1.5907551319648094,0.16151026392961876,2.6307551319648095
22.026,-1.590725806451613,0.16145161290322582,2.630725806451613
22.046,-1.5906964809384165,0.16139296187683286,2.630696480938416
22.066,-1.59066715542522,0.1613343108504399,2.6306671554252197
22.086,-1.5906378299120236,0.16127565982404693,2.630637829912023
22.106,-1.590608504398827,0.16121700879765397,2.6306085043988268
22.126,-1.5905791788856305,0.161158357771261,2.6305791788856303
22.146,-1.590549853372434,0.16109970674486804,2.630549853372434
22.166,-1.5905205278592376,0.16104105571847507,2.6305205278592374
22.186,-1.5904912023460411,0.1609824046920821,2.630491202346041
22.206,-1.5904618768328447,0.16092375366568915,2.6304618768328445
22.226,-1.5904325513196482,0.1608651026392962,2.630432551319648
22.246,-1.5904032258064518,0.16080645161290325,2.6304032258064516
22.266000000000002,-1.5903739002932553,0.16074780058651025,2.630373900293255
22.286,-1.5903445747800586,0.16068914956011732,2.6303445747800587
22.306,-1.5903152492668622,0.16063049853372435,2.630315249266862
22.326,-1.5902859237536657,0.1605718475073314,2.6302859237536658
22.346,-1.5902565982404693,0.16051319648093842,2.6302565982404693
22.366,-1.5902272727272728,0.16045454545454546,2.6302272727272724
22.386,-1.5901979472140764,0.1603958944281525,2.630197947214076
22.406,-1.59016862170088,0.16033724340175953,2.6301686217008795
22.426000000000002,-1.5901392961876835,0.16027859237536657,2.630139296187683
22.446,-1.5901099706744868,0.1602199413489736,2.6301099706744866
22.466,-1.5900806451612903,0.16016129032258064,2.63008064516129
22.486,-1.5900513196480939,0.16010263929618768,2.6300513196480937
22.506,-1.5900219941348974,0.1600439882697947,2.6300219941348972
22.526,-1.58,0.12833333333333136,2.5983333333333314
22.546,-0.29,-0.23,1.74
22.566,-1.1133333333333255,0.6366666666666508,1.6666666666666508
22.586,-1.14,0.7033333333333254,1.7933333333333255
22.606,-1.143333333333337,0.7266666666666627,1.87
22.626,-1.19,0.6,1.85
22.646,-1.21,0.4139999999999915,1.7579999999999971
22.666,-1.21,0.24333333333332544,1.7
22.686,-1.2333333333333372,0.10666666666666272,1.69
22.706,-1.3133333333333372,0.11333333333333728,1.7433333333333372
22.726,-1.4266666666666508,0.2766666666666509,1.7666666666666746
22.746,-1.47,0.5099999999999764,1.7133333333333491
22.766000000000002,-1.2933333333333137,0.7033333333333373,1.5933333333333255
22.786,-0.89,0.69,1.37
22.806,-0.35,0.36,0.99
22.826,0.2266666666666864,-0.1466666666666864,0.48999999999997634
22.846,0.5800000000000118,-0.5566666666666864,0.0333333333333136
22.866,0.7233333333333373,-0.8000000000000118,-0.28000000000001185
22.886,0.76,-0.8833333333333492,-0.5166666666666508
22.906,0.7824999999999955,-0.6200000000000178,-0.6749999999999912
22.926000000000002,0.8,-0.34749999999998005,-0.85250000000002
22.946,0.9000000000000178,-0.29500000000000887,-1.1250000000000266
22.966,1.0900000000000178,-0.5000000000000355,-1.4300000000000355
22.986,1.2700000000000178,-0.8400000000000355,-1.7850000000000446
23.006,1.35,-1.1300000000000001,-2.1750000000000003
23.026,1.3133333333333255,-1.3300000000000118,-2.553333333333349
23.046,1.1525000000000132,-1.4974999999999867,-2.8699999999999823
23.066,0.91,-1.63,-3.05
23.086,0.6575000000000066,-1.6125000000000023,-3.042500000000002
23.106,0.51,-1.49,-2.94
23.126,0.39,-1.0933333333333137,-2.7033333333333256
23.146,0.41333333333333727,-0.6399999999999764,-2.519999999999988
23.166,0.4833333333333373,-0.14999999999997632,-2.3133333333333255
23.186,0.5833333333333373,0.2533333333333491,-2.1499999999999884
23.206,0.7,0.43,-2.03
23.226,0.8549999999999911,0.4350000000000089,-1.9050000000000087
23.246,0.9533333333333254,0.2800000000000237,-1.87
23.266000000000002,1.0,0.08249999999998667,-1.8674999999999957
23.286,1.01,-0.15500000000000444,-1.8149999999999955
23.306,0.9519999999999957,-0.2680000000000043,-1.6579999999999828
23.326,0.7499999999999881,-0.3733333333333373,-1.366666666666651
23.346,0.485,-0.355,-1.025
23.366,0.26249999999999335,-0.3,-0.6874999999999889
23.386,0.12750000000000444,-0.28,-0.32000000000001777
23.406,0.04500000000000888,-0.21500000000000888,0.009999999999964473
23.426000000000002,-0.042500000000004444,-0.16749999999999557,0.26750000000001334
23.446,-0.15500000000000444,-0.07749999999999778,0.5200000000000089
23.466,-0.2950000000000044,-0.004999999999995559,0.7900000000000089
23.486,-0.4366666666666746,0.17000000000001184,1.1300000000000237
23.506,-0.6166666666666746,0.40000000000001185,1.5166666666666864
23.526,-0.8050000000000045,0.6150000000000044,1.902500000000011
23.546,-0.8250000000000088,0.6475000000000044,2.3224999999999776
23.566,-0.5900000000000355,0.4750000000000266,2.6549999999999736
23.586,-0.2300000000000355,0.18000000000003552,2.705000000000009
23.606,0.10500000000002664,-0.11500000000002665,2.5249999999999733
23.626,0.27250000000000224,-0.3475000000000067,2.197499999999989
23.646,0.22499999999999112,-0.45499999999999113,1.8699999999999821
23.666,0.015,-0.43,1.73
23.686,-0.18599999999999717,-0.2860000000000043,1.7679999999999987
23.706,-0.35,0.14,1.9049999999999998
23.726,-0.5133333333333254,0.5366666666666509,2.0066666666666624
23.746,-0.6166666666666627,0.9133333333333137,2.0866666666666625
23.766000000000002,-0.7300000000000177,1.205000000000009,2.11
23.786,-0.82,1.2,2.05
23.806,-0.7749999999999911,0.9349999999999734,1.8699999999999821
23.826,-0.635,0.75,1.7349999999999999
23.846,-0.6093253968253969,0.7179761904761905,1.7093253968253967
23.866,-0.6085317460317461,0.7155952380952382,1.708531746031746
23.886,-0.6077380952380953,0.7132142857142858,1.7077380952380952
23.906,-0.6069444444444445,0.7108333333333334,1.7069444444444444
23.926000000000002,-0.6061507936507936,0.7084523809523807,1.7061507936507936
23.946,-0.6053571428571428,0.7060714285714284,1.7053571428571428
23.966,-0.604563492063492,0.703690476190476,1.704563492063492
23.986,-0.6037698412698412,0.7013095238095237,1.7037698412698412
24.006,-0.6029761904761904,0.6989285714285713,1.7029761904761904
24.026,-0.6021825396825397,0.696547619047619,1.7021825396825396
24.046,-0.6013888888888889,0.6941666666666666,1.7013888888888888
24.066,-0.6005952380952381,0.6917857142857143,1.700595238095238
24.086000000000002,-0.5699999999999822,0.6099999999999645,1.6599999999999822
24.106,-0.36,0.27,-1.0
24.126,-0.07999999999997633,0.9633333333333254,-1.1933333333333491
24.146,0.2733333333333728,0.7066666666666271,-1.3900000000000237
24.166,0.6633333333333137,0.14666666666669825,-1.7233333333333136
24.186,0.9133333333333254,-0.5599999999999644,-2.0933333333333137
24.206,0.9633333333333373,-1.236666666666639,-2.436666666666651
24.226,0.87,-1.62,-2.63
24.246,0.5800000000000118,-1.866666666666663,-2.6733333333333373
24.266000000000002,0.40333333333332544,-1.8066666666666509,-2.586666666666651
24.286,0.36,-1.4966666666666273,-2.4933333333333256
24.306,0.3966666666666746,-1.0033333333332781,-2.4033333333333253
24.326,0.4866666666666627,-0.38000000000003553,-2.35
24.346,0.6,0.27,-2.29
24.366,0.705,0.725,-2.1900000000000004
24.386,0.7766666666666627,0.9266666666666628,-2.0933333333333373
24.406,0.8639999999999985,0.9560000000000014,-2.06
24.426000000000002,0.93,0.8633333333333254,-2.033333333333325
24.446,0.94,0.7133333333333254,-1.9666666666666628
24.466,0.91,0.5066666666666508,-1.7899999999999763
24.486,0.8166666666666588,0.3633333333333294,-1.5399999999999883
24.506,0.6300000000000119,0.28333333333333727,-1.2133333333333491
24.526,0.4357142857142915,0.21142857142857288,-0.8685714285714373
24.546,0.12,-0.01,-0.19
24.566,-0.12,-0.1,0.29
24.586000000000002,-0.3400000000000237,0.030000000000035526,0.6000000000000355
24.606,-0.48,0.31,0.82
24.626,-0.57,0.43,1.06
24.646,-0.74,0.42,1.32
24.666,-0.9333333333333255,0.3633333333333373,1.5699999999999883
24.686,-1.05,0.35,1.84
24.706,-1.11,0.36,2.14
24.726,-1.01,0.31,2.42
24.746,-0.8333333333333373,0.28,2.51
24.766000000000002,-0.6899999999999763,0.19999999999998816,2.439999999999988
24.786,-0.52,0.04,2.32
24.806,-0.38,-0.22,2.18
24.826,-0.2933333333333373,-0.47999999999998816,2.0666666666666744
24.846,-0.26,-0.63,1.95
24.866,-0.34,-0.53,1.89
24.886,-0.49,-0.21,1.9
24.906,-0.6533333333333254,0.039999999999988156,1.91
24.926000000000002,-0.7600000000000119,0.2000000000000237,1.8499999999999883
24.946,-0.8250000000000088,0.2650000000000089,1.7499999999999822
24.966,-0.96,0.25,1.56
24.986,-1.05,0.09,1.45
25.006,-1.03,-0.1,1.4
25.026,-0.92,-0.29,1.39
25.046,-0.7600000000000119,-0.40666666666666273,1.36
25.066,-0.53,-0.4,1.34
25.086000000000002,-0.2699999999999645,-0.33,1.2599999999999763
25.106,0.02,-0.32,1.02
25.126,0.32,-0.4,0.64
25.146,0.53,-0.48,0.21
25.166,0.53,-0.45,-0.24
25.186,0.35,-0.28,-0.65
25.206,0.14,0.01,-0.93
25.226,-0.02,0.44,-1.08
25.246,-0.12,0.83,-1.18
25.266000000000002,-0.08999999999998223,1.0800000000000356,-1.2700000000000178
25.286,0.10666666666669825,1.106666666666651,-1.3166666666666746
25.306,0.47,0.8,-1.43
25.326,0.83,0.23,-1.64
25.346,1.11,-0.47,-1.98
25.366,1.23,-1.16,-2.34
25.386,1.18,-1.65,-2.57
25.406,0.97,-2.04,-2.62
25.426000000000002,0.7299999999999289,-2.0199999999999467,-2.549999999999982
25.446,0.45,-1.6,-2.5
25.466,0.23,-0.91,-2.45
25.486,0.13,-0.13399999999998435,-2.413999999999999
25.506,0.19,0.69,-2.42
25.526,0.39,1.26,-2.42
25.546,0.6399999999999645,1.484999999999991,-2.39
25.566,0.9333333333333018,1.4633333333333491,-2.38
25.586000000000002,1.1700000000000355,1.339999999999929,-2.3899999999999824
25.606,1.26,1.0,-2.33
25.626,1.27,0.6266666666666508,-2.173333333333326
25.646,1.2,0.33,-1.89
25.666,1.04,0.11,-1.47
25.686,0.85,0.09,-0.99
25.706,0.53,0.23,-0.51
25.726,0.12666666666669826,0.34999999999997633,-0.07666666666669825
25.746,0.07333333333333508,0.38333333333333247,-0.016666666666668863
25.766000000000002,-0.010000000000012919,0.4300000000000032,0.09000000000001292
25.786,-0.32,0.49,0.58
25.806,-0.4333333333333373,0.13333333333332545,1.3200000000000118
25.826,-0.5240000000000057,-0.04600000000000853,1.5860000000000085
25.846,-0.6800000000000118,-0.1533333333333373,1.8433333333333493
25.866,-0.8533333333333373,-0.17,2.123333333333349
25.886,-0.93,-0.18333333333332544,2.429999999999976
25.906,-0.84,-0.17,2.64
25.926000000000002,-0.7166666666666627,-0.18,2.73
25.946,-0.68,-0.26,2.71
25.966,-0.7533333333333373,-0.4300000000000118,2.6266666666666625
25.986,-0.8920000000000029,-0.6440000000000057,2.507999999999997
26.006,-0.93,-0.8233333333333372,2.4333333333333256
26.026,-0.8233333333333255,-0.8366666666666627,2.3566666666666625
26.046,-0.6960000000000085,-0.6940000000000127,2.256000000000008
26.066,-0.56,-0.41,2.12
26.086000000000002,-0.4649999999999911,-0.004999999999955589,1.9249999999999732
26.106,-0.4833333333333373,0.28000000000001185,1.7099999999999882
26.126,-0.5633333333333373,0.4333333333333373,1.4599999999999882
26.146,-0.66,0.49,1.27
26.166,-0.8266666666666745,0.3966666666666627,1.116666666666663
26.186,-0.935,0.325,1.07
26.206,-0.96,0.29,1.0950000000000002
26.226,-0.9,0.3,1.1433333333333253
26.246,-0.7700000000000237,0.35,1.19
26.266000000000002,-0.5349999999999734,0.3449999999999911,1.22
26.286,-0.2566666666666509,0.20333333333332543,1.1866666666666628
26.306,0.03500000000002665,-0.11000000000003553,1.0049999999999732
26.326,0.2666666666666746,-0.4233333333333491,0.6966666666666509
26.346,0.33666666666666273,-0.7100000000000118,0.33666666666665085
26.366,0.28,-0.8933333333333373,-0.0033333333333491234
26.386,0.24,-0.9450000000000088,-0.27999999999998226
26.406,0.2566666666666746,-0.7466666666666982,-0.4466666666666509
26.426000000000002,0.18499999999999112,-0.3599999999999467,-0.6700000000000355
26.446,0.12,0.1400000000000533,-0.9650000000000266
26.466,0.22000000000001182,0.5200000000000119,-1.3033333333333492
26.486,0.5150000000000444,0.5699999999999823,-1.7400000000000533
26.506,0.8200000000000118,0.27333333333331356,-2.1466666666666865
26.526,0.9966666666666746,-0.20333333333336095,-2.523333333333349
26.546,1.0075000000000045,-0.727499999999969,-2.8599999999999826
26.566,0.8633333333333492,-1.1933333333333016,-3.0633333333333255
26.586000000000002,0.7299999999999645,-1.3400000000000356,-3.09
26.606,0.49999999999998224,-1.2749999999999733,-3.024999999999991
26.626,0.3749999999999911,-0.9449999999999557,-2.99
26.646,0.3633333333333373,-0.43666666666663906,-2.966666666666663
26.666,0.46666666666667456,0.17333333333336096,-2.8533333333333255
26.686,0.62,0.645,-2.6900000000000004
26.706,0.7633333333333373,0.9266666666666745,-2.5666666666666624
26.726,0.8433333333333254,1.01,-2.4833333333333494
26.746,0.9149999999999912,0.9150000000000089,-2.365000000000009
26.766000000000002,0.97,0.7049999999999733,-2.174999999999973
26.786,0.9333333333333255,0.4933333333333254,-1.9699999999999882
26.806,0.7699999999999823,0.4,-1.7649999999999733
26.826,0.545,0.425,-1.48
26.846,0.25,0.51,-1.05
26.866,-0.095,0.505,-0.52
26.886,-0.43333333333330176,0.40666666666667456,0.07666666666660352
26.906,-0.6249999999999911,0.34,0.6649999999999556
26.926000000000002,-0.67,0.34,1.0350000000000268
26.946,-0.69,0.3666666666666627,1.2700000000000118
26.966,-0.7700000000000178,0.2949999999999911,1.4500000000000177
26.986,-0.9100000000000178,0.21499999999999111,1.6200000000000179
27.006,-0.995,0.19,1.8599999999999999
27.026,-1.0766666666666629,0.14333333333333728,2.2899999999999765
27.046,-1.1033333333333373,0.08333333333333728,2.753333333333314
27.066,-1.07,0.015000000000008881,3.054999999999973
27.086000000000002,-1.07,-0.01,3.14
27.106,-1.0433333333333255,-0.04,2.9999999999999765
27.126,-0.9533333333333254,-0.08666666666667455,2.636666666666627
27.146,-0.91,-0.1,2.1699999999999466
27.166,-0.93,-0.016666666666674563,1.8200000000000118
27.186,-0.9766666666666627,0.19333333333332545,1.6733333333333371
27.206,-1.0833333333333255,0.45999999999998814,1.67
27.226,-1.2333333333333254,0.6733333333333255,1.663333333333337
27.246,-1.3633333333333255,0.7966666666666627,1.6133333333333373
27.266000000000002,-1.4146666666666674,0.8153333333333326,1.5553333333333326
27.286,-1.48,0.76,1.44
27.306,-1.4633333333333254,0.6133333333333254,1.38
27.326,-1.3766666666666747,0.47666666666667457,1.4066666666666627
27.346,-1.26,0.33,1.47
27.366,-1.1166666666666747,0.3,1.5766666666666629
27.386,-0.9866666666666746,0.3066666666666627,1.7033333333333254
27.406,-0.9033333333333373,0.34,1.7866666666666629
27.426000000000002,-0.8433333333333254,0.3,1.6766666666666508
27.446,-0.7466666666666508,0.07333333333330175,1.3599999999999526
27.466,-0.64,-0.29,0.79
27.486,-0.5,-0.53,0.1
27.506,-0.36,-0.44,-0.49
27.526,-0.26,-0.24,-1.0
27.546,-0.11,0.06,-1.24
27.566,0.12,0.38,-1.21
27.586000000000002,0.4100000000000473,0.6100000000000355,-1.1199999999999883
27.606,0.79,0.73,-1.06
27.626,1.1500000000000354,0.5499999999999645,-1.1750000000000267
27.646,1.4900000000000237,0.1666666666666272,-1.5333333333333727
27.666,1.6666666666666627,-0.28333333333331356,-1.9633333333333136
27.686,1.67,-0.73,-2.36
27.706,1.5066666666666746,-1.2433333333333136,-2.719999999999988
27.726,1.26,-1.41,-2.84
27.746,0.99,-1.07,-2.76
27.766000000000002,0.7349999999999733,-0.409999999999929,-2.629999999999982
27.786,0.5833333333333254,0.3966666666667456,-2.6
27.806,0.6166666666666746,1.076666666666722,-2.6
27.826,0.78,1.52,-2.56
27.846,0.8000542784163475,1.5500271392081737,-2.559986430395913
27.866,0.8001181353767561,1.550059067688378,-2.559970466155811
27.886,0.8001819923371648,1.5500909961685825,-2.559954501915709
27.906,0.8002458492975735,1.5501229246487866,-2.5599385376756065
27.926000000000002,0.8003097062579821,1.550154853128991,-2.5599225734355047
27.946,0.8003735632183908,1.5501867816091954,-2.5599066091954024
27.966,0.8004374201787995,1.5502187100893998,-2.5598906449553
27.986,0.8005012771392083,1.5502506385696042,-2.559874680715198
28.006,0.8005651340996169,1.5502825670498084,-2.559858716475096
28.026,0.8006289910600256,1.5503144955300128,-2.5598427522349936
28.046,0.8006928480204343,1.5503464240102172,-2.5598267879948913
28.066,0.800756704980843,1.5503783524904216,-2.5598108237547894
28.086000000000002,0.8008205619412516,1.550410280970626,-2.559794859514687
28.106,0.8008844189016603,1.5504422094508301,-2.559778895274585
28.126,0.800948275862069,1.5504741379310345,-2.559762931034483
28.146,0.8010121328224777,1.550506066411239,-2.5597469667943806
28.166,0.8010759897828864,1.5505379948914433,-2.5597310025542783
28.186,0.8011398467432951,1.5505699233716475,-2.5597150383141765
28.206,0.8012037037037038,1.5506018518518518,-2.559699074074074
28.226,0.8012675606641124,1.5506337803320562,-2.559683109833972
28.246,0.8013314176245211,1.5506657088122606,-2.55966714559387
28.266000000000002,0.8013952745849298,1.550697637292465,-2.5596511813537677
28.286,0.8014591315453384,1.5507295657726692,-2.5596352171136654
28.306,0.8015229885057472,1.5507614942528736,-2.559619252873563
28.326,0.8015868454661559,1.550793422733078,-2.559603288633461
28.346,0.8016507024265646,1.5508253512132824,-2.559587324393359
28.366,0.8017145593869732,1.5508572796934865,-2.5595713601532566
28.386,0.8017784163473819,1.550889208173691,-2.5595553959131547
28.406,0.8018422733077906,1.5509211366538953,-2.5595394316730524
28.426000000000002,0.8019061302681992,1.5509530651340997,-2.55952346743295
28.446,0.801969987228608,1.550984993614304,-2.5595075031928483
28.466,0.8020338441890167,1.5510169220945083,-2.559491538952746
28.486,0.8020977011494254,1.5510488505747126,-2.5594755747126436
28.506,0.802161558109834,1.551080779054917,-2.5594596104725413
28.526,0.8022254150702427,1.5511127075351214,-2.5594436462324395
28.546,0.8022892720306514,1.5511446360153258,-2.559427681992337
28.566,0.80235312899106,1.55117656449553,-2.559411717752235
28.586000000000002,0.8024169859514687,1.5512084929757344,-2.559395753512133
28.606,0.8024808429118775,1.5512404214559388,-2.5593797892720307
28.626,0.8025446998722862,1.5512723499361432,-2.5593638250319284
28.646,0.8026085568326948,1.5513042784163473,-2.5593478607918265
28.666,0.8026724137931035,1.5513362068965517,-2.559331896551724
28.686,0.8027362707535122,1.551368135376756,-2.559315932311622
28.706,0.8028001277139208,1.5514000638569605,-2.55929996807152
28.726,0.8028639846743295,1.551431992337165,-2.5592840038314177
28.746,0.8029278416347382,1.551463920817369,-2.5592680395913154
28.766000000000002,0.802991698595147,1.5514958492975734,-2.559252075351213
28.786,0.8030555555555556,1.5515277777777778,-2.5592361111111113
28.806,0.8031194125159643,1.5515597062579822,-2.559220146871009
28.826,0.803183269476373,1.5515916347381864,-2.5592041826309067
28.846,0.8032471264367816,1.5516235632183908,-2.559188218390805
28.866,0.8033109833971903,1.5516554916985952,-2.5591722541507025
28.886,0.803374840357599,1.5516874201787996,-2.5591562899106
28.906,0.8034386973180077,1.551719348659004,-2.5591403256704983
28.926000000000002,0.8035025542784164,1.5517512771392081,-2.559124361430396
28.946,0.8035664112388251,1.5517832056194125,-2.5591083971902937
28.966,0.8036302681992338,1.551815134099617,-2.5590924329501914
28.986,0.8036941251596424,1.5518470625798213,-2.5590764687100895
29.006,0.8037579821200511,1.5518789910600257,-2.5590605044699872
29.026,0.8038218390804598,1.5519109195402299,-2.559044540229885
29.046,0.8038856960408685,1.5519428480204343,-2.559028575989783
29.066,0.8039495530012771,1.5519747765006386,-2.5590126117496808
29.086000000000002,0.8040134099616859,1.552006704980843,-2.5589966475095784
29.106,0.8040772669220946,1.5520386334610472,-2.5589806832694766
29.126,0.8041411238825033,1.5520705619412516,-2.5589647190293743
29.146,0.8042049808429119,1.552102490421456,-2.558948754789272
29.166,0.8042688378033206,1.5521344189016604,-2.5589327905491697
29.186,0.8043326947637293,1.5521663473818648,-2.558916826309068
29.206,0.8043965517241379,1.552198275862069,-2.5589008620689655
29.226,0.8044604086845466,1.5522302043422733,-2.558884897828863
29.246,0.8045242656449554,1.5522621328224777,-2.5588689335887613
29.266000000000002,0.804588122605364,1.552294061302682,-2.558852969348659
29.286,0.8046519795657727,1.5523259897828863,-2.5588370051085567
29.306,0.8047158365261814,1.5523579182630907,-2.558821040868455
29.326,0.8047796934865901,1.552389846743295,-2.5588050766283525
29.346,0.8048435504469987,1.5524217752234994,-2.5587891123882502
29.366,0.8049074074074074,1.5524537037037038,-2.5587731481481484
29.386,0.8049712643678161,1.552485632183908,-2.558757183908046
29.406,0.8050351213282249,1.5525175606641124,-2.5587412196679438
29.426000000000002,0.8050989782886335,1.5525494891443168,-2.5587252554278415
29.446,0.8051628352490422,1.5525814176245212,-2.5587092911877396
29.466,0.8052266922094509,1.5526133461047256,-2.5586933269476373
29.486,0.8052905491698595,1.5526452745849297,-2.558677362707535
29.506,0.8053544061302682,1.5526772030651341,-2.558661398467433
29.526,0.8054182630906769,1.5527091315453385,-2.558645434227331
29.546,0.8054821200510855,1.552741060025543,-2.5586294699872285
29.566,0.8055459770114943,1.552772988505747,-2.5586135057471266
29.586000000000002,0.805609833971903,1.5528049169859515,-2.5585975415070243
29.606,0.8056736909323117,1.5528368454661559,-2.558581577266922
29.626,0.8057375478927203,1.5528687739463602,-2.5585656130268197
29.646,0.805801404853129,1.5529007024265646,-2.558549648786718
29.666,0.8058652618135377,1.5529326309067688,-2.5585336845466156
29.686,0.8059291187739464,1.5529645593869732,-2.5585177203065133
29.706,0.805992975734355,1.5529964878671776,-2.5585017560664114
29.726,0.8060568326947638,1.553028416347382,-2.558485791826309
29.746,0.8061206896551725,1.5530603448275861,-2.558469827586207
29.766000000000002,0.8061845466155811,1.5530922733077905,-2.558453863346105
29.786,0.8062484035759898,1.553124201787995,-2.5584378991060026
29.806,0.8063122605363985,1.5531561302681993,-2.5584219348659003
29.826,0.8063761174968072,1.5531880587484037,-2.5584059706257984
29.846,0.8064399744572158,1.5532199872286079,-2.558390006385696
29.866,0.8065038314176245,1.5532519157088123,-2.558374042145594
29.886,0.8065676883780333,1.5532838441890167,-2.5583580779054915
29.906,0.806631545338442,1.553315772669221,-2.5583421136653897
29.926000000000002,0.8066954022988506,1.5533477011494254,-2.5583261494252874
29.946,0.8067592592592593,1.5533796296296296,-2.558310185185185
29.966,0.806823116219668,1.553411558109834,-2.558294220945083
29.986,0.8068869731800766,1.5534434865900384,-2.558278256704981
30.006,0.8069508301404853,1.5534754150702428,-2.5582622924648786
30.026,0.8070146871008941,1.553507343550447,-2.5582463282247767
30.046,0.8070785440613027,1.5535392720306513,-2.5582303639846744
30.066,0.8071424010217114,1.5535712005108557,-2.558214399744572
30.086000000000002,0.8072062579821201,1.5536031289910601,-2.55819843550447
30.106,0.8072701149425288,1.5536350574712645,-2.558182471264368
30.126,0.8073339719029374,1.5536669859514687,-2.5581665070242656
30.146,0.8073978288633461,1.553698914431673,-2.5581505427841633
30.166,0.8074616858237548,1.5537308429118775,-2.5581345785440615
30.186,0.8075255427841636,1.5537627713920819,-2.558118614303959
30.206,0.8075893997445722,1.553794699872286,-2.558102650063857
30.226,0.8076532567049809,1.5538266283524904,-2.558086685823755
30.246,0.8077171136653896,1.5538585568326948,-2.5580707215836527
30.266000000000002,0.8077809706257982,1.5538904853128992,-2.5580547573435504
30.286,0.8078448275862069,1.5539224137931036,-2.5580387931034485
30.306,0.8079086845466156,1.5539543422733078,-2.558022828863346
30.326,0.8079725415070242,1.5539862707535121,-2.558006864623244
30.346,0.808036398467433,1.5540181992337165,-2.5579909003831416
30.366,0.8081002554278417,1.554050127713921,-2.5579749361430397
30.386,0.8081641123882504,1.5540820561941253,-2.5579589719029374
30.406,0.808227969348659,1.5541139846743295,-2.557943007662835
30.426000000000002,0.8082918263090677,1.5541459131545339,-2.5579270434227332
30.446,0.8083556832694764,1.5541778416347383,-2.557911079182631
30.466,0.808419540229885,1.5542097701149427,-2.5578951149425286
30.486,0.8084833971902937,1.5542416985951468,-2.5578791507024268
30.506,0.8085472541507025,1.5542736270753512,-2.5578631864623245
30.526,0.8086111111111112,1.5543055555555556,-2.557847222222222
30.546,0.8086749680715198,1.55433748403576,-2.55783125798212
30.566,0.8087388250319285,1.5543694125159644,-2.557815293742018
30.586000000000002,0.8088026819923372,1.5544013409961686,-2.5577993295019157
30.606,0.8088665389527459,1.554433269476373,-2.5577833652618134
30.626,0.8089303959131545,1.5544651979565773,-2.5577674010217115
30.646,0.8089942528735632,1.5544971264367817,-2.557751436781609
30.666,0.809058109833972,1.554529054916986,-2.557735472541507
30.686,0.8091219667943806,1.5545609833971903,-2.557719508301405
30.706,0.8091858237547893,1.5545929118773947,-2.5577035440613027
30.726,0.809249680715198,1.554624840357599,-2.5576875798212004
30.746,0.8093135376756067,1.5546567688378035,-2.557671615581098
30.766000000000002,0.8093773946360153,1.5546886973180076,-2.5576556513409963
30.786,0.809441251596424,1.554720625798212,-2.557639687100894
30.806,0.8095051085568328,1.5547525542784164,-2.5576237228607916
30.826,0.8095689655172414,1.5547844827586208,-2.55760775862069
30.846,0.8096328224776501,1.554816411238825,-2.5575917943805875
30.866,0.8096966794380588,1.5548483397190294,-2.557575830140485
30.886,0.8097605363984675,1.5548802681992338,-2.5575598659003833
30.906,0.8098243933588761,1.5549121966794381,-2.557543901660281
30.926000000000002,0.8098882503192848,1.5549441251596425,-2.5575279374201787
30.946,0.8099521072796935,1.5549760536398467,-2.557511973180077
30.966,0.8100159642401022,1.555007982120051,-2.5574960089399745
30.986,0.8100798212005109,1.5550399106002555,-2.5574800446998722
31.006,0.8101436781609196,1.5550718390804599,-2.55746408045977
31.026,0.8102075351213283,1.5551037675606643,-2.557448116219668
31.046,0.8102713920817369,1.5551356960408684,-2.5574321519795657
31.066,0.8103352490421456,1.5551676245210728,-2.5574161877394634
31.086000000000002,0.8103991060025543,1.5551995530012772,-2.5574002234993616
31.106,0.8104629629629629,1.5552314814814816,-2.5573842592592593
31.126,0.8105268199233717,1.5552634099616858,-2.557368295019157
31.146,0.8105906768837804,1.5552953384418902,-2.557352330779055
31.166,0.8106545338441891,1.5553272669220946,-2.557336366538953
31.186,0.8107183908045977,1.555359195402299,-2.5573204022988505
31.206,0.8107822477650064,1.5553911238825033,-2.557304438058748
31.226,0.8108461047254151,1.5554230523627075,-2.5572884738186463
31.246000000000002,0.8109099616858237,1.555454980842912,-2.557272509578544
31.266000000000002,0.8109738186462324,1.5554869093231163,-2.5572565453384417
31.286,0.8110376756066412,1.5555188378033207,-2.55724058109834
31.306,0.8111015325670499,1.5555507662835248,-2.5572246168582375
31.326,0.8111653895274585,1.5555826947637292,-2.5572086526181352
31.346,0.8112292464878672,1.5556146232439336,-2.5571926883780334
31.366,0.8112931034482759,1.555646551724138,-2.557176724137931
31.386,0.8113569604086845,1.5556784802043424,-2.5571607598978288
31.406,0.8114208173690932,1.5557104086845466,-2.557144795657727
31.426000000000002,0.8114846743295019,1.555742337164751,-2.5571288314176246
31.446,0.8115485312899107,1.5557742656449554,-2.5571128671775223
31.466,0.8116123882503193,1.5558061941251597,-2.55709690293742
31.486,0.811676245210728,1.5558381226053641,-2.557080938697318
31.506,0.8117401021711367,1.5558700510855683,-2.557064974457216
31.526,0.8118039591315453,1.5559019795657727,-2.5570490102171135
31.546,0.811867816091954,1.555933908045977,-2.5570330459770116
31.566,0.8119316730523627,1.5559658365261815,-2.5570170817369093
31.586000000000002,0.8119955300127715,1.5559977650063856,-2.557001117496807
31.606,0.8120593869731801,1.55602969348659,-2.556985153256705
31.626,0.8121232439335888,1.5560616219667944,-2.556969189016603
31.646,0.8121871008939975,1.5560935504469988,-2.5569532247765006
31.666,0.8122509578544062,1.5561254789272032,-2.5569372605363982
31.686,0.8123148148148148,1.5561574074074074,-2.5569212962962964
31.706,0.8123786717752235,1.5561893358876118,-2.556905332056194
31.726,0.8124425287356322,1.5562212643678162,-2.5568893678160918
31.746000000000002,0.812506385696041,1.5562531928480206,-2.55687340357599
31.766000000000002,0.8125702426564496,1.5562851213282247,-2.5568574393358876
31.786,0.8126340996168583,1.556317049808429,-2.5568414750957853
31.806,0.812697956577267,1.5563489782886335,-2.5568255108556834
31.826,0.8127618135376756,1.556380906768838,-2.556809546615581
31.846,0.8128256704980843,1.5564128352490423,-2.556793582375479
31.866,0.812889527458493,1.5564447637292464,-2.5567776181353765
31.886,0.8129533844189016,1.5564766922094508,-2.5567616538952747
31.906,0.8130172413793103,1.5565086206896552,-2.5567456896551723
31.926000000000002,0.8130810983397191,1.5565405491698596,-2.55672972541507
31.946,0.8131449553001278,1.556572477650064,-2.556713761174968
31.966,0.8132088122605364,1.5566044061302682,-2.556697796934866
31.986,0.8132726692209451,1.5566363346104726,-2.5566818326947636
32.006,0.8133365261813538,1.556668263090677,-2.5566658684546617
32.026,0.8134003831417624,1.5567001915708814,-2.5566499042145594
32.04600000000001,0.8134642401021712,1.5567321200510855,-2.556633939974457
32.066,0.8135280970625799,1.55676404853129,-2.5566179757343552
32.086000000000006,0.8135919540229886,1.5567959770114943,-2.556602011494253
32.106,0.8136558109833972,1.5568279054916987,-2.5565860472541506
32.126000000000005,0.8137196679438059,1.556859833971903,-2.5565700830140483
32.146,0.8137835249042146,1.5568917624521073,-2.5565541187739464
32.166000000000004,0.8138473818646232,1.5569236909323116,-2.556538154533844
32.18600000000001,0.813911238825032,1.556955619412516,-2.556522190293742
32.206,0.8139750957854406,1.5569875478927204,-2.55650622605364
32.226000000000006,0.8140389527458494,1.5570194763729248,-2.5564902618135377
32.246,0.814102809706258,1.557051404853129,-2.5564742975734354
32.266000000000005,0.8141666666666667,1.5570833333333334,-2.5564583333333335
32.286,0.8142305236270754,1.5571152618135378,-2.556442369093231
32.306000000000004,0.814294380587484,1.5571471902937422,-2.556426404853129
32.326,0.8143582375478927,1.5571791187739463,-2.5564104406130266
32.346000000000004,0.8144220945083014,1.5572110472541507,-2.5563944763729247
32.36600000000001,0.8144859514687102,1.557242975734355,-2.5563785121328224
32.386,0.8145498084291188,1.5572749042145595,-2.55636254789272
32.406000000000006,0.8146136653895275,1.5573068326947639,-2.5563465836526182
32.426,0.8146775223499362,1.557338761174968,-2.556330619412516
32.446000000000005,0.8147413793103448,1.5573706896551724,-2.5563146551724136
32.466,0.8148052362707535,1.5574026181353768,-2.5562986909323118
32.486000000000004,0.8148690932311622,1.5574345466155812,-2.5562827266922095
32.50600000000001,0.814932950191571,1.5574664750957854,-2.556266762452107
32.526,0.8149968071519796,1.5574984035759898,-2.5562507982120053
32.54600000000001,0.8150606641123883,1.5575303320561942,-2.556234833971903
32.566,0.815124521072797,1.5575622605363986,-2.5562188697318007
32.586000000000006,0.8151883780332057,1.557594189016603,-2.5562029054916984
32.606,0.8152522349936143,1.5576261174968071,-2.5561869412515965
32.626000000000005,0.815316091954023,1.5576580459770115,-2.556170977011494
32.646,0.8153799489144317,1.557689974457216,-2.556155012771392
32.666000000000004,0.8154438058748403,1.5577219029374203,-2.55613904853129
32.68600000000001,0.8155076628352491,1.5577538314176247,-2.5561230842911877
32.706,0.8155715197956578,1.5577857598978289,-2.5561071200510854
32.726000000000006,0.8156353767560665,1.5578176883780332,-2.5560911558109836
32.746,0.8156992337164751,1.5578496168582376,-2.5560751915708813
32.766000000000005,0.8157630906768838,1.557881545338442,-2.556059227330779
32.786,0.8158269476372925,1.5579134738186462,-2.5560432630906766
32.806000000000004,0.8158908045977011,1.5579454022988506,-2.556027298850575
32.826,0.8159546615581098,1.557977330779055,-2.5560113346104725
32.846000000000004,0.8160185185185186,1.5580092592592594,-2.55599537037037
32.86600000000001,0.8160823754789273,1.5580411877394638,-2.5559794061302683
32.886,0.8161462324393359,1.558073116219668,-2.555963441890166
32.906000000000006,0.8162100893997446,1.5581050446998723,-2.5559474776500637
32.926,0.8162739463601533,1.5581369731800767,-2.555931513409962
32.946000000000005,0.8163378033205619,1.558168901660281,-2.5559155491698595
32.966,0.8164016602809706,1.5582008301404853,-2.555899584929757
32.986000000000004,0.8164655172413793,1.5582327586206897,-2.555883620689655
33.00600000000001,0.8165293742017881,1.558264687100894,-2.555867656449553
33.026,0.8165932311621967,1.5582966155810984,-2.5558516922094507
33.04600000000001,0.8166570881226054,1.5583285440613028,-2.5558357279693484
33.066,0.8167209450830141,1.558360472541507,-2.5558197637292466
33.086000000000006,0.8167848020434227,1.5583924010217114,-2.5558037994891443
33.106,0.8168486590038314,1.5584243295019158,-2.555787835249042
33.126000000000005,0.8169125159642401,1.5584562579821202,-2.55577187100894
33.146,0.8169763729246488,1.5584881864623243,-2.555755906768838
33.166000000000004,0.8170402298850575,1.5585201149425287,-2.5557399425287355
33.18600000000001,0.8171040868454662,1.5585520434227331,-2.5557239782886336
33.206,0.8171679438058749,1.5585839719029375,-2.5557080140485313
33.226000000000006,0.8172318007662835,1.558615900383142,-2.555692049808429
33.246,0.8172956577266922,1.558647828863346,-2.5556760855683267
33.266000000000005,0.8173595146871009,1.5586797573435505,-2.555660121328225
33.286,0.8174233716475096,1.5587116858237549,-2.5556441570881225
33.306000000000004,0.8174872286079183,1.5587436143039592,-2.5556281928480202
33.326,0.817551085568327,1.5587755427841636,-2.5556122286079184
33.346000000000004,0.8176149425287357,1.5588074712643678,-2.555596264367816
33.36600000000001,0.8176787994891443,1.5588393997445722,-2.5555803001277138
33.386,0.817742656449553,1.5588713282247766,-2.555564335887612
33.406000000000006,0.8178065134099617,1.558903256704981,-2.5555483716475096
33.426,0.8178703703703704,1.5589351851851851,-2.5555324074074073
33.446000000000005,0.817934227330779,1.5589671136653895,-2.555516443167305
33.466,0.8179980842911877,1.558999042145594,-2.555500478927203
33.486000000000004,0.8180619412515965,1.5590309706257983,-2.555484514687101
33.50600000000001,0.8181257982120052,1.5590628991060027,-2.5554685504469985
33.526,0.8181896551724138,1.5590948275862069,-2.5554525862068966
33.54600000000001,0.8182535121328225,1.5591267560664113,-2.5554366219667943
33.566,0.8183173690932312,1.5591586845466157,-2.555420657726692
33.586000000000006,0.8183812260536398,1.55919061302682,-2.55540469348659
33.606,0.8184450830140485,1.5592225415070242,-2.555388729246488
33.626000000000005,0.8185089399744573,1.5592544699872286,-2.5553727650063855
33.646,0.818572796934866,1.559286398467433,-2.5553568007662837
33.666000000000004,0.8186366538952746,1.5593183269476374,-2.5553408365261814
33.68600000000001,0.8187005108556833,1.5593502554278418,-2.555324872286079
33.706,0.818764367816092,1.559382183908046,-2.5553089080459768
33.726000000000006,0.8188282247765006,1.5594141123882503,-2.555292943805875
33.746,0.8188920817369093,1.5594460408684547,-2.5552769795657726
33.766000000000005,0.818955938697318,1.5594779693486591,-2.5552610153256703
33.786,0.8190197956577268,1.5595098978288635,-2.5552450510855684
33.806000000000004,0.8190836526181354,1.5595418263090677,-2.555229086845466
33.826,0.8191475095785441,1.559573754789272,-2.555213122605364
33.846000000000004,0.8192113665389528,1.5596056832694765,-2.555197158365262
33.86600000000001,0.8192752234993614,1.5596376117496809,-2.5551811941251596
33.886,0.8193390804597701,1.559669540229885,-2.5551652298850573
33.906000000000006,0.8194029374201788,1.5597014687100894,-2.555149265644955
33.926,0.8194667943805874,1.5597333971902938,-2.555133301404853
33.946000000000005,0.8195306513409962,1.5597653256704982,-2.555117337164751
33.966,0.8195945083014049,1.5597972541507026,-2.5551013729246486
33.986000000000004,0.8196583652618136,1.5598291826309068,-2.5550854086845467
34.00600000000001,0.8197222222222222,1.5598611111111111,-2.5550694444444444
34.026,0.8197860791826309,1.5598930395913155,-2.555053480204342
34.04600000000001,0.8198499361430396,1.55992496807152,-2.5550375159642402
34.066,0.8199137931034483,1.559956896551724,-2.555021551724138
34.086000000000006,0.819977650063857,1.5599888250319285,-2.5550055874840356
34.106,0.8200415070242657,1.5600207535121329,-2.5549896232439333
34.126000000000005,0.8201053639846744,1.5600526819923373,-2.5549736590038314
34.146,0.820169220945083,1.5600846104725417,-2.554957694763729
34.166000000000004,0.8202330779054917,1.5601165389527458,-2.554941730523627
34.18600000000001,0.8202969348659004,1.5601484674329502,-2.554925766283525
34.206,0.820360791826309,1.5601803959131546,-2.5549098020434227
34.226000000000006,0.8204246487867177,1.560212324393359,-2.5548938378033204
34.246,0.8204885057471264,1.5602442528735634,-2.5548778735632185
34.266000000000005,0.8205523627075352,1.5602761813537676,-2.554861909323116
34.286,0.8206162196679438,1.560308109833972,-2.554845945083014
34.306000000000004,0.8206800766283525,1.5603400383141763,-2.554829980842912
34.32600000000001,0.8207439335887612,1.5603719667943807,-2.5548140166028097
34.346000000000004,0.8208077905491699,1.560403895274585,-2.5547980523627074
34.36600000000001,0.8208716475095785,1.5604358237547893,-2.554782088122605
34.386,0.8209355044699872,1.5604677522349937,-2.5547661238825032
34.406000000000006,0.820999361430396,1.560499680715198,-2.554750159642401
34.426,0.8210632183908046,1.5605316091954025,-2.5547341954022986
34.446000000000005,0.8211270753512133,1.5605635376756066,-2.5547182311621968
34.466,0.821190932311622,1.560595466155811,-2.5547022669220945
34.486000000000004,0.8212547892720307,1.5606273946360154,-2.554686302681992
34.50600000000001,0.8213186462324393,1.5606593231162198,-2.5546703384418903
34.526,0.821382503192848,1.560691251596424,-2.554654374201788
34.54600000000001,0.8214463601532567,1.5607231800766284,-2.5546384099616857
34.566,0.8215102171136655,1.5607551085568327,-2.5546224457215834
34.586000000000006,0.8215740740740741,1.5607870370370371,-2.5546064814814815
34.606,0.8216379310344828,1.5608189655172415,-2.554590517241379
34.626000000000005,0.8217017879948915,1.5608508939974457,-2.554574553001277
34.646,0.8217656449553001,1.56088282247765,-2.554558588761175
34.666000000000004,0.8218295019157088,1.5609147509578545,-2.5545426245210727
34.68600000000001,0.8218933588761175,1.5609466794380589,-2.5545266602809704
34.706,0.8219572158365261,1.5609786079182633,-2.5545106960408686
34.726000000000006,0.8220210727969349,1.5610105363984674,-2.5544947318007662
34.746,0.8220849297573436,1.5610424648786718,-2.554478767560664
34.766000000000005,0.8221487867177523,1.5610743933588762,-2.554462803320562
34.786,0.8222126436781609,1.5611063218390806,-2.5544468390804598
34.806000000000004,0.8222765006385696,1.5611382503192848,-2.5544308748403575
34.82600000000001,0.8223403575989783,1.5611701787994892,-2.554414910600255
34.846000000000004,0.822404214559387,1.5612021072796936,-2.5543989463601533
34.86600000000001,0.8224680715197957,1.561234035759898,-2.554382982120051
34.886,0.8225319284802044,1.5612659642401023,-2.5543670178799487
34.906000000000006,0.8225957854406131,1.5612978927203065,-2.554351053639847
34.926,0.8226596424010217,1.561329821200511,-2.5543350893997445
34.946000000000005,0.8227234993614304,1.5613617496807153,-2.554319125159642
34.966,0.8227873563218391,1.5613936781609197,-2.5543031609195403
34.986000000000004,0.8228512132822478,1.5614256066411238,-2.554287196679438
35.00600000000001,0.8229150702426564,1.5614575351213282,-2.5542712324393357
35.026,0.8229789272030651,1.5614894636015326,-2.5542552681992334
35.04600000000001,0.8230427841634739,1.561521392081737,-2.5542393039591316
35.066,0.8231066411238825,1.5615533205619414,-2.5542233397190293
35.086000000000006,0.8231704980842912,1.5615852490421456,-2.554207375478927
35.106,0.8232343550446999,1.56161717752235,-2.554191411238825
35.126000000000005,0.8232982120051086,1.5616491060025544,-2.554175446998723
35.146,0.8233620689655172,1.5616810344827587,-2.5541594827586205
35.166000000000004,0.8234259259259259,1.5617129629629631,-2.5541435185185186
35.18600000000001,0.8234897828863347,1.5617448914431673,-2.5541275542784163
35.206,0.8235536398467433,1.5617768199233717,-2.554111590038314
35.226000000000006,0.823617496807152,1.561808748403576,-2.5540956257982117
35.246,0.8236813537675607,1.5618406768837805,-2.55407966155811
35.266000000000005,0.8237452107279694,1.5618726053639846,-2.5540636973180075
35.286,0.823809067688378,1.561904533844189,-2.5540477330779052
35.306000000000004,0.8238729246487867,1.5619364623243934,-2.5540317688378034
35.32600000000001,0.8239367816091954,1.5619683908045978,-2.554015804597701
35.346000000000004,0.8240006385696041,1.5620003192848022,-2.5539998403575987
35.36600000000001,0.8240644955300128,1.5620322477650064,-2.553983876117497
35.386,0.8241283524904215,1.5620641762452108,-2.5539679118773946
35.406000000000006,0.8241922094508302,1.5620961047254152,-2.5539519476372923
35.426,0.8242560664112388,1.5621280332056195,-2.5539359833971904
35.446000000000005,0.8243199233716475,1.5621599616858237,-2.553920019157088
35.466,0.8243837803320562,1.562191890166028,-2.553904054916986
35.486000000000004,0.8244476372924648,1.5622238186462325,-2.5538880906768835
35.50600000000001,0.8245114942528736,1.5622557471264369,-2.5538721264367816
35.526,0.8245753512132823,1.5622876756066413,-2.5538561621966793
35.54600000000001,0.824639208173691,1.5623196040868454,-2.553840197956577
35.566,0.8247030651340996,1.5623515325670498,-2.553824233716475
35.586000000000006,0.8247669220945083,1.5623834610472542,-2.553808269476373
35.606,0.824830779054917,1.5624153895274586,-2.5537923052362705
35.626000000000005,0.8248946360153256,1.5624473180076628,-2.5537763409961687
35.646,0.8249584929757343,1.5624792464878672,-2.5537603767560664
35.666000000000004,0.8250223499361431,1.5625111749680716,-2.553744412515964
35.68600000000001,0.8250862068965518,1.562543103448276,-2.5537284482758618
35.706,0.8251500638569604,1.5625750319284804,-2.55371248403576
35.726000000000006,0.8252139208173691,1.5626069604086845,-2.5536965197956576
35.746,0.8252777777777778,1.562638888888889,-2.5536805555555553
35.766000000000005,0.8253416347381864,1.5626708173690933,-2.5536645913154534
35.786,0.8254054916985951,1.5627027458492977,-2.553648627075351
35.806000000000004,0.8254693486590038,1.562734674329502,-2.553632662835249
35.82600000000001,0.8255332056194126,1.5627666028097063,-2.553616698595147
35.846000000000004,0.8255970625798212,1.5627985312899106,-2.5536007343550446
35.86600000000001,0.8256609195402299,1.562830459770115,-2.5535847701149423
35.886,0.8257247765006386,1.5628623882503194,-2.5535688058748405
35.906000000000006,0.8257886334610473,1.5628943167305236,-2.553552841634738
35.926,0.8258524904214559,1.562926245210728,-2.553536877394636
35.946000000000005,0.8259163473818646,1.5629581736909324,-2.5535209131545336
35.966,0.8259802043422733,1.5629901021711368,-2.5535049489144317
35.986000000000004,0.826044061302682,1.5630220306513412,-2.5534889846743294
36.00600000000001,0.8261079182630907,1.5630539591315453,-2.553473020434227
36.026,0.8261717752234994,1.5630858876117497,-2.553457056194125
36.04600000000001,0.826235632183908,1.563117816091954,-2.553441091954023
36.066,0.8262994891443167,1.5631497445721585,-2.5534251277139206
36.086000000000006,0.8263633461047254,1.5631816730523627,-2.5534091634738187
36.106,0.8264272030651341,1.563213601532567,-2.5533931992337164
36.126000000000005,0.8264910600255428,1.5632455300127714,-2.553377234993614
36.146,0.8265549169859515,1.5632774584929758,-2.553361270753512
36.166000000000004,0.8266187739463602,1.5633093869731802,-2.55334530651341
36.18600000000001,0.8266826309067689,1.5633413154533844,-2.5533293422733077
36.206,0.8267464878671775,1.5633732439335888,-2.5533133780332053
36.226000000000006,0.8268103448275862,1.5634051724137932,-2.5532974137931035
36.246,0.8268742017879949,1.5634371008939976,-2.553281449553001
36.266000000000005,0.8269380587484035,1.563469029374202,-2.553265485312899
36.286,0.8270019157088122,1.5635009578544061,-2.553249521072797
36.306000000000004,0.827065772669221,1.5635328863346105,-2.5532335568326947
36.32600000000001,0.8271296296296297,1.563564814814815,-2.5532175925925924
36.346000000000004,0.8271934865900383,1.5635967432950193,-2.55320162835249
36.36600000000001,0.827257343550447,1.5636286717752235,-2.5531856641123882
36.386,0.8273212005108557,1.5636606002554279,-2.553169699872286
36.406000000000006,0.8273850574712643,1.5636925287356322,-2.5531537356321836
36.426,0.827448914431673,1.5637244572158366,-2.5531377713920818
36.446000000000005,0.8275127713920818,1.563756385696041,-2.5531218071519794
36.466,0.8275766283524905,1.5637883141762452,-2.553105842911877
36.486000000000004,0.8276404853128991,1.5638202426564496,-2.5530898786717753
36.50600000000001,0.8277043422733078,1.563852171136654,-2.553073914431673
36.526,0.8277681992337165,1.5638840996168584,-2.5530579501915707
36.54600000000001,0.8278320561941251,1.5639160280970625,-2.553041985951469
36.566,0.8278959131545338,1.563947956577267,-2.5530260217113665
36.586000000000006,0.8279597701149426,1.5639798850574713,-2.553010057471264
36.606,0.8280236270753512,1.5640118135376757,-2.552994093231162
36.626000000000005,0.8280874840357599,1.56404374201788,-2.55297812899106
36.646,0.8281513409961686,1.5640756704980843,-2.5529621647509577
36.666000000000004,0.8282151979565773,1.5641075989782887,-2.5529462005108554
36.68600000000001,0.828279054916986,1.564139527458493,-2.5529302362707536
36.706,0.8283429118773946,1.5641714559386974,-2.5529142720306512
36.726000000000006,0.8284067688378033,1.5642033844189018,-2.552898307790549
36.746,0.828470625798212,1.564235312899106,-2.552882343550447
36.766000000000005,0.8285344827586207,1.5642672413793104,-2.5528663793103448
36.786,0.8285983397190294,1.5642991698595148,-2.5528504150702425
36.806000000000004,0.8286621966794381,1.5643310983397192,-2.55283445083014
36.82600000000001,0.8287260536398467,1.5643630268199233,-2.5528184865900383
36.846000000000004,0.8287899106002554,1.5643949553001277,-2.552802522349936
36.86600000000001,0.8288537675606641,1.5644268837803321,-2.5527865581098337
36.886,0.8289176245210728,1.5644588122605365,-2.552770593869732
36.906000000000006,0.8289814814814815,1.564490740740741,-2.5527546296296295
36.926,0.8290453384418902,1.564522669220945,-2.552738665389527
36.946000000000005,0.8291091954022989,1.5645545977011495,-2.5527227011494253
36.966,0.8291730523627076,1.5645865261813539,-2.552706736909323
36.986000000000004,0.8292369093231162,1.5646184546615582,-2.5526907726692207
37.00600000000001,0.8293007662835249,1.5646503831417624,-2.552674808429119
37.026,0.8293646232439336,1.5646823116219668,-2.5526588441890166
37.04600000000001,0.8294284802043422,1.5647142401021712,-2.5526428799489143
37.066,0.8294923371647509,1.5647461685823756,-2.552626915708812
37.086000000000006,0.8295561941251597,1.56477809706258,-2.55261095146871
37.106,0.8296200510855684,1.5648100255427841,-2.552594987228608
37.126000000000005,0.829683908045977,1.5648419540229885,-2.5525790229885055
37.146,0.8297477650063857,1.564873882503193,-2.5525630587484036
37.166000000000004,0.8298116219667944,1.5649058109833973,-2.5525470945083013
37.18600000000001,0.829875478927203,1.5649377394636017,-2.552531130268199
37.206,0.8299393358876117,1.5649696679438059,-2.552515166028097
37.226000000000006,0.8300031928480205,1.5650015964240103,-2.552499201787995
37.246,0.8300670498084292,1.5650335249042147,-2.5524832375478925
37.266000000000005,0.8301309067688378,1.565065453384419,-2.55246727330779
37.286,0.8301947637292465,1.5650973818646232,-2.5524513090676884
37.306000000000004,0.8302586206896552,1.5651293103448276,-2.552435344827586
37.32600000000001,0.8303224776500638,1.565161238825032,-2.5524193805874837
37.346000000000004,0.8303863346104725,1.5651931673052364,-2.552403416347382
37.36600000000001,0.8304501915708813,1.5652250957854408,-2.5523874521072796
37.386,0.8305140485312899,1.565257024265645,-2.5523714878671773
37.406000000000006,0.8305779054916986,1.5652889527458493,-2.5523555236270754
37.426,0.8306417624521073,1.5653208812260537,-2.552339559386973
37.446000000000005,0.830705619412516,1.5653528097062581,-2.552323595146871
37.466,0.8307694763729246,1.5653847381864623,-2.552307630906769
37.486000000000004,0.8308333333333333,1.5654166666666667,-2.5522916666666666
37.50600000000001,0.830897190293742,1.565448595146871,-2.5522757024265643
37.526,0.8309610472541507,1.5654805236270755,-2.552259738186462
37.54600000000001,0.8310249042145594,1.5655124521072799,-2.55224377394636
37.566,0.8310887611749681,1.565544380587484,-2.552227809706258
37.586000000000006,0.8311526181353768,1.5655763090676884,-2.5522118454661555
37.606,0.8312164750957854,1.5656082375478928,-2.5521958812260537
37.626000000000005,0.8312803320561941,1.5656401660280972,-2.5521799169859514
37.646,0.8313441890166028,1.5656720945083014,-2.552163952745849
37.666000000000004,0.8314080459770115,1.5657040229885058,-2.552147988505747
37.68600000000001,0.8314719029374202,1.5657359514687101,-2.552132024265645
37.706,0.8315357598978289,1.5657678799489145,-2.5521160600255426
37.726000000000006,0.8315996168582376,1.565799808429119,-2.5521000957854403
37.746,0.8316634738186462,1.565831736909323,-2.5520841315453384
37.766000000000005,0.8317273307790549,1.5658636653895275,-2.552068167305236
37.786,0.8317911877394636,1.5658955938697319,-2.552052203065134
37.806000000000004,0.8318550446998723,1.5659275223499363,-2.552036238825032
37.82600000000001,0.8319189016602809,1.5659594508301407,-2.5520202745849296
37.846000000000004,0.8319827586206896,1.5659913793103448,-2.5520043103448273
37.86600000000001,0.8320466155810984,1.5660233077905492,-2.5519883461047255
37.886,0.832110472541507,1.5660552362707536,-2.551972381864623
37.906000000000006,0.8321743295019157,1.566087164750958,-2.551956417624521
37.926,0.8322381864623244,1.5661190932311622,-2.5519404533844186
37.946000000000005,0.8323020434227331,1.5661510217113666,-2.5519244891443167
37.966,0.8323659003831417,1.566182950191571,-2.5519085249042144
37.986000000000004,0.8324297573435504,1.5662148786717753,-2.551892560664112
38.00600000000001,0.8324936143039592,1.5662468071519797,-2.55187659642401
38.026,0.8325574712643679,1.566278735632184,-2.551860632183908
38.04600000000001,0.8326213282247765,1.5663106641123883,-2.5518446679438056
38.066,0.8326851851851852,1.5663425925925927,-2.5518287037037037
38.086000000000006,0.8327490421455939,1.566374521072797,-2.5518127394636014
38.106,0.8328128991060025,1.5664064495530012,-2.551796775223499
38.126000000000005,0.8328767560664112,1.5664383780332056,-2.5517808109833973
38.146,0.8329406130268199,1.56647030651341,-2.551764846743295
38.166000000000004,0.8330044699872285,1.5665022349936144,-2.5517488825031927
38.18600000000001,0.8330683269476373,1.5665341634738188,-2.5517329182630903
38.206,0.833132183908046,1.566566091954023,-2.5517169540229885
38.226000000000006,0.8331960408684547,1.5665980204342274,-2.551700989782886
38.246,0.8332598978288633,1.5666299489144317,-2.551685025542784
38.266000000000005,0.833323754789272,1.5666618773946361,-2.551669061302682
38.286,0.8333876117496807,1.5666938058748405,-2.5516530970625797
38.306000000000004,0.8334514687100893,1.5667257343550447,-2.5516371328224774
38.32600000000001,0.8335153256704981,1.566757662835249,-2.5516211685823755
38.346000000000004,0.8335791826309068,1.5667895913154535,-2.5516052043422732
38.36600000000001,0.8336430395913155,1.5668215197956579,-2.551589240102171
38.386,0.8337068965517241,1.566853448275862,-2.5515732758620686
38.406000000000006,0.8337707535121328,1.5668853767560664,-2.5515573116219668
38.426,0.8338346104725415,1.5669173052362708,-2.5515413473818644
38.446000000000005,0.8338984674329502,1.5669492337164752,-2.551525383141762
38.466,0.8339623243933588,1.5669811621966796,-2.5515094189016603
38.486000000000004,0.8340261813537676,1.5670130906768838,-2.551493454661558
38.50600000000001,0.8340900383141763,1.5670450191570882,-2.5514774904214557
38.526,0.8341538952745849,1.5670769476372925,-2.551461526181354
38.54600000000001,0.8342177522349936,1.567108876117497,-2.5514455619412515
38.566,0.8342816091954023,1.567140804597701,-2.551429597701149
38.586000000000006,0.834345466155811,1.5671727330779055,-2.5514136334610473
38.606,0.8344093231162196,1.56720466155811,-2.551397669220945
38.626000000000005,0.8344731800766283,1.5672365900383143,-2.5513817049808427
38.646,0.8345370370370371,1.5672685185185187,-2.5513657407407404
38.666000000000004,0.8346008939974457,1.5673004469987228,-2.5513497765006385
38.68600000000001,0.8346647509578544,1.5673323754789272,-2.5513338122605362
38.706,0.8347286079182631,1.5673643039591316,-2.551317848020434
38.726000000000006,0.8347924648786718,1.567396232439336,-2.551301883780332
38.746,0.8348563218390804,1.5674281609195404,-2.5512859195402298
38.766000000000005,0.8349201787994891,1.5674600893997446,-2.5512699553001275
38.786,0.8349840357598978,1.567492017879949,-2.5512539910600256
38.806000000000004,0.8350478927203066,1.5675239463601534,-2.5512380268199233
38.82600000000001,0.8351117496807152,1.5675558748403577,-2.551222062579821
38.846000000000004,0.8351756066411239,1.567587803320562,-2.5512060983397187
38.86600000000001,0.8352394636015326,1.5676197318007663,-2.551190134099617
38.886,0.8353033205619412,1.5676516602809707,-2.5511741698595145
38.906000000000006,0.8353671775223499,1.567683588761175,-2.551158205619412
38.926,0.8354310344827586,1.5677155172413795,-2.5511422413793103
38.946000000000005,0.8354948914431672,1.5677474457215836,-2.551126277139208
38.966,0.835558748403576,1.567779374201788,-2.5511103128991057
38.986000000000004,0.8356226053639847,1.5678113026819924,-2.551094348659004
39.00600000000001,0.8356864623243934,1.5678432311621968,-2.5510783844189016
39.026,0.835750319284802,1.567875159642401,-2.5510624201787993
39.04600000000001,0.8358141762452107,1.5679070881226054,-2.551046455938697
39.066,0.8358780332056194,1.5679390166028098,-2.551030491698595
39.086000000000006,0.835941890166028,1.5679709450830142,-2.5510145274584928
39.106,0.8360057471264367,1.5680028735632185,-2.5509985632183905
39.126000000000005,0.8360696040868455,1.5680348020434227,-2.5509825989782886
39.146,0.8361334610472542,1.568066730523627,-2.5509666347381863
39.166000000000004,0.8361973180076628,1.5680986590038315,-2.550950670498084
39.18600000000001,0.8362611749680715,1.5681305874840359,-2.550934706257982
39.206,0.8363250319284802,1.5681625159642403,-2.55091874201788
39.226000000000006,0.8363888888888888,1.5681944444444444,-2.5509027777777775
39.246,0.8364527458492975,1.5682263729246488,-2.5508868135376757
39.266000000000005,0.8365166028097063,1.5682583014048532,-2.5508708492975734
39.286,0.836580459770115,1.5682902298850576,-2.550854885057471
39.306000000000004,0.8366443167305236,1.5683221583652618,-2.5508389208173687
39.32600000000001,0.8367081736909323,1.5683540868454662,-2.550822956577267
39.346000000000004,0.836772030651341,1.5683860153256706,-2.5508069923371646
39.36600000000001,0.8368358876117497,1.568417943805875,-2.5507910280970623
39.386,0.8368997445721583,1.5684498722860793,-2.5507750638569604
39.406000000000006,0.836963601532567,1.5684818007662835,-2.550759099616858
39.426,0.8370274584929758,1.568513729246488,-2.550743135376756
39.446000000000005,0.8370913154533844,1.5685456577266923,-2.550727171136654
39.466,0.8371551724137931,1.5685775862068967,-2.5507112068965516
39.486000000000004,0.8372190293742018,1.5686095146871009,-2.5506952426564493
39.50600000000001,0.8372828863346105,1.5686414431673052,-2.550679278416347
39.526,0.8373467432950191,1.5686733716475096,-2.550663314176245
39.54600000000001,0.8374106002554278,1.568705300127714,-2.550647349936143
39.566,0.8374744572158365,1.5687372286079184,-2.5506313856960405
39.586000000000006,0.8375383141762452,1.5687691570881226,-2.5506154214559387
39.606,0.8376021711366539,1.568801085568327,-2.5505994572158364
39.626000000000005,0.8376660280970626,1.5688330140485314,-2.550583492975734
39.646,0.8377298850574713,1.5688649425287358,-2.550567528735632
39.666000000000004,0.8377937420178799,1.5688968710089402,-2.55055156449553
39.68600000000001,0.8378575989782886,1.5689287994891443,-2.5505356002554276
