timestamp,gyro_x,gyro_y,gyro_z
0.023,-2.04,0.04,-1.12
0.043,-2.0475,-1.495,-1.2925
0.063,-1.85,-1.2966666666666666,-1.11
0.08299999999999999,-1.3200000000000005,-0.8000000000000007,-1.01
0.10299999999999998,-0.962857142857143,-0.2914285714285716,-1.01
0.12299999999999997,-0.43571428571428583,0.4328571428571427,-0.9842857142857142
0.143,0.01,0.83,-0.97
0.16299999999999998,-0.2299999999999997,0.97,-1.1099999999999999
0.18299999999999997,-0.36,0.6400000000000012,-1.4599999999999995
0.20299999999999996,-0.30000000000000054,-0.819999999999995,-1.7799999999999991
0.22299999999999995,-0.14,-1.4899999999999989,-1.8300000000000003
0.24299999999999997,-0.13000000000000028,-1.9199999999999988,-1.7599999999999998
0.26299999999999996,-0.04000000000000028,-1.830000000000002,-1.7500000000000002
0.283,-0.03666666666666665,-1.1800000000000004,-1.5833333333333335
0.303,-0.4,0.61,-0.56
0.32299999999999995,-0.33352941176470596,0.633529411764706,-0.3858823529411766
0.34299999999999997,0.08181818181818178,0.18363636363636354,-0.25
0.363,0.05,0.47,-0.32
0.38299999999999995,0.03727272727272722,0.6418181818181817,-0.4372727272727272
0.40299999999999997,-0.11999999999999889,0.3800000000000031,-0.6099999999999992
0.42299999999999993,-0.56,-1.3,-1.0799999999999994
0.44299999999999995,-0.20000000000000112,-0.13000000000000417,-0.7900000000000017
0.46299999999999997,-0.06666666666666649,0.7266666666666654,-0.43000000000000055
0.48299999999999993,-0.3049999999999993,1.509999999999998,-0.06000000000000055
0.5029999999999999,-0.7399999999999972,2.5199999999999956,0.17999999999999777
0.5229999999999999,-0.7700000000000015,2.0300000000000056,0.3400000000000004
0.5429999999999999,-0.5499999999999996,1.1600000000000008,-0.20999999999999666
0.563,-2.27,1.83,-2.03
0.583,-3.43,1.95,-1.89
0.603,-3.243333333333333,0.41733333333333333,-1.548
0.6229999999999999,-1.040000000000006,-4.389999999999992,-1.649999999999996
0.6429999999999999,-0.6599999999999956,-4.300000000000012,-1.8700000000000057
0.6629999999999999,-1.719999999999994,-1.9000000000000126,-0.5900000000000052
0.6829999999999999,-2.3935714285714282,-0.4300000000000008,-0.005714285714285991
0.703,-3.4,1.67,0.44
0.7229999999999999,-3.6599999999999966,1.8049999999999962,0.37500000000000056
0.7429999999999999,-3.98,1.9900000000000133,0.2100000000000011
0.7629999999999999,-3.36000000000001,1.979999999999991,-0.02999999999999778
0.7829999999999999,-1.9700000000000066,0.7833333333333381,-0.02
0.8029999999999999,-1.3115384615384627,0.40769230769230813,-0.001538461538461624
0.8229999999999998,-0.2495652173913045,1.3578260869565213,0.23608695652173933
0.8429999999999999,-2.399999999999985,-0.839999999999983,-0.13000000000000075
0.8629999999999999,-4.339999999999995,-1.6100000000000056,0.06999999999999926
0.8829999999999999,-4.639999999999999,-0.7000000000000022,0.5599999999999912
0.9029999999999999,-4.390000000000005,-1.1099999999999934,1.0999999999999956
0.9229999999999999,-3.7700000000000022,-1.2880000000000005,1.0080000000000016
0.9429999999999998,-3.050000000000003,-1.249999999999999,0.2900000000000033
0.9629999999999999,-2.4600000000000026,-1.5699999999999978,-0.2199999999999989
0.9829999999999999,-1.870000000000004,-2.119999999999996,-0.19000000000000167
1.003,-1.4300000000000006,-2.443333333333333,0.3699999999999978
1.023,-1.4599999999999989,-2.3950000000000005,0.962499999999998
1.0429999999999997,-2.216666666666653,-1.940000000000006,1.449999999999997
1.0629999999999997,-3.2979999999999934,-1.4420000000000042,1.7279999999999984
1.0829999999999997,-4.246666666666658,-1.0766666666666678,2.009999999999997
1.1029999999999998,-4.599999999999996,-1.0600000000000023,2.179999999999999
1.1229999999999998,-4.5100000000000025,-0.6800000000000053,2.1500000000000012
1.1429999999999998,-4.230000000000004,-0.08000000000000666,2.0200000000000022
1.1629999999999998,-3.7700000000000053,0.3399999999999985,1.8300000000000023
1.1829999999999998,-2.920000000000029,0.4599999999999956,1.480000000000011
1.2029999999999996,-1.9616666666666727,0.32166666666666943,1.3716666666666661
1.2229999999999996,-1.1800000000000133,-0.1099999999999911,1.4000000000000015
1.2429999999999997,-0.6766666666666715,-0.46666666666666423,1.2933333333333359
1.2629999999999997,-0.48666666666666764,-0.4833333333333353,1.0466666666666706
1.2829999999999997,-0.5033333333333323,-0.290000000000003,0.7666666666666706
1.3029999999999997,-0.652999999999999,0.004999999999998335,0.517000000000001
1.3229999999999997,-0.9524999999999958,0.43249999999999583,0.23250000000000248
1.3429999999999997,-1.3533333333333295,0.8166666666666618,0.07666666666666766
1.3629999999999998,-1.619999999999997,1.3333333333333264,0.01
1.3829999999999998,-1.76,1.6899999999999984,-0.01666666666666716
1.4029999999999998,-1.6300000000000014,1.9633333333333314,0.04
1.4229999999999996,-1.2000000000000104,2.4299999999999913,-0.1699999999999926
1.4429999999999996,-0.4100000000000222,3.0399999999999823,-0.5599999999999912
1.4629999999999996,0.07,3.516666666666664,-0.71
1.4829999999999997,-0.2999999999999889,3.3100000000000076,-0.5833333333333358
1.5029999999999997,-1.0733333333333266,2.686666666666671,-0.5166666666666647
1.5229999999999997,-1.39,2.486666666666671,-0.7833333333333294
1.5429999999999997,-1.01000000000002,2.3700000000000068,-0.85
1.5629999999999997,-0.13333333333334418,2.1633333333333353,-0.6933333333333352
1.5829999999999997,0.5366666666666617,1.8933333333333382,-0.42666666666667064
1.6029999999999998,0.9222222222222215,1.5166666666666677,-0.027222222222223147
1.6229999999999996,1.3899999999999644,1.0400000000000356,0.24999999999998224
1.6429999999999996,2.28999999999998,0.17000000000003554,0.3599999999999911
1.6629999999999996,2.7599999999999962,-0.37999999999999756,0.6199999999999976
1.6829999999999996,3.694999999999992,-1.314999999999975,0.3600000000000133
1.7029999999999996,4.10999999999999,-2.2049999999999916,-0.064999999999995
1.7229999999999996,4.429999999999996,-2.4,-0.2599999999999989
1.7429999999999997,4.603333333333332,-2.5366666666666604,-0.3666666666666642
1.7629999999999997,4.616666666666668,-3.0599999999999943,-0.6133333333333294
1.7829999999999997,4.52,-3.2399999999999967,-1.08999999999999
1.8029999999999997,4.445000000000005,-3.4050000000000016,-1.4199999999999966
1.8229999999999997,4.0000000000000036,-3.0500000000000034,-1.609999999999999
1.8429999999999995,3.5666666666666735,-2.660000000000005,-1.7133333333333316
1.8629999999999995,3.3100000000000134,-2.4100000000000135,-1.8199999999999912
1.8829999999999996,3.1040000000000014,-1.9780000000000064,-2.2279999999999958
1.9029999999999996,2.8800000000000034,-1.235000000000015,-2.49
1.9229999999999996,2.6016666666666692,-0.505000000000005,-2.3733333333333353
1.9429999999999996,2.1700000000000133,0.24999999999997558,-2.050000000000011
1.9629999999999996,1.7100000000000066,1.4949999999999684,-1.5950000000000117
1.9829999999999997,1.4033333333333395,2.779999999999985,-0.9233333333333432
2.0029999999999997,1.0700000000000045,3.2150000000000034,-0.9099999999999933
2.0229999999999997,0.8024999999999998,2.3787500000000015,-1.8737499999999985
2.0429999999999997,1.2366666666666641,2.1033333333333344,-2.2166666666666672
2.0629999999999997,1.2800000000000022,1.95,-2.18
2.0829999999999997,0.9500000000000066,1.9000000000000021,-2.13
2.1029999999999998,0.5740000000000011,1.7780000000000005,-2.1719999999999997
2.1229999999999998,0.6157142857142852,1.8114285714285714,-2.107142857142857
2.143,0.4,0.42,-1.47
2.163,0.1499999999999978,-0.33000000000000224,-0.76500000000001
2.183,0.4099999999999978,-0.17499999999999888,0.09999999999998668
2.203,0.4766666666666671,-0.4633333333333314,1.0166666666666613
2.223,0.3700000000000007,-0.7033333333333328,1.7666666666666642
2.243,0.09000000000000444,-0.6850000000000034,2.4999999999999933
2.263,-0.22999999999999998,-0.475,2.9650000000000003
2.283,-0.69,-0.18,3.215
2.303,-1.3900000000000001,0.48,3.125
2.323,-1.91,1.05,2.8233333333333333
2.343,-2.376666666666667,1.41,2.413333333333333
2.363,-2.635,1.2,2.085
2.3829999999999996,-2.7450000000000023,0.67500000000002,1.6200000000000134
2.4029999999999996,-2.6266666666666683,0.14666666666667258,1.2666666666666726
2.4229999999999996,-2.6339999999999995,0.02799999999999929,0.8040000000000032
2.4429999999999996,-2.969999999999987,0.39999999999999114,0.05500000000001554
2.4629999999999996,-3.4733333333333287,0.5033333333333373,-0.4033333333333284
2.4829999999999997,-3.5566666666666684,0.26666666666664796,-0.5133333333333403
2.5029999999999997,-3.9899999999999958,0.5449999999999984,-0.39499999999999835
2.5229999999999997,-4.534285714285712,0.977142857142855,-0.46
2.5429999999999997,-4.656666666666669,1.3966666666666627,-0.5233333333333314
2.5629999999999997,-4.375000000000005,1.53,-0.6249999999999967
2.5829999999999997,-3.990000000000006,1.4533333333333371,-0.8233333333333314
2.6029999999999998,-3.3666666666666774,0.79,-0.16666666666667457
2.6229999999999998,-2.8671428571428588,0.97,-0.12857142857142675
2.643,-2.57529411764706,0.91,-0.33411764705882335
2.663,-1.8666666666666747,1.04,-0.2633333333333343
2.683,-1.2733333333333403,1.06,-0.10000000000000296
2.703,-0.7233333333333403,0.8433333333333403,0.046666666666665683
2.723,-0.22400000000000372,-0.037999999999991485,-0.061999999999997876
2.743,0.3472727272727263,-0.7845454545454538,-0.22
2.763,1.1433333333333333,-1.0733333333333335,-0.11333333333333333
2.783,1.2633333333333334,-0.77,-0.09666666666666666
2.8029999999999995,1.0133333333333392,-0.06666666666668296,-0.01666666666666963
2.8229999999999995,0.7366666666666686,0.9266666666666539,0.06
2.8429999999999995,0.856666666666664,1.3,-0.10333333333333201
2.8629999999999995,1.5099999999999822,1.0500000000000134,-0.17
2.8829999999999996,2.1233333333333255,0.1866666666666805,-0.28999999999999704
2.9029999999999996,2.6799999999999966,-0.6449999999999961,-0.31500000000000056
2.9229999999999996,2.92142857142857,-1.07428571428571,-0.38714285714285496
2.9429999999999996,2.8800000000000177,-1.1400000000000354,-0.5999999999999911
2.9629999999999996,2.77,-0.2100000000000089,-0.5733333333333342
2.9829999999999997,2.8366666666666656,0.5266666666666597,-0.5699999999999971
3.0029999999999997,2.9549999999999983,0.7999999999999989,-0.7849999999999984
3.0229999999999997,3.4339999999999944,0.7620000000000042,-0.9039999999999979
3.0429999999999997,4.073333333333328,0.16000000000000295,-1.2433333333333314
3.0629999999999997,4.080000000000003,0.3466666666666627,-1.1833333333333342
3.0829999999999997,3.773333333333337,0.68,-1.1433333333333313
3.1029999999999998,3.5966666666666685,0.649999999999997,-1.3366666666666658
3.1229999999999998,3.393076923076924,0.9976923076923062,-1.4861538461538455
3.143,3.1072727272727274,1.86090909090909,-1.7290909090909088
3.163,3.2233333333333314,2.1733333333333316,-2.0766666666666627
3.183,3.32,2.369999999999997,-2.22
3.203,3.1540000000000012,2.2660000000000005,-2.27
3.2229999999999994,2.8850000000000033,2.2130000000000005,-2.2430000000000008
3.2429999999999994,2.5720000000000027,2.0290000000000017,-2.24
3.2629999999999995,2.293333333333339,1.256666666666683,-2.276666666666665
3.2829999999999995,1.9133333333333435,0.3633333333333392,-2.160000000000009
3.3029999999999995,1.2800000000000133,1.0699999999999779,-1.2300000000000288
3.3229999999999995,0.9957142857142876,1.6928571428571373,-0.4485714285714376
3.3429999999999995,0.7500000000000089,1.6200000000000023,0.5799999999999778
3.3629999999999995,0.43666666666667403,1.0633333333333481,1.3866666666666563
3.3829999999999996,-0.10333333333332545,-0.16333333333331654,1.3266666666666718
3.4029999999999996,-0.3000000000000022,-1.2199999999999844,1.46999999999998
3.4229999999999996,-0.38499999999999834,-1.427499999999999,2.402499999999994
3.4429999999999996,-0.495555555555555,-1.5555555555555551,2.4666666666666677
3.4629999999999996,-0.7199999999999911,-1.3700000000000023,2.260000000000002
3.4829999999999997,-1.1799999999999866,-1.4099999999999977,2.0700000000000065
3.5029999999999997,-1.5866666666666642,-1.43,1.9066666666666672
3.5229999999999997,-1.9181818181818175,-1.7318181818181808,1.7809090909090912
3.5429999999999997,-2.3899999999999912,-1.9600000000000022,1.390000000000011
3.5629999999999997,-2.3600000000000065,-1.8300000000000067,1.309999999999989
3.5829999999999997,-1.8000000000000222,-1.35000000000002,1.6100000000000023
3.6029999999999998,-1.07000000000001,-1.7999999999999823,2.1199999999999877
3.6229999999999998,-0.6314285714285726,-2.8885714285714275,2.59
3.643,-0.66,-2.31,2.63
3.6629999999999994,-0.9899999999999889,-1.7900000000000111,2.8499999999999956
3.6829999999999994,-1.419999999999985,-0.9166666666667012,3.0699999999999927
3.7029999999999994,-2.009999999999982,0.18999999999998002,3.3399999999999954
3.7229999999999994,-2.4099999999999966,0.25000000000000355,3.3100000000000027
3.7429999999999994,-2.5887499999999988,0.3449999999999961,2.9487500000000066
3.7629999999999995,-2.9699999999999847,0.8299999999999911,2.2400000000000113
3.7829999999999995,-3.4799999999999933,1.1199999999999957,1.780000000000009
3.8029999999999995,-3.2900000000000267,1.1700000000000088,1.520000000000009
3.8229999999999995,-2.858181818181822,0.7090909090909141,1.212727272727276
3.8429999999999995,-1.966666666666683,-0.033333333333317054,0.6866666666666741
3.8629999999999995,-0.9400000000000288,-1.0899999999999734,0.37000000000000444
3.8829999999999996,0.02999999999998372,-1.7599999999999971,0.46999999999999403
3.9029999999999996,0.5999999999999778,-1.3200000000000267,0.6999999999999911
3.9229999999999996,0.8162499999999994,-0.9981250000000024,0.6268750000000003
3.9429999999999996,0.8400000000000044,0.019999999999964463,0.44000000000000666
3.9629999999999996,0.6400000000000045,1.6899999999999673,0.3000000000000015
3.9829999999999997,0.5399999999999978,2.82999999999998,0.15000000000000666
4.002999999999999,0.63,3.05,-0.07999999999999556
4.023,1.03,2.16,-0.25
4.042999999999999,1.8183333333333254,0.9166666666666803,-0.38333333333333086
4.062999999999999,3.089999999999973,-1.2799999999999616,-0.7299999999999941
4.082999999999999,3.6399999999999824,-2.1799999999999824,-0.43000000000002664
4.102999999999999,3.600000000000018,-3.1099999999998666,-0.10000000000001777
4.122999999999999,2.8800000000001154,-2.44000000000016,-0.6199999999999289
4.142999999999999,2.511818181818184,-1.91363636363638,-0.751818181818184
4.162999999999999,2.5649999999999946,-0.9400000000000022,-0.7499999999999956
4.182999999999999,3.049999999999985,-0.7800000000000089,-1.0299999999999823
4.202999999999999,3.349999999999991,-0.5000000000000089,-1.2400000000000089
4.222999999999999,3.5599999999999734,-0.5399999999999734,-0.9400000000000355
4.242999999999999,3.707647058823529,-0.7576470588235287,-0.83
4.262999999999999,3.89,-1.199999999999985,-0.750000000000003
4.2829999999999995,3.7000000000000135,-1.5099999999999956,0.05999999999992449
4.302999999999999,3.620000000000018,-1.4900000000000178,0.559999999999858
4.322999999999999,3.486666666666663,-2.2366666666666153,1.0166666666666864
4.342999999999999,3.57,-3.3699999999999513,0.6500000000000133
4.362999999999999,3.58,-3.9362499999999887,0.5093750000000031
4.382999999999999,3.1200000000000325,-4.440000000000036,-0.49999999999997335
4.402999999999999,2.228000000000035,-4.0,-1.08399999999998
4.422999999999999,1.1000000000001067,-3.75000000000008,-1.3999999999999821
4.442999999999999,0.48000000000006215,-2.6600000000001867,-1.3500000000000179
4.462999999999999,0.1850000000000222,-1.335000000000111,-1.1400000000000179
4.482999999999999,-0.2611111111111045,0.46111111111110453,-0.5744444444444536
4.502999999999999,-0.5899999999999982,0.5560000000000004,0.025999999999996803
4.522999999999999,-0.9911931818181815,0.5608522727272726,0.822045454545454
4.542999999999999,-0.9951704545454544,0.5636931818181817,0.8288636363636359
4.562999999999999,-0.9991477272727269,0.5665340909090908,0.8356818181818176
4.582999999999999,-1.0031249999999998,0.5693749999999999,0.8424999999999996
4.602999999999999,-1.0071022727272725,0.5722159090909089,0.8493181818181813
4.622999999999999,-1.0110795454545454,0.5750568181818181,0.8561363636363633
4.642999999999999,-1.015056818181818,0.5778977272727271,0.862954545454545
4.662999999999999,-1.0190340909090907,0.5807386363636363,0.8697727272727269
4.682999999999999,-1.0230113636363634,0.5835795454545453,0.8765909090909086
4.702999999999999,-1.0269886363636362,0.5864204545454544,0.8834090909090906
4.722999999999999,-1.030965909090909,0.5892613636363635,0.8902272727272723
4.7429999999999986,-1.0349431818181816,0.5921022727272726,0.897045454545454
4.762999999999999,-1.0389204545454545,0.5949431818181817,0.903863636363636
4.782999999999999,-1.0428977272727271,0.5977840909090907,0.9106818181818177
4.802999999999999,-1.0468749999999998,0.6006249999999999,0.9174999999999996
4.822999999999999,-1.0508522727272724,0.6034659090909089,0.9243181818181814
4.842999999999999,-1.0548295454545453,0.6063068181818181,0.9311363636363633
4.862999999999999,-1.058806818181818,0.6091477272727271,0.937954545454545
4.882999999999999,-5.209999999999698,5.410000000000213,2.5100000000000176
4.902999999999999,-5.980000000000098,2.070000000000213,0.600000000000071
4.922999999999999,-3.8940000000000086,-1.8140000000000014,-0.04200000000001137
4.942999999999999,-3.563333333333337,-1.75,0.5399999999999882
4.962999999999999,-3.4340000000000046,-1.6960000000000064,0.9259999999999851
4.982999999999999,-3.3435714285714275,-1.0450000000000055,1.2235714285714279
5.002999999999999,-3.369999999999997,-0.8000000000000178,1.22
5.022999999999999,-3.515000000000007,-1.0999999999999468,1.5649999999999802
5.042999999999999,-3.4200000000000266,-1.569999999999929,1.649999999999991
5.062999999999999,-2.016666666666698,-1.7566666666666864,1.7166666666666628
5.082999999999999,-1.9295454545454576,-1.7140909090909104,1.7372727272727264
5.102999999999999,-1.0900000000000178,-1.4600000000000133,2.0999999999999868
5.122999999999999,-0.5533333333333348,-0.7633333333333349,2.54
5.142999999999999,0.7899999999999556,0.10999999999998224,0.8500000000000888
5.1629999999999985,1.2666666666666628,-0.02666666666667456,-0.5733333333333017
5.182999999999999,1.32,0.12999999999997336,-1.2499999999999467
5.2029999999999985,1.3799999999999868,0.44499999999999335,-1.8549999999999534
5.222999999999999,1.5649999999999802,0.49,-2.3599999999999604
5.2429999999999986,1.7999999999999912,0.39000000000001334,-2.849999999999969
5.262999999999999,1.9849999999999954,2.6645352591003757e-14,-3.4099999999999735
5.282999999999999,2.01,-0.47499999999996667,-3.77499999999998
5.302999999999999,1.99,-0.7599999999999822,-3.904999999999996
5.322999999999999,1.97,-1.03,-3.885000000000007
5.342999999999999,2.0349999999999957,-0.7150000000000312,-3.700000000000018
5.362999999999999,2.08,-0.16500000000003331,-3.385000000000033
5.382999999999999,2.08,0.2149999999999867,-3.0500000000000176
5.402999999999999,2.0949999999999935,0.21000000000001334,-2.7600000000000264
5.422999999999999,2.2399999999999913,0.09500000000000444,-2.5600000000000085
5.442999999999999,2.3666666666666627,-0.06999999999998816,-2.4566666666666626
5.462999999999999,2.290000000000009,-0.4849999999999778,-2.689999999999982
5.482999999999999,2.2933333333333255,-0.8466666666666508,-2.9333333333333256
5.502999999999999,2.434999999999998,-1.03,-2.945000000000002
5.522999999999999,2.470000000000013,-0.8050000000000067,-2.7600000000000264
5.542999999999999,2.250000000000009,-0.7650000000000022,-2.425000000000011
5.562999999999999,1.930000000000011,-0.5700000000000066,-2.050000000000011
5.582999999999998,1.6000000000000179,-0.1800000000000222,-1.5400000000000267
5.602999999999999,1.1033333333333728,0.07333333333332841,-0.9866666666667012
5.622999999999998,0.4533333333333728,0.13333333333332842,-0.4800000000000296
5.642999999999999,-0.19499999999995338,0.23999999999998667,0.00999999999996003
5.6629999999999985,-0.5999999999999844,0.44749999999998835,0.4974999999999728
5.682999999999999,-0.8299999999999866,0.6,1.01999999999996
5.7029999999999985,-0.9099999999999911,0.5100000000000089,1.3699999999999557
5.722999999999999,-0.9549999999999933,0.38500000000000667,1.6249999999999933
5.7429999999999986,-0.98,0.31500000000000666,1.63
5.762999999999999,-1.0549999999999957,0.23500000000000443,1.5950000000000046
5.782999999999999,-1.1849999999999934,0.11000000000001332,1.59
5.802999999999999,-1.1800000000000088,-0.04999999999999112,1.7449999999999868
5.822999999999999,-0.8750000000000167,-0.20999999999999336,2.0949999999999833
5.842999999999999,-0.42500000000002225,-0.2849999999999956,2.404999999999987
5.862999999999999,-0.15500000000000333,-0.37499999999999,2.54
5.882999999999999,-0.18333333333332544,-0.5933333333333254,2.4966666666666746
5.902999999999999,-0.41999999999998816,-0.68,2.2700000000000116
5.922999999999999,-0.7566666666666508,-0.6733333333333373,2.0600000000000116
5.942999999999999,-1.086666666666651,-0.4833333333333491,1.97
5.962999999999999,-1.3549999999999869,-0.1850000000000222,2.039999999999991
5.982999999999999,-1.5733333333333255,0.2333333333333136,2.233333333333326
6.002999999999998,-1.7249999999999934,0.5699999999999734,2.404999999999993
6.022999999999999,-1.8349999999999933,0.7149999999999933,2.51
6.042999999999998,-1.9,0.64500000000002,2.51
6.062999999999999,-1.91,0.40000000000001185,2.4266666666666743
6.082999999999998,-1.8350000000000044,0.21500000000000444,2.37
6.102999999999999,-1.7233333333333372,0.11333333333333728,2.37
6.122999999999998,-1.607500000000004,0.03,2.327500000000004
6.142999999999999,-1.4950000000000068,0.0,2.2950000000000066
6.1629999999999985,-1.340000000000015,-0.06,2.2833333333333283
6.182999999999999,-1.1066666666666747,0.029999999999988154,2.36
6.2029999999999985,-0.87500000000001,0.27499999999999003,2.3650000000000033
6.222999999999999,-0.7000000000000044,0.4499999999999978,2.2700000000000022
6.2429999999999986,-0.49500000000002,0.49,2.04500000000002
6.262999999999999,-0.26000000000001183,0.4333333333333373,1.7333333333333492
6.282999999999999,-0.010000000000011843,0.27666666666667455,1.3566666666666864
6.302999999999999,0.19333333333332545,0.07666666666667457,0.9866666666666863
6.322999999999999,0.29,-0.09999999999999112,0.6200000000000222
6.342999999999999,0.2933333333333373,-0.21,0.2066666666666864
6.362999999999999,0.2233333333333373,-0.1933333333333373,-0.1333333333333136
6.382999999999999,0.14600000000000213,-0.04200000000000426,-0.45599999999999147
6.402999999999999,0.1,0.17499999999998,-0.7699999999999734
6.422999999999998,0.13666666666665978,0.3866666666666598,-1.2199999999999585
6.442999999999999,0.28333333333332544,0.39666666666667455,-1.7933333333333017
6.462999999999998,0.5299999999999793,0.12333333333336097,-2.4066666666666183
6.482999999999999,0.8066666666666509,-0.336666666666639,-2.9599999999999764
6.502999999999998,1.0133333333333234,-0.8766666666666322,-3.4066666666666467
6.522999999999999,1.1439999999999977,-1.2759999999999916,-3.6719999999999935
6.542999999999998,1.21,-1.3733333333333384,-3.75
6.562999999999999,1.22,-1.1933333333333491,-3.6933333333333374
6.582999999999998,1.19,-0.8266666666666913,-3.593333333333338
6.602999999999999,1.1600000000000021,-0.47000000000000886,-3.510000000000002
6.622999999999998,1.1966666666666617,-0.13333333333335307,-3.4233333333333382
6.642999999999999,1.3033333333333255,0.07333333333332544,-3.3466666666666742
6.6629999999999985,1.4249999999999932,0.2099999999999867,-3.265000000000007
6.682999999999999,1.4899999999999978,0.25,-3.190000000000002
6.7029999999999985,1.5,0.17333333333333728,-3.0666666666666744
6.722999999999999,1.4600000000000044,0.11,-2.9200000000000133
6.7429999999999986,1.3466666666666747,-0.0033333333333254375,-2.750000000000012
6.762999999999999,1.1750000000000065,-0.14999999999999558,-2.4900000000000087
6.782999999999999,0.9600000000000266,-0.17,-2.0800000000000445
6.802999999999999,0.7350000000000133,-0.10500000000000445,-1.6600000000000266
6.822999999999999,0.4333333333333491,0.023333333333325434,-1.2166666666666863
6.842999999999999,0.030000000000022203,0.18999999999999112,-0.7600000000000267
6.862999999999999,-0.28999999999998816,0.27666666666666273,-0.32000000000002365
6.882999999999998,-0.41,0.32,0.06999999999998224
6.902999999999999,-0.30000000000000887,0.36,0.3999999999999867
6.922999999999998,-0.13000000000001777,0.30000000000001775,0.6199999999999822
6.942999999999999,-0.02000000000000444,0.17000000000000445,0.8199999999999911
6.962999999999998,-0.0066666666666597586,0.11,0.9733333333333195
6.982999999999999,-0.06999999999999557,0.09000000000000444,1.129999999999991
7.002999999999998,-0.1499999999999911,-0.019999999999982237,1.4299999999999555
7.022999999999999,-0.15,-0.24999999999998668,1.8699999999999735
7.042999999999998,-0.10000000000000889,-0.4699999999999822,2.2799999999999643
7.062999999999999,-0.03333333333333728,-0.54,2.5133333333333256
7.082999999999998,0.0010714285714279936,-0.5,2.58
7.102999999999999,0.008214285714285409,-0.5,2.58
7.122999999999998,-0.02,-0.36000000000000887,2.1600000000000357
7.142999999999999,-0.11999999999999111,-0.2300000000000089,1.8000000000000178
7.1629999999999985,-0.28999999999997333,-3.552713678800501e-14,1.5300000000000267
7.182999999999999,-0.5099999999999911,0.2899999999999911,1.4100000000000028
7.2029999999999985,-0.7499999999999734,0.5699999999999733,1.4999999999999822
7.222999999999999,-0.9699999999999867,0.7699999999999911,1.669999999999991
7.2429999999999986,-1.1199999999999868,0.8549999999999933,1.8399999999999868
7.262999999999999,-1.269999999999994,0.820000000000003,2.0199999999999942
7.282999999999999,-1.34,0.7600000000000178,2.1799999999999824
7.302999999999998,-1.36,0.6600000000000178,2.339999999999982
7.322999999999999,-1.3150000000000066,0.44500000000002,2.4999999999999867
7.342999999999998,-1.1900000000000088,0.2500000000000089,2.6999999999999735
7.362999999999999,-1.070000000000006,0.2499999999999941,2.869999999999988
7.382999999999998,-1.01,0.29,2.9833333333333285
7.402999999999999,-0.98,0.26000000000000295,3.010000000000003
7.422999999999998,-0.8900000000000059,0.19000000000000591,2.930000000000012
7.442999999999999,-0.7466666666666716,0.0733333333333432,2.700000000000015
7.462999999999998,-0.6300000000000059,-0.06999999999998224,2.3900000000000237
7.482999999999999,-0.5400000000000045,-0.20999999999999555,2.000000000000022
7.502999999999998,-0.49,-0.18000000000000888,1.5700000000000534
7.522999999999999,-0.44000000000000444,0.0699999999999778,1.0700000000000267
7.542999999999998,-0.38000000000000594,0.4499999999999704,0.5000000000000414
7.562999999999999,-0.2900000000000059,0.7799999999999911,-0.04999999999997928
7.582999999999998,-0.13000000000001777,0.89,-0.5699999999999585
7.602999999999999,0.1399999999999882,0.7500000000000089,-1.0999999999999823
7.622999999999998,0.47999999999996446,0.46000000000003555,-1.6599999999999377
7.642999999999999,0.7799999999999911,0.08000000000001481,-2.2699999999999734
7.6629999999999985,0.9599999999999881,-0.39999999999995856,-2.9099999999999526
7.682999999999999,1.0299999999999971,-0.9099999999999823,-3.509999999999979
7.7029999999999985,1.04,-1.3599999999999706,-3.899999999999982
7.722999999999998,0.9900000000000059,-1.569999999999994,-4.000000000000006
7.7429999999999986,0.8800000000000119,-1.4100000000000295,-3.850000000000012
7.762999999999998,0.7100000000000266,-0.9200000000000622,-3.5800000000000267
7.782999999999999,0.5700000000000058,-0.2300000000000533,-3.2900000000000236
7.802999999999998,0.5799999999999822,0.42999999999987565,-3.030000000000053
7.822999999999999,0.7699999999999823,0.8799999999999704,-2.820000000000012
7.842999999999998,1.0999999999999706,1.0799999999999883,-2.72
7.862999999999999,1.4299999999999822,1.0000000000000118,-2.69
7.882999999999998,1.6799999999999822,0.7200000000000236,-2.7
7.902999999999999,1.77,0.29000000000005327,-2.700000000000009
7.922999999999998,1.750000000000006,-0.13999999999997634,-2.640000000000006
7.942999999999999,1.650000000000006,-0.3299999999999971,-2.480000000000009
7.962999999999998,1.4650000000000265,-0.37,-2.2400000000000353
7.982999999999999,1.1700000000000177,-0.2700000000000089,-1.8700000000000223
8.002999999999998,0.8600000000000236,-0.010000000000023691,-1.4700000000000237
8.023,0.5366666666666746,0.3633333333333254,-1.0566666666666746
8.043,0.24,0.56,-0.69
8.062999999999999,-0.009999999999991118,0.5550000000000045,-0.30500000000002225
8.082999999999998,-0.1,0.4300000000000118,0.09999999999997039
8.102999999999998,0.039999999999988156,0.25000000000001776,0.3599999999999822
8.123,0.18,0.07,0.53
8.142999999999999,0.22,-0.10999999999996447,0.6499999999999823
8.162999999999998,0.06000000000001777,-0.1833333333333274,0.7999999999999823
8.182999999999998,-0.21999999999997633,-0.1500000000000059,1.0999999999999763
8.202999999999998,-0.4749999999999889,-0.06750000000000556,1.5574999999999612
8.222999999999999,-0.59,-0.11666666666666273,2.056666666666657
8.242999999999999,-0.5866666666666726,-0.19333333333332742,2.419999999999982
8.262999999999998,-0.52,-0.22249999999999445,2.54
8.282999999999998,-0.48,-0.3149999999999867,2.41750000000002
8.302999999999999,-0.4400000000000089,-0.4399999999999911,2.0800000000000445
8.322999999999999,-0.42,-0.5399999999999912,1.7300000000000355
8.342999999999998,-0.42,-0.5075000000000056,1.485000000000011
8.362999999999998,-0.4933333333333254,-0.31666666666669824,1.5166666666666508
8.383,-0.6066666666666627,0.0366666666666568,1.759999999999994
8.402999999999999,-0.7399999999999822,0.34999999999996445,2.0499999999999643
8.422999999999998,-0.8374999999999966,0.5074999999999967,2.32249999999999
8.442999999999998,-0.84,0.4700000000000237,2.5233333333333254
8.463,-0.76,0.03,2.52
8.482999999999999,-0.41500000000002224,-0.43999999999998224,2.41
8.502999999999998,0.006666666666627191,-0.7833333333333018,2.39
8.522999999999998,0.33333333333330173,-1.0233333333333254,2.4
8.543,0.47249999999999887,-1.0175000000000012,2.454999999999998
8.562999999999999,0.4433333333333373,-0.820000000000006,2.5633333333333312
8.582999999999998,0.31000000000001776,-0.4250000000000622,2.674999999999991
8.602999999999998,0.29985735735735736,-0.3895007507507508,2.6800713213213214
8.622999999999998,0.2997072072072072,-0.3889752252252253,2.6801463963963967
8.642999999999999,0.29955705705705704,-0.3884496996996997,2.6802214714714716
8.662999999999998,0.2994069069069069,-0.38792417417417424,2.6802965465465465
8.682999999999998,0.2992567567567568,-0.3873986486486487,2.680371621621622
8.702999999999998,0.2991066066066066,-0.38687312312312316,2.6804466966966967
8.722999999999999,0.29895645645645647,-0.3863475975975976,2.680521771771772
8.742999999999999,0.2988063063063063,-0.3858220720720721,2.680596846846847
8.762999999999998,0.29865615615615615,-0.3852965465465466,2.680671921921922
8.782999999999998,0.298506006006006,-0.38477102102102106,2.680746996996997
8.802999999999999,0.29835585585585583,-0.3842454954954955,2.6808220720720723
8.822999999999999,0.2982057057057057,-0.38371996996997,2.680897147147147
8.842999999999998,0.2980555555555556,-0.3831944444444445,2.6809722222222225
8.862999999999998,0.2979054054054054,-0.38266891891891897,2.6810472972972974
8.883,0.29775525525525526,-0.3821433933933934,2.6811223723723727
8.902999999999999,0.2976051051051051,-0.3816178678678679,2.6811974474474476
8.922999999999998,0.29745495495495494,-0.3810923423423424,2.6812725225225225
8.942999999999998,0.2973048048048048,-0.38056681681681687,2.6813475975975978
8.963,0.2971546546546546,-0.3800412912912913,2.6814226726726726
8.982999999999999,0.2970045045045045,-0.3795157657657658,2.681497747747748
9.002999999999998,0.29685435435435437,-0.3789902402402403,2.681572822822823
9.022999999999998,0.29670420420420424,-0.37846471471471477,2.681647897897898
9.042999999999997,0.29655405405405405,-0.37793918918918923,2.681722972972973
9.062999999999999,0.2964039039039039,-0.3774136636636637,2.6817980480480483
9.082999999999998,0.29625375375375373,-0.3768881381381382,2.681873123123123
9.102999999999998,0.2961036036036036,-0.37636261261261267,2.6819481981981985
9.122999999999998,0.2959534534534535,-0.37583708708708713,2.6820232732732734
9.142999999999999,0.2958033033033033,-0.3753115615615616,2.6820983483483483
9.162999999999998,0.29565315315315316,-0.37478603603603605,2.6821734234234236
9.182999999999998,0.29550300300300303,-0.37426051051051057,2.6822484984984984
9.202999999999998,0.29535285285285284,-0.37373498498498503,2.6823235735735738
9.222999999999999,0.2952027027027027,-0.3732094594594595,2.6823986486486486
9.242999999999999,0.2950525525525526,-0.37268393393393395,2.682473723723724
9.262999999999998,0.2949024024024024,-0.37215840840840847,2.682548798798799
9.282999999999998,0.29475225225225227,-0.37163288288288293,2.682623873873874
9.302999999999999,0.2946021021021021,-0.3711073573573574,2.682698948948949
9.322999999999999,0.29445195195195195,-0.37058183183183185,2.6827740240240243
9.342999999999998,0.2943018018018018,-0.37005630630630637,2.682849099099099
9.362999999999998,0.2941516516516517,-0.36953078078078083,2.682924174174174
9.383,0.2940015015015015,-0.3690052552552553,2.6829992492492494
9.402999999999999,0.2938513513513514,-0.36847972972972975,2.6830743243243242
9.422999999999998,0.2937012012012012,-0.36795420420420427,2.6831493993993996
9.442999999999998,0.29355105105105106,-0.36742867867867873,2.6832244744744744
9.462999999999997,0.29340090090090093,-0.36690315315315325,2.6832995495495497
9.482999999999999,0.29325075075075074,-0.36637762762762766,2.6833746246246246
9.502999999999998,0.2931006006006006,-0.3658521021021022,2.6834496996997
9.522999999999998,0.2929504504504505,-0.36532657657657663,2.683524774774775
9.542999999999997,0.2928003003003003,-0.3648010510510511,2.68359984984985
9.562999999999999,0.29265015015015017,-0.36427552552552556,2.683674924924925
9.582999999999998,0.29250000000000004,-0.36375,2.68375
9.602999999999998,0.29234984984984985,-0.36322447447447453,2.683825075075075
9.622999999999998,0.2921996996996997,-0.362698948948949,2.68390015015015
9.642999999999999,0.29204954954954954,-0.36217342342342346,2.6839752252252254
9.662999999999998,0.2918993993993994,-0.3616478978978979,2.6840503003003002
9.682999999999998,0.2917492492492493,-0.36112237237237244,2.6841253753753755
9.702999999999998,0.2915990990990991,-0.3605968468468469,2.6842004504504504
9.722999999999999,0.29144894894894896,-0.36007132132132136,2.6842755255255257
9.742999999999999,0.29129879879879883,-0.3595457957957958,2.6843506006006006
9.762999999999998,0.29114864864864864,-0.35902027027027034,2.684425675675676
9.782999999999998,0.2909984984984985,-0.3584947447447448,2.684500750750751
9.802999999999999,0.2908483483483484,-0.35796921921921926,2.684575825825826
9.822999999999999,0.2906981981981982,-0.3574436936936937,2.684650900900901
9.842999999999998,0.29054804804804807,-0.35691816816816824,2.684725975975976
9.862999999999998,0.29039789789789794,-0.3563926426426427,2.684801051051051
9.882999999999997,0.29024774774774775,-0.35586711711711716,2.684876126126126
9.902999999999999,0.2900975975975976,-0.3553415915915916,2.6849512012012013
9.922999999999998,0.28994744744744744,-0.3548160660660661,2.685026276276276
9.942999999999998,0.2897972972972973,-0.3542905405405406,2.6851013513513515
9.962999999999997,0.2896471471471472,-0.35376501501501506,2.6851764264264264
9.982999999999999,0.289496996996997,-0.3532394894894895,2.6852515015015017
10.002999999999998,0.28934684684684686,-0.352713963963964,2.6853265765765766
10.022999999999998,0.28919669669669673,-0.3521884384384385,2.685401651651652
10.042999999999997,0.28904654654654655,-0.35166291291291296,2.6854767267267268
10.062999999999999,0.2888963963963964,-0.3511373873873874,2.6855518018018016
10.082999999999998,0.2887462462462463,-0.3506118618618619,2.685626876876877
10.102999999999998,0.2885960960960961,-0.3500863363363364,2.685701951951952
10.122999999999998,0.28844594594594597,-0.34956081081081086,2.685777027027027
10.142999999999999,0.2882957957957958,-0.3490352852852853,2.685852102102102
10.162999999999998,0.28814564564564565,-0.3485097597597598,2.6859271771771773
10.182999999999998,0.2879954954954955,-0.3479842342342343,2.686002252252252
10.202999999999998,0.2878453453453454,-0.34745870870870876,2.6860773273273275
10.222999999999999,0.2876951951951952,-0.3469331831831832,2.6861524024024024
10.242999999999999,0.2875450450450451,-0.3464076576576577,2.6862274774774777
10.262999999999998,0.2873948948948949,-0.34588213213213215,2.6863025525525526
10.282999999999998,0.28724474474474476,-0.34535660660660666,2.6863776276276274
10.302999999999997,0.28709459459459463,-0.3448310810810811,2.6864527027027028
10.322999999999999,0.28694444444444445,-0.3443055555555556,2.6865277777777776
10.342999999999998,0.2867942942942943,-0.3437800300300301,2.686602852852853
10.362999999999998,0.2866441441441442,-0.34325450450450457,2.686677927927928
10.382999999999997,0.286493993993994,-0.342728978978979,2.686753003003003
10.402999999999999,0.28634384384384387,-0.3422034534534535,2.686828078078078
10.422999999999998,0.28619369369369374,-0.34167792792792795,2.6869031531531533
10.442999999999998,0.28604354354354355,-0.34115240240240247,2.686978228228228
10.462999999999997,0.2858933933933934,-0.3406268768768769,2.6870533033033035
10.482999999999999,0.28574324324324324,-0.3401013513513514,2.6871283783783784
10.502999999999998,0.2855930930930931,-0.33957582582582585,2.6872034534534532
10.522999999999998,0.285442942942943,-0.33905030030030037,2.6872785285285286
10.542999999999997,0.28529279279279285,-0.33852477477477483,2.6873536036036034
10.562999999999999,0.28514264264264266,-0.3379992492492493,2.6874286786786787
10.582999999999998,0.28499249249249253,-0.33747372372372375,2.6875037537537536
10.602999999999998,0.28484234234234235,-0.33694819819819827,2.687578828828829
10.622999999999998,0.2846921921921922,-0.33642267267267273,2.687653903903904
10.642999999999999,0.2845420420420421,-0.3358971471471472,2.687728978978979
10.662999999999998,0.2843918918918919,-0.33537162162162165,2.687804054054054
10.682999999999998,0.28424174174174177,-0.33484609609609617,2.6878791291291293
10.702999999999998,0.28409159159159164,-0.33432057057057063,2.687954204204204
10.722999999999997,0.28394144144144146,-0.3337950450450451,2.688029279279279
10.742999999999999,0.2837912912912913,-0.33326951951951955,2.6881043543543544
10.762999999999998,0.2836411411411412,-0.332743993993994,2.6881794294294292
10.782999999999998,0.283490990990991,-0.33221846846846853,2.6882545045045045
10.802999999999997,0.2833408408408409,-0.331692942942943,2.6883295795795794
10.822999999999999,0.2831906906906907,-0.33116741741741745,2.6884046546546547
10.842999999999998,0.28304054054054056,-0.3306418918918919,2.6884797297297296
10.862999999999998,0.28289039039039043,-0.33011636636636643,2.688554804804805
10.882999999999997,0.28274024024024025,-0.3295908408408409,2.68862987987988
10.902999999999999,0.2825900900900901,-0.32906531531531535,2.688704954954955
10.922999999999998,0.28243993993994,-0.3285397897897898,2.68878003003003
10.942999999999998,0.2822897897897898,-0.32801426426426433,2.6888551051051053
10.962999999999997,0.28213963963963967,-0.3274887387387388,2.68893018018018
10.982999999999999,0.28198948948948954,-0.32696321321321326,2.689005255255255
11.002999999999998,0.28183933933933936,-0.3264376876876877,2.6890803303303303
11.022999999999998,0.2816891891891892,-0.32591216216216223,2.689155405405405
11.042999999999997,0.2815390390390391,-0.3253866366366367,2.6892304804804805
11.062999999999999,0.2813888888888889,-0.32486111111111116,2.6893055555555554
11.082999999999998,0.2812387387387388,-0.3243355855855856,2.6893806306306307
11.102999999999998,0.28108858858858865,-0.3238100600600601,2.6894557057057056
11.122999999999998,0.28093843843843846,-0.3232845345345346,2.689530780780781
11.142999999999997,0.28078828828828833,-0.32275900900900906,2.6896058558558558
11.162999999999998,0.28063813813813815,-0.3222334834834835,2.689680930930931
11.182999999999998,0.280487987987988,-0.32170795795795804,2.689756006006006
11.202999999999998,0.2803378378378379,-0.3211824324324325,2.689831081081081
11.222999999999997,0.28018768768768776,-0.32065690690690696,2.689906156156156
11.242999999999999,0.2800375375375376,-0.3201313813813814,2.689981231231231
11.262999999999998,0.12000000000002664,0.43999999999987566,2.789999999999991
11.282999999999998,0.9166666666666746,-0.6633333333333492,-3.393333333333349
11.302999999999997,0.7250000000000119,-0.4100000000000237,-3.1333333333333493
11.322999999999999,0.5271428571428637,0.04428571428569689,-2.8628571428571514
11.342999999999998,0.41000000000001774,0.5199999999998757,-2.6400000000000534
11.362999999999998,0.48666666666665087,0.9866666666666508,-2.3566666666666745
11.382999999999997,0.7299999999999289,1.07,-2.2500000000000178
11.402999999999999,1.039999999999994,0.9633333333333373,-2.23
11.422999999999998,1.2566666666666508,0.7066666666666982,-2.263333333333325
11.442999999999998,1.3719999999999914,0.42200000000001275,-2.3259999999999956
11.462999999999997,1.44,0.16333333333334912,-2.3933333333333255
11.482999999999999,1.45,0.08,-2.3500000000000085
11.502999999999998,1.413333333333349,0.12333333333332544,-2.1800000000000237
11.522999999999998,1.2933333333333492,0.17333333333332546,-1.9400000000000237
11.542999999999997,1.1400000000000117,0.18,-1.6100000000000296
11.562999999999997,0.9066666666666983,0.16,-1.1633333333333726
11.582999999999998,0.5766666666666982,0.14,-0.6933333333333728
11.602999999999998,0.25250000000001666,0.20249999999999446,-0.2800000000000222
11.622999999999998,0.08333333333334912,0.27,0.09333333333330175
11.642999999999997,0.015000000000013322,0.2350000000000133,0.4049999999999334
11.662999999999998,-0.10999999999996447,0.13000000000001777,0.6699999999999645
11.682999999999998,-0.25499999999999334,0.14749999999999666,0.7774999999999967
11.702999999999998,-0.4799999999999763,0.2533333333333254,0.9399999999999763
11.722999999999997,-0.6649999999999867,0.34249999999999337,1.2499999999999734
11.742999999999999,-0.73,0.32000000000001777,1.599999999999929
11.762999999999998,-0.71,0.1800000000000237,1.866666666666651
11.782999999999998,-0.7,-0.06999999999997632,1.9933333333333254
11.802999999999997,-0.69,-0.3399999999999763,1.9533333333333491
11.822999999999999,-0.6300000000000178,-0.5299999999999467,1.7900000000000356
11.842999999999998,-0.5400000000000178,-0.6999999999999644,1.5800000000000534
11.862999999999998,-0.49249999999999444,-0.79,1.425000000000011
11.882999999999997,-0.5399999999999912,-0.6900000000000266,1.38
11.902999999999999,-0.6899999999999911,-0.3400000000000266,1.479999999999991
11.922999999999998,-0.8933333333333018,0.11999999999995263,1.6466666666666507
11.942999999999998,-1.1299999999999466,0.4799999999999467,1.7799999999999823
11.962999999999997,-1.326666666666651,0.5566666666666746,1.86
11.982999999999997,-1.3999999999999644,0.42000000000010657,1.8600000000000356
12.002999999999998,-1.3799774209734068,0.27993226292022083,1.85
12.022999999999998,-1.3799272453587554,0.279781736076267,1.85
12.042999999999997,-1.3798770697441043,0.27963120923231316,1.85
12.062999999999997,-1.379826894129453,0.2794806823883593,1.85
12.082999999999998,-1.3797767185148018,0.27933015554440543,1.85
12.102999999999998,-1.3797265429001504,0.2791796287004516,1.85
12.122999999999998,-1.3796763672854992,0.27902910185649776,1.85
12.142999999999997,-1.3796261916708479,0.27887857501254393,1.85
12.162999999999998,-1.3795760160561965,0.2787280481685901,1.85
12.182999999999998,-1.3795258404415454,0.27857752132463626,1.85
12.202999999999998,-1.379475664826894,0.2784269944806824,1.85
12.222999999999997,-1.3794254892122428,0.2782764676367286,1.85
12.242999999999999,-1.3793753135975915,0.27812594079277475,1.85
12.262999999999998,-1.37932513798294,0.2779754139488209,1.85
12.282999999999998,-1.379274962368289,0.2778248871048671,1.85
12.302999999999997,-1.3792247867536376,0.27767436026091324,1.85
12.322999999999999,-1.3791746111389864,0.2775238334169594,1.85
12.342999999999998,-1.379124435524335,0.2773733065730056,1.85
12.362999999999998,-1.379074259909684,0.27722277972905174,1.85
12.382999999999997,-1.3790240842950325,0.2770722528850979,1.85
12.402999999999997,-1.3789739086803812,0.27692172604114407,1.85
12.422999999999998,-1.37892373306573,0.2767711991971902,1.85
12.442999999999998,-1.3788735574510786,0.27662067235323634,1.85
12.462999999999997,-1.3788233818364275,0.2764701455092825,1.85
12.482999999999997,-1.3787732062217761,0.27631961866532867,1.85
12.502999999999998,-1.3787230306071248,0.27616909182137483,1.85
12.522999999999998,-1.3786728549924736,0.276018564977421,1.85
12.542999999999997,-1.3786226793778222,0.27586803813346716,1.85
12.562999999999997,-1.378572503763171,0.27571751128951333,1.85
12.582999999999998,-1.3785223281485197,0.2755669844455595,1.85
12.602999999999998,-1.3784721525338686,0.27541645760160566,1.85
12.622999999999998,-1.3784219769192172,0.2752659307576518,1.85
12.642999999999997,-1.3783718013045658,0.275115403913698,1.85
12.662999999999998,-1.3783216256899147,0.27496487706974415,1.85
12.682999999999998,-1.3782714500752633,0.2748143502257903,1.85
12.702999999999998,-1.3782212744606122,0.2746638233818365,1.85
12.722999999999997,-1.3781710988459608,0.27451329653788265,1.85
12.742999999999999,-1.3781209232313094,0.2743627696939288,1.85
12.762999999999998,-1.3780707476166583,0.274212242849975,1.85
12.782999999999998,-1.378020572002007,0.27406171600602114,1.85
12.802999999999997,-1.3779703963873557,0.2739111891620673,1.85
12.822999999999997,-1.3779202207727044,0.27376066231811347,1.85
12.842999999999998,-1.3778700451580532,0.2736101354741596,1.85
12.862999999999998,-1.3778198695434019,0.27345960863020574,1.85
12.882999999999997,-1.3777696939287505,0.2733090817862519,1.85
12.902999999999997,-1.3777195183140993,0.27315855494229807,1.85
12.922999999999998,-1.377669342699448,0.27300802809834424,1.85
12.942999999999998,-1.3776191670847968,0.2728575012543904,1.85
12.962999999999997,-1.3775689914701454,0.27270697441043656,1.85
12.982999999999997,-1.3775188158554943,0.27255644756648273,1.85
13.002999999999998,-1.377468640240843,0.2724059207225289,1.85
13.022999999999998,-1.3774184646261916,0.27225539387857506,1.85
13.042999999999997,-1.3773682890115404,0.2721048670346212,1.85
13.062999999999997,-1.377318113396889,0.2719543401906674,1.85
13.082999999999998,-1.3772679377822379,0.27180381334671355,1.85
13.102999999999998,-1.3772177621675865,0.2716532865027597,1.85
13.122999999999998,-1.3771675865529351,0.2715027596588059,1.85
13.142999999999997,-1.377117410938284,0.27135223281485205,1.85
13.162999999999998,-1.3770672353236326,0.27120170597089815,1.85
13.182999999999998,-1.3770170597089815,0.2710511791269443,1.85
13.202999999999998,-1.37696688409433,0.2709006522829905,1.85
13.222999999999997,-1.376916708479679,0.27075012543903665,1.85
13.242999999999999,-1.3768665328650276,0.2705995985950828,1.85
13.262999999999998,-1.3768163572503762,0.270449071751129,1.85
13.282999999999998,-1.376766181635725,0.27029854490717514,1.85
13.302999999999997,-1.3767160060210737,0.2701480180632213,1.85
13.322999999999997,-1.3766658304064225,0.26999749121926747,1.85
13.342999999999998,-1.3766156547917712,0.26984696437531364,1.85
13.362999999999998,-1.3765654791771198,0.2696964375313598,1.85
13.382999999999997,-1.3765153035624687,0.26954591068740597,1.85
13.402999999999997,-1.3764651279478173,0.26939538384345213,1.85
13.422999999999998,-1.3764149523331661,0.2692448569994983,1.85
13.442999999999998,-1.3763647767185148,0.26909433015554446,1.85
13.462999999999997,-1.3763146011038636,0.2689438033115906,1.85
13.482999999999997,-1.3762644254892122,0.2687932764676368,1.85
13.502999999999998,-1.3762142498745609,0.2686427496236829,1.85
13.522999999999998,-1.3761640742599097,0.26849222277972906,1.85
13.542999999999997,-1.3761138986452583,0.2683416959357752,1.85
13.562999999999997,-1.3760637230306072,0.2681911690918214,1.85
13.582999999999998,-1.3760135474159558,0.26804064224786756,1.85
13.602999999999998,-1.3759633718013045,0.2678901154039137,1.85
13.622999999999998,-1.3759131961866533,0.2677395885599599,1.85
13.642999999999997,-1.375863020572002,0.26758906171600605,1.85
13.662999999999998,-1.3758128449573508,0.2674385348720522,1.85
13.682999999999998,-1.3757626693426994,0.2672880080280984,1.85
13.702999999999998,-1.3757124937280483,0.26713748118414454,1.85
13.722999999999997,-1.375662318113397,0.2669869543401907,1.85
13.742999999999997,-1.3756121424987455,0.26683642749623687,1.85
13.762999999999998,-1.3755619668840944,0.26668590065228304,1.85
13.782999999999998,-1.375511791269443,0.2665353738083292,1.85
13.802999999999997,-1.3754616156547919,0.26638484696437537,1.85
13.822999999999997,-1.3754114400401405,0.26623432012042153,1.85
13.842999999999998,-1.3753612644254891,0.26608379327646764,1.85
13.862999999999998,-1.375311088810838,0.2659332664325138,1.85
13.882999999999997,-1.3752609131961866,0.26578273958855997,1.85
13.902999999999997,-1.3752107375815354,0.26563221274460613,1.85
13.922999999999998,-1.375160561966884,0.2654816859006523,1.85
13.942999999999998,-1.375110386352233,0.26533115905669846,1.85
13.962999999999997,-1.3750602107375816,0.2651806322127446,1.85
13.982999999999997,-1.3750100351229302,0.2650301053687908,1.85
14.002999999999998,-1.374959859508279,0.26487957852483696,1.85
14.022999999999998,-1.3749096838936277,0.2647290516808831,1.85
14.042999999999997,-1.3748595082789765,0.2645785248369293,1.85
14.062999999999997,-1.3748093326643251,0.26442799799297545,1.85
14.082999999999998,-1.3747591570496738,0.2642774711490216,1.85
14.102999999999998,-1.3747089814350226,0.2641269443050678,1.85
14.122999999999998,-1.3746588058203713,0.26397641746111394,1.85
14.142999999999997,-1.37460863020572,0.2638258906171601,1.85
14.162999999999997,-1.3745584545910687,0.2636753637732063,1.85
14.182999999999998,-1.3745082789764176,0.26352483692925244,1.85
14.202999999999998,-1.3744581033617662,0.26337431008529855,1.85
14.222999999999997,-1.3744079277471148,0.26322378324134477,1.85
14.242999999999997,-1.3743577521324637,0.2630732563973909,1.85
14.262999999999998,-1.3743075765178123,0.26292272955343704,1.85
14.282999999999998,-1.3742574009031612,0.2627722027094832,1.85
14.302999999999997,-1.3742072252885098,0.26262167586552937,1.85
14.322999999999997,-1.3741570496738584,0.26247114902157553,1.85
14.342999999999998,-1.3741068740592073,0.2623206221776217,1.85
14.362999999999998,-1.374056698444556,0.26217009533366786,1.85
14.382999999999997,-1.3740065228299048,0.262019568489714,1.85
14.402999999999997,-1.3739563472152534,0.2618690416457602,1.85
14.422999999999998,-1.3739061716006022,0.26171851480180636,1.85
14.442999999999998,-1.3738559959859509,0.2615679879578525,1.85
14.462999999999997,-1.3738058203712995,0.2614174611138987,1.85
14.482999999999997,-1.3737556447566484,0.26126693426994485,1.85
14.502999999999998,-1.373705469141997,0.261116407425991,1.85
14.522999999999998,-1.3736552935273458,0.2609658805820372,1.85
14.542999999999997,-1.3736051179126945,0.26081535373808334,1.85
14.562999999999997,-1.373554942298043,0.2606648268941295,1.85
14.582999999999997,-1.373504766683392,0.2605143000501757,1.85
14.602999999999998,-1.3734545910687406,0.2603637732062218,1.85
14.622999999999998,-1.3734044154540894,0.26021324636226795,1.85
14.642999999999997,-1.373354239839438,0.2600627195183141,1.85
14.662999999999997,-1.373304064224787,0.2599121926743603,1.85
14.682999999999998,-1.3732538886101355,0.25976166583040644,1.85
14.702999999999998,-1.3732037129954842,0.2596111389864526,1.85
14.722999999999997,-1.373153537380833,0.25946061214249877,1.85
14.742999999999997,-1.3731033617661816,0.25931008529854493,1.85
14.762999999999998,-1.3730531861515305,0.2591595584545911,1.85
14.782999999999998,-1.3730030105368791,0.25900903161063726,1.85
14.802999999999997,-1.3729528349222277,0.25885850476668343,1.85
14.822999999999997,-1.3729026593075766,0.2587079779227296,1.85
14.842999999999998,-1.3728524836929252,0.25855745107877576,1.85
14.862999999999998,-1.372802308078274,0.2584069242348219,1.85
14.882999999999997,-1.3727521324636227,0.2582563973908681,1.85
14.902999999999997,-1.3727019568489716,0.25810587054691425,1.85
14.922999999999998,-1.3726517812343202,0.25795534370296036,1.85
14.942999999999998,-1.3726016056196688,0.2578048168590065,1.85
14.962999999999997,-1.3725514300050177,0.2576542900150527,1.85
14.982999999999997,-1.3725012543903663,0.25750376317109885,1.85
15.002999999999997,-1.3724510787757151,0.257353236327145,1.85
15.022999999999998,-1.3724009031610638,0.2572027094831912,1.85
15.042999999999997,-1.3723507275464124,0.25705218263923735,1.85
15.062999999999997,-1.3723005519317613,0.2569016557952835,1.85
15.082999999999997,-1.3722503763171099,0.2567511289513297,1.85
15.102999999999998,-1.3722002007024587,0.25660060210737584,1.85
15.122999999999998,-1.3721500250878074,0.256450075263422,1.85
15.142999999999997,-1.3720998494731562,0.25629954841946817,1.85
15.162999999999997,-1.3720496738585048,0.25614902157551434,1.85
15.182999999999998,-1.3719994982438535,0.2559984947315605,1.85
15.202999999999998,-1.3719493226292023,0.25584796788760666,1.85
15.222999999999997,-1.371899147014551,0.25569744104365283,1.85
15.242999999999997,-1.3718489713998998,0.255546914199699,1.85
15.262999999999998,-1.3717987957852484,0.2553963873557451,1.85
15.282999999999998,-1.371748620170597,0.2552458605117913,1.85
15.302999999999997,-1.371698444555946,0.25509533366783743,1.85
15.322999999999997,-1.3716482689412945,0.25494480682388365,1.85
15.342999999999998,-1.3715980933266434,0.25479427997992976,1.85
15.362999999999998,-1.371547917711992,0.2546437531359759,1.85
15.382999999999997,-1.3714977420973409,0.2544932262920221,1.85
15.402999999999997,-1.3714475664826895,0.25434269944806825,1.85
15.422999999999996,-1.3713973908680381,0.2541921726041144,1.85
15.442999999999998,-1.371347215253387,0.2540416457601606,1.85
15.462999999999997,-1.3712970396387356,0.25389111891620675,1.85
15.482999999999997,-1.3712468640240845,0.2537405920722529,1.85
15.502999999999997,-1.371196688409433,0.2535900652282991,1.85
15.522999999999998,-1.3711465127947817,0.25343953838434524,1.85
15.542999999999997,-1.3710963371801306,0.2532890115403914,1.85
15.562999999999997,-1.3710461615654792,0.25313848469643757,1.85
15.582999999999997,-1.370995985950828,0.25298795785248374,1.85
15.602999999999998,-1.3709458103361767,0.2528374310085299,1.85
15.622999999999998,-1.3708956347215255,0.25268690416457606,1.85
15.642999999999997,-1.3708454591068742,0.25253637732062223,1.85
15.662999999999997,-1.3707952834922228,0.2523858504766684,1.85
15.682999999999998,-1.3707451078775716,0.2522353236327145,1.85
15.702999999999998,-1.3706949322629203,0.25208479678876067,1.85
15.722999999999997,-1.3706447566482691,0.25193426994480683,1.85
15.742999999999997,-1.3705945810336178,0.251783743100853,1.85
15.762999999999998,-1.3705444054189664,0.25163321625689916,1.85
15.782999999999998,-1.3704942298043152,0.2514826894129453,1.85
15.802999999999997,-1.3704440541896639,0.2513321625689915,1.85
15.822999999999997,-1.3703938785750127,0.25118163572503766,1.85
15.842999999999996,-1.3703437029603613,0.2510311088810838,1.85
15.862999999999998,-1.3702935273457102,0.25088058203713,1.85
15.882999999999997,-1.3702433517310588,0.25073005519317615,1.85
15.902999999999997,-1.3701931761164075,0.2505795283492223,1.85
15.922999999999996,-1.3701430005017563,0.2504290015052685,1.85
15.942999999999998,-1.370092824887105,0.25027847466131464,1.85
15.962999999999997,-1.3700426492724538,0.2501279478173608,1.85
15.982999999999997,-1.3533333333333433,0.2000000000000296,1.85
16.002999999999997,-1.2200000000000355,-0.20999999999982236,1.84
16.023,0.87,1.38,-3.3
16.042999999999996,1.46999999999984,1.2150000000000798,-3.0300000000000535
16.063,1.886666666666651,0.8966666666666864,-2.8733333333333375
16.083,2.1499999999999884,0.4966666666666864,-2.783333333333337
16.102999999999998,2.294999999999991,0.0850000000000444,-2.705000000000009
16.122999999999998,2.33,-0.2599999999999882,-2.5466666666666744
16.142999999999997,2.2250000000000134,-0.4124999999999933,-2.33250000000002
16.162999999999997,2.0000000000000266,-0.44,-2.0500000000000353
16.182999999999996,1.6550000000000886,-0.31500000000001777,-1.6550000000000886
16.202999999999996,1.2750000000001331,-0.24500000000002664,-1.235000000000133
16.223,0.8850000000000444,-0.1650000000000089,-0.8250000000000444
16.243,0.5480000000000043,-0.12,-0.44400000000000567
16.262999999999998,0.3933333333333373,-0.07333333333333729,-0.06666666666668641
16.282999999999998,0.34333333333333727,-0.06,0.3066666666666509
16.302999999999997,0.19500000000002665,-0.05,0.6049999999999733
16.322999999999997,-0.05666666666660351,-0.023333333333349124,0.9333333333332544
16.342999999999996,-0.3219999999999744,0.01,1.3299999999999574
16.362999999999996,-0.5699999999999527,-0.06333333333330177,1.8199999999999052
16.382999999999996,-0.6949999999999733,-0.2499999999999467,2.2999999999998404
16.403,-0.6633333333333373,-0.4233333333333254,2.639999999999988
16.423,-0.5466666666666746,-0.4966666666666627,2.77
16.442999999999998,-0.41666666666667457,-0.52,2.7266666666666746
16.462999999999997,-0.2666666666666746,-0.4333333333333373,2.4833333333333494
16.482999999999997,-0.15333333333334911,-0.26000000000004736,2.153333333333397
16.502999999999997,-0.13,-0.03000000000004737,1.8500000000000474
16.522999999999996,-0.21333333333330176,0.17333333333330175,1.673333333333349
16.542999999999996,-0.3833333333333018,0.3999999999999526,1.6766666666666508
16.563,-0.6019999999999958,0.5919999999999958,1.7879999999999971
16.583,-0.87,0.76,1.93
16.602999999999998,-1.2099999999999556,0.85,1.98
16.622999999999998,-1.5099999999999645,0.89,1.97
16.642999999999997,-1.8033333333333255,0.91,2.0366666666666626
16.662999999999997,-1.9066666666666507,0.8566666666666982,2.173333333333302
16.682999999999996,-1.95,0.6700000000000473,2.3533333333333015
16.702999999999996,-1.9200000000000177,0.48000000000001775,2.609999999999929
16.722999999999995,-1.7700000000000473,0.5233333333333018,2.9666666666666033
16.743,-1.54,0.8,3.25
16.762999999999998,-1.3466666666666747,1.0166666666666628,3.2366666666666744
16.782999999999998,-1.1200000000000119,0.9466666666666745,2.9566666666666865
16.802999999999997,-0.7733333333333432,0.7366666666666746,2.48666666666668
16.822999999999997,-0.3600000000000592,0.4800000000000355,1.9300000000000948
16.842999999999996,-3.553060623495696e-14,0.14000000000005922,1.2400000000001066
16.862999999999996,0.16999999999998816,-0.12999999999997633,0.660000000000083
16.882999999999996,0.22,-0.23999999999998223,0.1700000000001066
16.903,0.18,-0.11,-0.2
16.923,0.1,0.29,-0.44
16.942999999999998,0.06,0.8599999999998756,-0.6199999999999467
16.962999999999997,0.11666666666666271,1.2133333333333254,-0.8766666666666508
16.982999999999997,0.37999999999992895,1.1000000000000711,-1.3499999999998757
17.002999999999997,0.7999999999998935,0.6000000000001243,-1.9599999999998579
17.022999999999996,1.199999999999929,-0.11999999999982236,-2.64999999999984
17.042999999999996,1.4199999999999822,-0.8599999999998579,-3.3099999999998757
17.063,1.4,-1.39,-3.75
17.083,1.243333333333335,-1.55,-3.911666666666666
17.102999999999998,1.21666666666667,-1.55,-3.9183333333333326
17.122999999999998,0.7900000000000356,-1.040000000000071,-3.895000000000009
17.142999999999997,0.5799999999999881,-0.060000000000059214,-3.720000000000012
17.162999999999997,0.8299999999999111,0.24999999999992895,-3.6000000000000356
17.182999999999996,1.2999999999998935,0.6499999999998934,-3.400000000000053
17.202999999999996,1.7499999999999407,0.9499999999999763,-3.1800000000000357
17.222999999999995,2.0199999999999467,0.8700000000000533,-3.0500000000000176
17.243,2.17,0.45,-2.99
17.262999999999998,2.22,-0.10999999999987567,-2.8600000000000354
17.282999999999998,2.1100000000000354,-0.519999999999929,-2.630000000000053
17.302999999999997,1.8700000000000119,-0.72,-2.3366666666666864
17.322999999999997,1.6000000000000534,-0.6700000000000356,-1.9500000000001065
17.342999999999996,1.3700000000000534,-0.5000000000000355,-1.5100000000001066
17.362999999999996,1.0800000000000711,-0.33000000000003554,-1.0500000000000889
17.382999999999996,0.6600000000000711,-0.23000000000002369,-0.580000000000071
17.403,0.26,-0.07,-0.14
17.423,0.030000000000017762,0.05499999999999112,0.2499999999999467
17.442999999999998,-0.07999999999998224,0.11999999999998223,0.6799999999999112
17.462999999999997,-0.13999999999998816,0.12000000000001183,0.9499999999999644
17.482999999999997,-0.23499999999998222,0.09,1.1449999999999467
17.502999999999997,-0.30000901611630787,0.1100090161163079,1.3000180322326158
17.522999999999996,-0.3000315564070776,0.11003155640707765,1.3000631128141553
17.542999999999996,-0.3000540966978474,0.1100540966978474,1.3001081933956948
17.562999999999995,-0.30007663698861714,0.11007663698861715,1.3001532739772343
17.583,-0.3000991772793869,0.1100991772793869,1.3001983545587739
17.602999999999998,-0.30012171757015665,0.11012171757015665,1.3002434351403134
17.622999999999998,-0.3001442578609264,0.11014425786092641,1.3002885157218529
17.642999999999997,-0.30016679815169617,0.11016679815169615,1.3003335963033924
17.662999999999997,-0.30018933844246587,0.11018933844246591,1.300378676884932
17.682999999999996,-0.3002118787332356,0.11021187873323565,1.3004237574664714
17.702999999999996,-0.3002344190240054,0.11023441902400541,1.300468838048011
17.722999999999995,-0.30025695931477514,0.11025695931477515,1.3005139186295505
17.743,-0.3002794996055449,0.11027949960554491,1.30055899921109
17.762999999999998,-0.30030203989631465,0.11030203989631467,1.3006040797926293
17.782999999999998,-0.3003245801870844,0.11032458018708441,1.3006491603741688
17.802999999999997,-0.30034712047785417,0.11034712047785417,1.3006942409557083
17.822999999999997,-0.3003696607686239,0.11036966076862391,1.3007393215372478
17.842999999999996,-0.3003922010593936,0.11039220105939367,1.3007844021187873
17.862999999999996,-0.3004147413501634,0.11041474135016341,1.3008294827003268
17.882999999999996,-0.30043728164093314,0.11043728164093317,1.3008745632818663
17.903,-0.3004598219317029,0.11045982193170292,1.3009196438634059
17.923,-0.30048236222247265,0.11048236222247267,1.3009647244449454
17.942999999999998,-0.3005049025132424,0.11050490251324242,1.301009805026485
17.962999999999997,-0.30052744280401217,0.11052744280401217,1.3010548856080244
17.982999999999997,-0.3005499830947819,0.11054998309478192,1.301099966189564
18.002999999999997,-0.3005725233855517,0.11057252338555167,1.3011450467711034
18.022999999999996,-0.3005950636763214,0.11059506367632142,1.301190127352643
18.042999999999996,-0.30061760396709114,0.11061760396709117,1.3012352079341825
18.062999999999995,-0.3006401442578609,0.11064014425786092,1.301280288515722
18.083,-0.30066268454863065,0.11066268454863068,1.3013253690972615
18.102999999999998,-0.3006852248394004,0.11068522483940042,1.301370449678801
18.122999999999998,-0.30070776513017017,0.11070776513017018,1.3014155302603403
18.142999999999997,-0.3007303054209399,0.11073030542093992,1.3014606108418798
18.162999999999997,-0.3007528457117097,0.11075284571170968,1.3015056914234193
18.182999999999996,-0.30077538600247944,0.11077538600247942,1.3015507720049588
18.202999999999996,-0.30079792629324914,0.11079792629324918,1.3015958525864983
18.222999999999995,-0.3008204665840189,0.11082046658401892,1.3016409331680379
18.243,-0.30084300687478865,0.11084300687478868,1.3016860137495774
18.262999999999998,-0.3008655471655584,0.11086554716555844,1.301731094331117
18.282999999999998,-0.30088808745632817,0.11088808745632818,1.3017761749126564
18.302999999999997,-0.3009106277470979,0.11091062774709794,1.301821255494196
18.322999999999997,-0.3009331680378677,0.11093316803786768,1.3018663360757354
18.342999999999996,-0.30095570832863744,0.11095570832863744,1.301911416657275
18.362999999999996,-0.3009782486194072,0.11097824861940718,1.3019564972388145
18.382999999999996,-0.3010007889101769,0.11100078891017694,1.302001577820354
18.402999999999995,-0.30102332920094665,0.11102332920094668,1.3020466584018935
18.423,-0.3010458694917164,0.11104586949171644,1.302091738983433
18.442999999999998,-0.30106840978248617,0.1110684097824862,1.3021368195649725
18.462999999999997,-0.3010909500732559,0.11109095007325594,1.302181900146512
18.482999999999997,-0.3011134903640257,0.1111134903640257,1.3022269807280513
18.502999999999997,-0.30113603065479544,0.11113603065479544,1.3022720613095908
18.522999999999996,-0.3011585709455652,0.1111585709455652,1.3023171418911303
18.542999999999996,-0.30118111123633495,0.11118111123633494,1.3023622224726699
18.562999999999995,-0.3012036515271047,0.1112036515271047,1.3024073030542094
18.583,-0.3012261918178744,0.11122619181787445,1.302452383635749
18.602999999999998,-0.30124873210864417,0.1112487321086442,1.3024974642172884
18.622999999999998,-0.3012712723994139,0.11127127239941395,1.302542544798828
18.642999999999997,-0.3012938126901837,0.1112938126901837,1.3025876253803674
18.662999999999997,-0.30131635298095344,0.11131635298095345,1.302632705961907
18.682999999999996,-0.3013388932717232,0.1113388932717232,1.3026777865434465
18.702999999999996,-0.30136143356249295,0.11136143356249295,1.302722867124986
18.722999999999995,-0.3013839738532627,0.11138397385326271,1.3027679477065255
18.743,-0.30140651414403247,0.11140651414403245,1.302813028288065
18.762999999999998,-0.30142905443480217,0.11142905443480221,1.3028581088696045
18.782999999999998,-0.3014515947255719,0.11145159472557195,1.302903189451144
18.802999999999997,-0.3014741350163417,0.11147413501634171,1.3029482700326835
18.822999999999997,-0.30149667530711144,0.11149667530711145,1.302993350614223
18.842999999999996,-0.3015192155978812,0.11151921559788121,1.3030384311957626
18.862999999999996,-0.30154175588865095,0.11154175588865096,1.3030835117773019
18.882999999999996,-0.3015642961794207,0.11156429617942071,1.3031285923588414
18.902999999999995,-0.30158683647019047,0.11158683647019046,1.303173672940381
18.923,-0.3016093767609602,0.11160937676096021,1.3032187535219204
18.942999999999998,-0.30163191705173,0.11163191705172996,1.30326383410346
18.962999999999997,-0.3016544573424997,0.11165445734249971,1.3033089146849994
18.982999999999997,-0.30167699763326944,0.11167699763326946,1.303353995266539
19.002999999999997,-0.3016995379240392,0.11169953792403922,1.3033990758480785
19.022999999999996,-0.30172207821480895,0.11172207821480896,1.303444156429618
19.042999999999996,-0.3017446185055787,0.11174461850557872,1.3034892370111575
19.062999999999995,-0.30176715879634847,0.11176715879634846,1.303534317592697
19.083,-0.3017896990871182,0.11178969908711822,1.3035793981742365
19.102999999999998,-0.301812239377888,0.11181223937788796,1.303624478755776
19.122999999999998,-0.30183477966865774,0.11183477966865772,1.3036695593373155
19.142999999999997,-0.30185731995942744,0.11185731995942748,1.303714639918855
19.162999999999997,-0.3018798602501972,0.11187986025019722,1.3037597205003946
19.182999999999996,-0.30190240054096695,0.11190240054096698,1.303804801081934
19.202999999999996,-0.3019249408317367,0.11192494083173672,1.3038498816634736
19.222999999999995,-0.30194748112250647,0.11194748112250648,1.303894962245013
19.242999999999995,-0.3019700214132762,0.11197002141327622,1.3039400428265524
19.262999999999998,-0.301992561704046,0.11199256170404598,1.303985123408092
19.282999999999998,-0.30201510199481574,0.11201510199481574,1.3040302039896314
19.302999999999997,-0.3020376422855855,0.11203764228558548,1.304075284571171
19.322999999999997,-0.3020601825763552,0.11206018257635524,1.3041203651527105
19.342999999999996,-0.30208272286712495,0.11208272286712498,1.30416544573425
19.362999999999996,-0.3021052631578947,0.11210526315789474,1.3042105263157895
19.382999999999996,-0.30212780344866447,0.11212780344866448,1.304255606897329
19.402999999999995,-0.3021503437394342,0.11215034373943424,1.3043006874788685
19.423,-0.302172884030204,0.11217288403020399,1.304345768060408
19.442999999999998,-0.30219542432097374,0.11219542432097374,1.3043908486419475
19.462999999999997,-0.3022179646117435,0.11221796461174349,1.304435929223487
19.482999999999997,-0.30224050490251325,0.11224050490251324,1.3044810098050266
19.502999999999997,-0.30226304519328295,0.11226304519328299,1.304526090386566
19.522999999999996,-0.3022855854840527,0.11228558548405274,1.3045711709681056
19.542999999999996,-0.30230812577482247,0.11230812577482249,1.3046162515496451
19.562999999999995,-0.3023306660655922,0.11233066606559224,1.3046613321311846
19.583,-0.302353206356362,0.11235320635636199,1.3047064127127241
19.602999999999998,-0.30237574664713174,0.11237574664713175,1.3047514932942634
19.622999999999998,-0.3023982869379015,0.11239828693790149,1.304796573875803
19.642999999999997,-0.30242082722867125,0.11242082722867125,1.3048416544573425
19.662999999999997,-0.302443367519441,0.11244336751944099,1.304886735038882
19.682999999999996,-0.30246590781021077,0.11246590781021075,1.3049318156204215
19.702999999999996,-0.30248844810098047,0.11248844810098049,1.304976896201961
19.722999999999995,-0.3025109883917502,0.11251098839175025,1.3050219767835005
19.742999999999995,-0.30253352868252,0.11253352868251999,1.30506705736504
19.762999999999998,-0.30255606897328974,0.11255606897328975,1.3051121379465795
19.782999999999998,-0.3025786092640595,0.1125786092640595,1.305157218528119
19.802999999999997,-0.30260114955482925,0.11260114955482925,1.3052022991096586
19.822999999999997,-0.302623689845599,0.112623689845599,1.305247379691198
19.842999999999996,-0.30264623013636877,0.11264623013636875,1.3052924602727376
19.862999999999996,-0.3026687704271385,0.1126687704271385,1.3053375408542771
19.882999999999996,-0.3026913107179082,0.11269131071790825,1.3053826214358166
19.902999999999995,-0.302713851008678,0.112713851008678,1.3054277020173561
19.923,-0.30273639129944774,0.11273639129944776,1.3054727825988957
19.942999999999998,-0.3027589315902175,0.1127589315902175,1.3055178631804352
19.962999999999997,-0.30278147188098725,0.11278147188098726,1.3055629437619747
19.982999999999997,-0.302804012171757,0.112804012171757,1.305608024343514
20.002999999999997,-0.30282655246252677,0.11282655246252676,1.3056531049250535
20.022999999999996,-0.3028490927532965,0.1128490927532965,1.305698185506593
20.042999999999996,-0.3028716330440663,0.11287163304406626,1.3057432660881325
20.062999999999995,-0.302894173334836,0.112894173334836,1.305788346669672
20.082999999999995,-0.30291671362560574,0.11291671362560576,1.3058334272512115
20.102999999999998,-0.3029392539163755,0.11293925391637552,1.305878507832751
20.122999999999998,-0.30296179420714525,0.11296179420714526,1.3059235884142906
20.142999999999997,-0.302984334497915,0.11298433449791502,1.30596866899583
20.162999999999997,-0.30300687478868477,0.11300687478868476,1.3060137495773696
20.182999999999996,-0.3030294150794545,0.11302941507945452,1.3060588301589091
20.202999999999996,-0.3030519553702243,0.11305195537022426,1.3061039107404486
20.222999999999995,-0.30307449566099404,0.11307449566099402,1.3061489913219881
20.242999999999995,-0.30309703595176374,0.11309703595176378,1.3061940719035277
20.262999999999998,-0.3031195762425335,0.11311957624253352,1.3062391524850672
20.282999999999998,-0.30314211653330325,0.11314211653330328,1.3062842330666067
20.302999999999997,-0.303164656824073,0.11316465682407302,1.3063293136481462
20.322999999999997,-0.30318719711484277,0.11318719711484278,1.3063743942296857
20.342999999999996,-0.3032097374056125,0.11320973740561252,1.306419474811225
20.362999999999996,-0.3032322776963823,0.11323227769638228,1.3064645553927645
20.382999999999996,-0.30325481798715204,0.11325481798715203,1.306509635974304
20.402999999999995,-0.3032773582779218,0.11327735827792178,1.3065547165558435
20.423,-0.30329989856869155,0.11329989856869153,1.306599797137383
20.442999999999998,-0.30332243885946125,0.11332243885946128,1.3066448777189226
20.462999999999997,-0.303344979150231,0.11334497915023103,1.306689958300462
20.482999999999997,-0.30336751944100077,0.11336751944100078,1.3067350388820016
20.502999999999997,-0.3033900597317705,0.11339005973177053,1.3067801194635411
20.522999999999996,-0.3034126000225403,0.11341260002254029,1.3068252000450806
20.542999999999996,-0.30343514031331004,0.11343514031331003,1.3068702806266201
20.562999999999995,-0.3034576806040798,0.11345768060407979,1.3069153612081597
20.582999999999995,-0.30348022089484955,0.11348022089484953,1.3069604417896992
20.602999999999998,-0.3035027611856193,0.11350276118561929,1.3070055223712387
20.622999999999998,-0.303525301476389,0.11352530147638903,1.3070506029527782
20.642999999999997,-0.30354784176715877,0.11354784176715879,1.3070956835343177
20.662999999999997,-0.3035703820579285,0.11357038205792855,1.3071407641158572
20.682999999999996,-0.3035929223486983,0.11359292234869829,1.3071858446973967
20.702999999999996,-0.30361546263946804,0.11361546263946805,1.307230925278936
20.722999999999995,-0.3036380029302378,0.11363800293023779,1.3072760058604755
20.742999999999995,-0.30366054322100755,0.11366054322100755,1.307321086442015
20.762999999999998,-0.3036830835117773,0.1136830835117773,1.3073661670235546
20.782999999999998,-0.30370562380254706,0.11370562380254705,1.307411247605094
20.802999999999997,-0.30372816409331677,0.1137281640933168,1.3074563281866336
20.822999999999997,-0.3037507043840865,0.11375070438408655,1.3075014087681731
20.842999999999996,-0.3037732446748563,0.1137732446748563,1.3075464893497126
20.862999999999996,-0.30379578496562604,0.11379578496562605,1.3075915699312521
20.882999999999996,-0.3038183252563958,0.1138183252563958,1.3076366505127917
20.902999999999995,-0.30384086554716555,0.11384086554716555,1.3076817310943312
20.923,-0.3038634058379353,0.1138634058379353,1.3077268116758707
20.942999999999998,-0.30388594612870506,0.11388594612870506,1.3077718922574102
20.962999999999997,-0.3039084864194748,0.1139084864194748,1.3078169728389497
20.982999999999997,-0.3039310267102445,0.11393102671024456,1.3078620534204892
21.002999999999997,-0.3039535670010143,0.1139535670010143,1.3079071340020287
21.022999999999996,-0.30397610729178404,0.11397610729178406,1.3079522145835683
21.042999999999996,-0.3039986475825538,0.1139986475825538,1.3079972951651078
21.062999999999995,-0.30402118787332355,0.11402118787332356,1.3080423757466473
21.082999999999995,-0.3040437281640933,0.1140437281640933,1.3080874563281866
21.102999999999998,-0.30406626845486306,0.11406626845486306,1.308132536909726
21.122999999999998,-0.3040888087456328,0.11408880874563282,1.3081776174912656
21.142999999999997,-0.3041113490364026,0.11411134903640256,1.3082226980728051
21.162999999999997,-0.30413388932717234,0.11413388932717232,1.3082677786543446
21.182999999999996,-0.30415642961794204,0.11415642961794206,1.3083128592358841
21.202999999999996,-0.3041789699087118,0.11417896990871182,1.3083579398174237
21.222999999999995,-0.30420151019948155,0.11420151019948156,1.3084030203989632
21.242999999999995,-0.3042240504902513,0.11422405049025132,1.3084481009805027
21.262999999999998,-0.30424659078102106,0.11424659078102108,1.3084931815620422
21.282999999999998,-0.3042691310717908,0.11426913107179082,1.3085382621435817
21.302999999999997,-0.3042916713625606,0.11429167136256058,1.3085833427251212
21.322999999999997,-0.30431421165333034,0.11431421165333032,1.3086284233066607
21.342999999999996,-0.3043367519441001,0.11433675194410008,1.3086735038882003
21.362999999999996,-0.3043592922348698,0.11435929223486982,1.3087185844697398
21.382999999999996,-0.30438183252563955,0.11438183252563958,1.3087636650512793
21.402999999999995,-0.3044043728164093,0.11440437281640932,1.3088087456328188
21.422999999999995,-0.30442691310717906,0.11442691310717908,1.3088538262143583
21.442999999999998,-0.3044494533979488,0.11444945339794883,1.3088989067958978
21.462999999999997,-0.3044719936887186,0.11447199368871858,1.3089439873774371
21.482999999999997,-0.30449453397948834,0.11449453397948833,1.3089890679589766
21.502999999999997,-0.3045170742702581,0.11451707427025808,1.3090341485405161
21.522999999999996,-0.30453961456102785,0.11453961456102783,1.3090792291220557
21.542999999999996,-0.30456215485179755,0.11456215485179758,1.3091243097035952
21.562999999999995,-0.3045846951425673,0.11458469514256733,1.3091693902851347
21.582999999999995,-0.30460723543333706,0.11460723543333708,1.3092144708666742
21.602999999999998,-0.3046297757241068,0.11462977572410683,1.3092595514482137
21.622999999999998,-0.3046523160148766,0.11465231601487659,1.3093046320297532
21.642999999999997,-0.30467485630564634,0.11467485630564633,1.3093497126112927
21.662999999999997,-0.3046973965964161,0.11469739659641609,1.3093947931928323
21.682999999999996,-0.30471993688718585,0.11471993688718583,1.3094398737743718
21.702999999999996,-0.3047424771779556,0.11474247717795559,1.3094849543559113
21.722999999999995,-0.3047650174687253,0.11476501746872533,1.3095300349374508
21.742999999999995,-0.30478755775949506,0.11478755775949509,1.3095751155189903
21.762999999999998,-0.3048100980502648,0.11481009805026485,1.3096201961005298
21.782999999999998,-0.3048326383410346,0.11483263834103459,1.3096652766820693
21.802999999999997,-0.30485517863180434,0.11485517863180435,1.3097103572636088
21.822999999999997,-0.3048777189225741,0.11487771892257409,1.3097554378451481
21.842999999999996,-0.30490025921334385,0.11490025921334385,1.3098005184266877
21.862999999999996,-0.3049227995041136,0.11492279950411359,1.3098455990082272
21.882999999999996,-0.30494533979488336,0.11494533979488335,1.3098906795897667
21.902999999999995,-0.3049678800856531,0.11496788008565309,1.3099357601713062
21.922999999999995,-0.3049904203764228,0.11499042037642285,1.3099808407528457
21.942999999999998,-0.3050129606671926,0.1150129606671926,1.3100259213343852
21.962999999999997,-0.30503550095796234,0.11503550095796235,1.3100710019159247
21.982999999999997,-0.3050580412487321,0.1150580412487321,1.3101160824974643
22.002999999999997,-0.30508058153950185,0.11508058153950185,1.3101611630790038
22.022999999999996,-0.3051031218302716,0.1151031218302716,1.3102062436605433
22.042999999999996,-0.30512566212104136,0.11512566212104136,1.3102513242420828
22.062999999999995,-0.3051482024118111,0.1151482024118111,1.3102964048236223
22.082999999999995,-0.3051707427025809,0.11517074270258086,1.3103414854051618
22.102999999999998,-0.3051932829933506,0.1151932829933506,1.3103865659867013
22.122999999999998,-0.30521582328412034,0.11521582328412036,1.3104316465682408
22.142999999999997,-0.3052383635748901,0.11523836357489012,1.3104767271497804
22.162999999999997,-0.30526090386565985,0.11526090386565986,1.3105218077313199
22.182999999999996,-0.3052834441564296,0.11528344415642962,1.3105668883128594
22.202999999999996,-0.30530598444719936,0.11530598444719936,1.3106119688943987
22.222999999999995,-0.3053285247379691,0.11532852473796912,1.3106570494759382
22.242999999999995,-0.3053510650287389,0.11535106502873886,1.3107021300574777
22.262999999999995,-0.30537360531950863,0.11537360531950862,1.3107472106390172
22.282999999999998,-0.3053961456102784,0.11539614561027836,1.3107922912205567
22.302999999999997,-0.3054186859010481,0.11541868590104812,1.3108373718020963
22.322999999999997,-0.30544122619181785,0.11544122619181788,1.3108824523836358
22.342999999999996,-0.3054637664825876,0.11546376648258762,1.3109275329651753
22.362999999999996,-0.30548630677335736,0.11548630677335738,1.3109726135467148
22.382999999999996,-0.3055088470641271,0.11550884706412712,1.3110176941282543
22.402999999999995,-0.3055313873548969,0.11553138735489688,1.3110627747097938
22.422999999999995,-0.30555392764566663,0.11555392764566662,1.3111078552913333
22.442999999999998,-0.3055764679364364,0.11557646793643638,1.3111529358728728
22.462999999999997,-0.30559900822720615,0.11559900822720613,1.3111980164544124
22.482999999999997,-0.30562154851797585,0.11562154851797588,1.3112430970359519
22.502999999999997,-0.3056440888087456,0.11564408880874563,1.3112881776174914
22.522999999999996,-0.30566662909951536,0.11566662909951538,1.311333258199031
22.542999999999996,-0.3056891693902851,0.11568916939028513,1.3113783387805704
22.562999999999995,-0.3057117096810549,0.11571170968105488,1.3114234193621097
22.582999999999995,-0.30573424997182463,0.11573424997182463,1.3114684999436492
22.602999999999998,-0.3057567902625944,0.11575679026259439,1.3115135805251887
22.622999999999998,-0.30577933055336415,0.11577933055336413,1.3115586611067283
22.642999999999997,-0.3058018708441339,0.11580187084413389,1.3116037416882678
22.662999999999997,-0.3058244111349036,0.11582441113490363,1.3116488222698073
22.682999999999996,-0.30584695142567336,0.11584695142567339,1.3116939028513468
22.702999999999996,-0.3058694917164431,0.11586949171644313,1.3117389834328863
22.722999999999995,-0.3058920320072129,0.11589203200721289,1.3117840640144258
22.742999999999995,-0.30591457229798263,0.11591457229798263,1.3118291445959653
22.762999999999995,-0.3059371125887524,0.11593711258875239,1.3118742251775048
22.782999999999998,-0.30595965287952215,0.11595965287952215,1.3119193057590444
22.802999999999997,-0.3059821931702919,0.11598219317029189,1.3119643863405839
22.822999999999997,-0.30600473346106166,0.11600473346106165,1.3120094669221234
22.842999999999996,-0.30602727375183136,0.11602727375183139,1.312054547503663
22.862999999999996,-0.3060498140426011,0.11604981404260115,1.3120996280852024
22.882999999999996,-0.3060723543333709,0.11607235433337089,1.312144708666742
22.902999999999995,-0.30609489462414063,0.11609489462414065,1.3121897892482814
22.922999999999995,-0.3061174349149104,0.11611743491491039,1.3122348698298207
22.942999999999998,-0.30613997520568015,0.11613997520568015,1.3122799504113603
22.962999999999997,-0.3061625154964499,0.1161625154964499,1.3123250309928998
22.982999999999997,-0.30618505578721966,0.11618505578721965,1.3123701115744393
23.002999999999997,-0.3062075960779894,0.1162075960779894,1.3124151921559788
23.022999999999996,-0.3062301363687591,0.11623013636875915,1.3124602727375183
23.042999999999996,-0.3062526766595289,0.1162526766595289,1.3125053533190578
23.062999999999995,-0.30627521695029863,0.11627521695029865,1.3125504339005973
23.082999999999995,-0.3062977572410684,0.1162977572410684,1.3125955144821368
23.102999999999994,-0.30632029753183815,0.11632029753183815,1.3126405950636764
23.122999999999998,-0.3063428378226079,0.1163428378226079,1.3126856756452159
23.142999999999997,-0.30636537811337766,0.11636537811337766,1.3127307562267554
23.162999999999997,-0.3063879184041474,0.1163879184041474,1.312775836808295
23.182999999999996,-0.3064104586949172,0.11641045869491716,1.3128209173898344
23.202999999999996,-0.3064329989856869,0.1164329989856869,1.312865997971374
23.222999999999995,-0.30645553927645663,0.11645553927645666,1.3129110785529134
23.242999999999995,-0.3064780795672264,0.1164780795672264,1.312956159134453
23.262999999999995,-0.30650061985799615,0.11650061985799616,1.3130012397159925
23.282999999999998,-0.3065231601487659,0.11652316014876592,1.313046320297532
23.302999999999997,-0.30654570043953566,0.11654570043953566,1.3130914008790713
23.322999999999997,-0.3065682407303054,0.11656824073030542,1.3131364814606108
23.342999999999996,-0.3065907810210752,0.11659078102107516,1.3131815620421503
23.362999999999996,-0.30661332131184493,0.11661332131184492,1.3132266426236898
23.382999999999996,-0.3066358616026147,0.11663586160261466,1.3132717232052293
23.402999999999995,-0.3066584018933844,0.11665840189338442,1.3133168037867688
23.422999999999995,-0.30668094218415415,0.11668094218415417,1.3133618843683084
23.442999999999998,-0.3067034824749239,0.11670348247492392,1.3134069649498479
23.462999999999997,-0.30672602276569366,0.11672602276569367,1.3134520455313874
23.482999999999997,-0.3067485630564634,0.11674856305646342,1.313497126112927
23.502999999999997,-0.3067711033472332,0.11677110334723317,1.3135422066944664
23.522999999999996,-0.30679364363800293,0.11679364363800293,1.313587287276006
23.542999999999996,-0.3068161839287727,0.11681618392877267,1.3136323678575454
23.562999999999995,-0.30683872421954245,0.11683872421954243,1.313677448439085
23.582999999999995,-0.30686126451031215,0.11686126451031217,1.3137225290206245
23.602999999999994,-0.3068838048010819,0.11688380480108193,1.313767609602164
23.622999999999998,-0.30690634509185166,0.11690634509185167,1.3138126901837035
23.642999999999997,-0.3069288853826214,0.11692888538262143,1.313857770765243
23.662999999999997,-0.3069514256733912,0.11695142567339117,1.3139028513467825
23.682999999999996,-0.30697396596416093,0.11697396596416093,1.3139479319283218
23.702999999999996,-0.3069965062549307,0.11699650625493069,1.3139930125098613
23.722999999999995,-0.30701904654570045,0.11701904654570043,1.3140380930914008
23.742999999999995,-0.3070415868364702,0.11704158683647019,1.3140831736729404
23.762999999999995,-0.3070641271272399,0.11706412712723993,1.3141282542544799
23.782999999999998,-0.30708666741800966,0.11708666741800969,1.3141733348360194
23.802999999999997,-0.3071092077087794,0.11710920770877944,1.314218415417559
23.822999999999997,-0.3071317479995492,0.11713174799954919,1.3142634959990984
23.842999999999996,-0.30715428829031893,0.11715428829031894,1.314308576580638
23.862999999999996,-0.3071768285810887,0.11717682858108869,1.3143536571621774
23.882999999999996,-0.30719936887185845,0.11719936887185844,1.314398737743717
23.902999999999995,-0.3072219091626282,0.11722190916262819,1.3144438183252565
23.922999999999995,-0.30724444945339796,0.11724444945339794,1.314488898906796
23.942999999999994,-0.30726698974416766,0.11726698974416769,1.3145339794883355
23.962999999999997,-0.3072895300349374,0.11728953003493744,1.314579060069875
23.982999999999997,-0.3073120703257072,0.1173120703257072,1.3146241406514145
24.002999999999997,-0.30733461061647693,0.11733461061647694,1.314669221232954
24.022999999999996,-0.3073571509072467,0.1173571509072467,1.3147143018144936
24.042999999999996,-0.30737969119801645,0.11737969119801644,1.3147593823960328
24.062999999999995,-0.3074022314887862,0.1174022314887862,1.3148044629775724
24.082999999999995,-0.30742477177955596,0.11742477177955594,1.3148495435591119
24.102999999999994,-0.3074473120703257,0.1174473120703257,1.3148946241406514
24.122999999999998,-0.3074698523610955,0.11746985236109546,1.314939704722191
24.142999999999997,-0.3074923926518652,0.1174923926518652,1.3149847853037304
24.162999999999997,-0.30751493294263493,0.11751493294263496,1.31502986588527
24.182999999999996,-0.3075374732334047,0.1175374732334047,1.3150749464668094
24.202999999999996,-0.30756001352417445,0.11756001352417446,1.315120027048349
24.222999999999995,-0.3075825538149442,0.1175825538149442,1.3151651076298885
24.242999999999995,-0.30760509410571396,0.11760509410571396,1.315210188211428
24.262999999999995,-0.3076276343964837,0.1176276343964837,1.3152552687929675
24.282999999999998,-0.3076501746872535,0.11765017468725346,1.315300349374507
24.302999999999997,-0.30767271497802323,0.11767271497802322,1.3153454299560465
24.322999999999997,-0.30769525526879293,0.11769525526879296,1.315390510537586
24.342999999999996,-0.3077177955595627,0.11771779555956272,1.3154355911191256
24.362999999999996,-0.30774033585033245,0.11774033585033246,1.315480671700665
24.382999999999996,-0.3077628761411022,0.11776287614110222,1.3155257522822046
24.402999999999995,-0.30778541643187196,0.11778541643187196,1.315570832863744
24.422999999999995,-0.3078079567226417,0.11780795672264172,1.3156159134452834
24.442999999999994,-0.3078304970134115,0.11783049701341146,1.315660994026823
24.462999999999997,-0.30785303730418123,0.11785303730418122,1.3157060746083624
24.482999999999997,-0.307875577594951,0.11787557759495097,1.315751155189902
24.502999999999997,-0.30789811788572075,0.11789811788572072,1.3157962357714414
24.522999999999996,-0.30792065817649045,0.11792065817649047,1.315841316352981
24.542999999999996,-0.3079431984672602,0.11794319846726022,1.3158863969345205
24.562999999999995,-0.30796573875802996,0.11796573875802997,1.31593147751606
24.582999999999995,-0.3079882790487997,0.11798827904879972,1.3159765580975995
24.602999999999994,-0.3080108193395695,0.11801081933956947,1.316021638679139
24.622999999999998,-0.30803335963033923,0.11803335963033923,1.3160667192606785
24.642999999999997,-0.308055899921109,0.11805589992110897,1.316111799842218
24.662999999999997,-0.30807844021187875,0.11807844021187873,1.3161568804237576
24.682999999999996,-0.3081009805026485,0.11810098050264847,1.316201961005297
24.702999999999996,-0.3081235207934182,0.11812352079341823,1.3162470415868366
24.722999999999995,-0.30814606108418796,0.11814606108418797,1.316292122168376
24.742999999999995,-0.3081686013749577,0.11816860137495773,1.3163372027499156
24.762999999999995,-0.3081911416657275,0.11819114166572747,1.3163822833314551
24.782999999999994,-0.30821368195649723,0.11821368195649723,1.3164273639129944
24.802999999999997,-0.308236222247267,0.11823622224726699,1.316472444494534
24.822999999999997,-0.30825876253803675,0.11825876253803673,1.3165175250760734
24.842999999999996,-0.3082813028288065,0.11828130282880649,1.316562605657613
24.862999999999996,-0.30830384311957626,0.11830384311957623,1.3166076862391525
24.882999999999996,-0.30832638341034596,0.11832638341034599,1.316652766820692
24.902999999999995,-0.3083489237011157,0.11834892370111574,1.3166978474022315
24.922999999999995,-0.3083714639918855,0.11837146399188549,1.316742927983771
24.942999999999994,-0.30839400428265523,0.11839400428265523,1.3167880085653105
24.962999999999997,-0.308416544573425,0.11841654457342499,1.31683308914685
24.982999999999997,-0.30843908486419475,0.11843908486419474,1.3168781697283896
25.002999999999997,-0.3084616251549645,0.11846162515496449,1.316923250309929
25.022999999999996,-0.30848416544573426,0.11848416544573424,1.3169683308914686
25.042999999999996,-0.308506705736504,0.11850670573650399,1.317013411473008
25.062999999999995,-0.3085292460272737,0.11852924602727374,1.3170584920545476
25.082999999999995,-0.3085517863180435,0.1185517863180435,1.3171035726360871
25.102999999999994,-0.30857432660881323,0.11857432660881324,1.3171486532176266
25.122999999999998,-0.308596866899583,0.118596866899583,1.3171937337991662
25.142999999999997,-0.30861940719035275,0.11861940719035274,1.3172388143807057
25.162999999999997,-0.3086419474811225,0.1186419474811225,1.317283894962245
25.182999999999996,-0.30866448777189226,0.11866448777189226,1.3173289755437845
25.202999999999996,-0.308687028062662,0.118687028062662,1.317374056125324
25.222999999999995,-0.3087095683534318,0.11870956835343174,1.3174191367068635
25.242999999999995,-0.3087321086442015,0.1187321086442015,1.317464217288403
25.262999999999995,-0.30875464893497123,0.11875464893497126,1.3175092978699425
25.282999999999994,-0.308777189225741,0.118777189225741,1.317554378451482
25.302999999999997,-0.30879972951651075,0.11879972951651076,1.3175994590330216
25.322999999999997,-0.3088222698072805,0.1188222698072805,1.317644539614561
25.342999999999996,-0.30884481009805026,0.11884481009805026,1.3176896201961006
25.362999999999996,-0.30886735038882,0.11886735038882001,1.31773470077764
25.382999999999996,-0.3088898906795898,0.11888989067958976,1.3177797813591796
25.402999999999995,-0.30891243097035953,0.11891243097035951,1.3178248619407191
25.422999999999995,-0.30893497126112923,0.11893497126112926,1.3178699425222586
25.442999999999994,-0.308957511551899,0.11895751155189901,1.3179150231037982
25.462999999999997,-0.30898005184266875,0.11898005184266877,1.3179601036853377
25.482999999999997,-0.3090025921334385,0.11900259213343851,1.3180051842668772
25.502999999999997,-0.30902513242420826,0.11902513242420827,1.3180502648484167
25.522999999999996,-0.309047672714978,0.11904767271497801,1.3180953454299562
25.542999999999996,-0.3090702130057478,0.11907021300574777,1.3181404260114955
25.562999999999995,-0.30909275329651753,0.11909275329651751,1.318185506593035
25.582999999999995,-0.3091152935872873,0.11911529358728727,1.3182305871745745
25.602999999999994,-0.30913783387805704,0.11913783387805701,1.318275667756114
25.622999999999994,-0.30916037416882675,0.11916037416882677,1.3183207483376536
25.642999999999997,-0.3091829144595965,0.11918291445959653,1.318365828919193
25.662999999999997,-0.30920545475036626,0.11920545475036627,1.3184109095007326
25.682999999999996,-0.309227995041136,0.11922799504113603,1.318455990082272
25.702999999999996,-0.3092505353319058,0.11925053533190577,1.3185010706638116
25.722999999999995,-0.30927307562267553,0.11927307562267553,1.3185461512453511
25.742999999999995,-0.3092956159134453,0.11929561591344527,1.3185912318268906
25.762999999999995,-0.30931815620421504,0.11931815620421503,1.3186363124084302
25.782999999999994,-0.3093406964949848,0.11934069649498477,1.3186813929899697
25.802999999999997,-0.3093632367857545,0.11936323678575453,1.3187264735715092
25.822999999999997,-0.30938577707652426,0.11938577707652429,1.3187715541530487
25.842999999999996,-0.309408317367294,0.11940831736729403,1.3188166347345882
25.862999999999996,-0.3094308576580638,0.11943085765806379,1.3188617153161277
25.882999999999996,-0.30945339794883353,0.11945339794883353,1.3189067958976672
25.902999999999995,-0.3094759382396033,0.11947593823960329,1.3189518764792065
25.922999999999995,-0.30949847853037304,0.11949847853037303,1.318996957060746
25.942999999999994,-0.3095210188211428,0.11952101882114279,1.3190420376422856
25.962999999999997,-0.30954355911191256,0.11954355911191254,1.319087118223825
25.982999999999997,-0.3095660994026823,0.11956609940268229,1.3191321988053646
26.002999999999997,-0.309588639693452,0.11958863969345204,1.319177279386904
26.022999999999996,-0.3096111799842218,0.11961117998422179,1.3192223599684436
26.042999999999996,-0.30963372027499153,0.11963372027499154,1.3192674405499831
26.062999999999995,-0.3096562605657613,0.11965626056576129,1.3193125211315226
26.082999999999995,-0.30967880085653104,0.11967880085653104,1.3193576017130622
26.102999999999994,-0.3097013411473008,0.11970134114730079,1.3194026822946017
26.122999999999994,-0.30972388143807056,0.11972388143807054,1.3194477628761412
26.142999999999997,-0.3097464217288403,0.1197464217288403,1.3194928434576807
26.162999999999997,-0.3097689620196101,0.11976896201961004,1.3195379240392202
26.182999999999996,-0.3097915023103798,0.1197915023103798,1.3195830046207597
26.202999999999996,-0.30981404260114953,0.11981404260114954,1.3196280852022992
26.222999999999995,-0.3098365828919193,0.1198365828919193,1.3196731657838388
26.242999999999995,-0.30985912318268904,0.11985912318268904,1.3197182463653783
26.262999999999995,-0.3098816634734588,0.1198816634734588,1.3197633269469176
26.282999999999994,-0.30990420376422856,0.11990420376422856,1.319808407528457
26.302999999999997,-0.3099267440549983,0.1199267440549983,1.3198534881099966
26.322999999999997,-0.3099492843457681,0.11994928434576806,1.319898568691536
26.342999999999996,-0.30997182463653783,0.1199718246365378,1.3199436492730756
26.362999999999996,-0.30999436492730753,0.11999436492730756,1.3199887298546151
26.382999999999996,1.4099999999998223,0.8099999999999645,-3.260000000000071
26.402999999999995,2.0499999999999527,0.2833333333334439,-3.023333333333349
26.422999999999995,2.15,-0.22999999999992007,-2.860000000000027
26.442999999999994,2.0425000000000466,-0.6849999999999068,-2.670000000000062
26.462999999999997,1.700000000000071,-1.0799999999999468,-2.380000000000071
26.482999999999997,1.3466666666667457,-1.1133333333333493,-2.0466666666667455
26.502999999999997,0.9266666666667456,-0.9966666666666982,-1.6000000000000947
26.522999999999996,0.5100000000000355,-0.8300000000000177,-1.1100000000000532
26.542999999999996,0.2200000000000533,-0.6000000000000533,-0.6500000000000888
26.562999999999995,0.05666666666669825,-0.36333333333339646,-0.31333333333339647
26.582999999999995,-0.07999999999998224,-0.01000000000008882,-0.02000000000005329
26.602999999999994,-0.13499999999997336,0.4499999999998401,0.2649999999998668
26.622999999999994,-0.31999999999995266,0.6333333333333492,0.6533333333332544
26.642999999999997,-0.4999999999999911,0.58,0.9699999999999644
26.662999999999997,-0.56,0.5300000000000089,1.2999999999999645
26.682999999999996,-0.6349999999999911,0.5050000000000089,1.764999999999938
26.702999999999996,-0.6533333333333492,0.38666666666669824,2.336666666666556
26.722999999999995,-0.48000000000004733,0.20666666666669825,2.823333333333254
26.742999999999995,-0.16000000000007106,0.09000000000001776,3.069999999999982
26.762999999999995,0.11999999999989341,0.030000000000035526,2.9500000000001068
26.782999999999994,0.32999999999995266,-0.08666666666665088,2.6800000000000472
26.802999999999997,0.4,-0.18999999999996448,2.380000000000053
26.822999999999997,0.24000000000005328,-0.25999999999998225,2.1400000000000534
26.842999999999996,-0.1499999999998934,-0.22000000000001776,1.9900000000000355
26.862999999999996,-0.6266666666665561,-0.01666666666674562,1.9966666666666508
26.882999999999996,-1.0933333333332544,0.39999999999990526,2.1333333333333018
26.902999999999995,-1.4199999999999466,0.8499999999999289,2.2799999999999643
26.922999999999995,-1.54,1.1199999999999735,2.36
26.942999999999994,-1.4950000000000268,1.2,2.38
26.962999999999994,-1.30500000000004,1.1050000000000133,2.345000000000013
26.982999999999997,-1.0600000000001066,1.0100000000000355,2.250000000000071
27.002999999999997,-0.8433333333333491,0.8966666666666983,2.1133333333333493
27.022999999999996,-0.7600000000000178,0.7600000000000178,2.0300000000000176
27.042999999999996,-0.7133333333333491,0.7766666666666509,1.99
27.062999999999995,-0.68,0.8,1.9400000000000177
27.082999999999995,-0.67,0.7433333333333492,1.8566666666666984
27.102999999999994,-0.6000000000000355,0.6200000000000355,1.640000000000142
27.122999999999994,-0.5200000000000355,0.41000000000010656,1.3100000000001777
27.142999999999997,-0.4200000000000355,0.07000000000008882,0.9100000000000888
27.162999999999997,-0.31000000000001776,-0.29999999999991117,0.4800000000000888
27.182999999999996,-0.19000000000001777,-0.5599999999999823,0.13000000000007106
27.202999999999996,-0.08000000000001184,-0.6200000000000119,-0.10999999999997631
27.222999999999995,0.009999999999988157,-0.5400000000000119,-0.3499999999999526
27.242999999999995,0.05,-0.35000000000004733,-0.6199999999999526
27.262999999999995,0.12999999999997633,-0.08000000000007106,-0.9399999999999052
27.282999999999994,0.31999999999992895,0.04,-1.399999999999834
27.302999999999997,0.6099999999999467,-0.1199999999999467,-1.999999999999858
27.322999999999997,0.8899999999999467,-0.4899999999999112,-2.6199999999998758
27.342999999999996,1.0049999999999821,-0.8849999999999112,-3.1299999999998938
27.362999999999996,0.9500000000000177,-1.1499999999999821,-3.569999999999929
27.382999999999996,0.7800000000000533,-1.1300000000000177,-3.71
27.402999999999995,0.6400000000000533,-0.9000000000001066,-3.695000000000027
27.422999999999995,0.5475000000000134,-0.4650000000000799,-3.5850000000000266
27.442999999999994,0.5199999999999645,0.06999999999978684,-3.3900000000001067
27.462999999999994,0.6499999999998579,0.4499999999997158,-3.2200000000001423
27.482999999999997,0.9199999999999526,0.6199999999999881,-3.080000000000012
27.502999999999997,1.1999999999999644,0.5800000000000118,-3.02
27.522999999999996,1.4049999999999467,0.36000000000007104,-2.99
27.542999999999996,1.599999999999929,0.050000000000106584,-2.99
27.562999999999995,1.7399999999999645,-0.23999999999992894,-2.970000000000018
27.582999999999995,1.8,-0.46999999999996445,-2.8200000000000354
27.602999999999994,1.690000000000071,-0.7399999999998934,-2.510000000000142
27.622999999999994,1.3900000000001183,-0.8500000000000236,-2.0300000000001654
27.642999999999997,0.9200000000000711,-0.6900000000000236,-1.4800000000000948
27.662999999999997,0.43000000000007105,-0.39000000000005924,-0.950000000000071
27.682999999999996,0.08000000000004737,0.029999999999940786,-0.4800000000000592
27.702999999999996,-0.14999999999996447,0.2899999999999763,-0.030000000000059215
27.722999999999995,-0.22,0.35,0.34999999999994075
27.742999999999995,-0.15000000000001185,0.22000000000003553,0.7199999999999408
27.762999999999995,-0.09999999999997632,-0.00999999999992894,1.0799999999999053
27.782999999999994,-0.19999999999995263,-0.19999999999995263,1.359999999999929
27.802999999999994,-0.3374999999999867,-0.24250000000001332,1.6299999999999466
27.822999999999997,-0.4966666666666509,-0.14666666666667455,1.9666666666666273
27.842999999999996,-0.59,-0.05000000000001185,2.2899999999999525
27.862999999999996,-0.61,0.07999999999992895,2.5399999999998935
27.882999999999996,-0.5900000000000118,0.17,2.64
27.902999999999995,-0.56,0.18,2.65
27.922999999999995,-0.5299893617021277,0.15,2.5999787234042553
27.942999999999994,-0.5299539007092199,0.15,2.59990780141844
27.962999999999994,-0.5299184397163121,0.15,2.5998368794326243
27.982999999999997,-0.5298829787234043,0.15,2.5997659574468086
28.002999999999997,-0.5298475177304965,0.15,2.599695035460993
28.022999999999996,-0.5298120567375887,0.15,2.5996241134751776
28.042999999999996,-0.5297765957446808,0.15,2.599553191489362
28.062999999999995,-0.5297411347517731,0.15,2.599482269503546
28.082999999999995,-0.5297056737588652,0.15,2.5994113475177305
28.102999999999994,-0.5296702127659575,0.15,2.599340425531915
28.122999999999994,-0.5296347517730496,0.15,2.5992695035460995
28.142999999999997,-0.5295992907801419,0.15,2.599198581560284
28.162999999999997,-0.529563829787234,0.15,2.599127659574468
28.182999999999996,-0.5295283687943263,0.15,2.5990567375886524
28.202999999999996,-0.5294929078014184,0.15,2.598985815602837
28.222999999999995,-0.5294574468085107,0.15,2.5989148936170214
28.242999999999995,-0.5294219858156028,0.15,2.5988439716312057
28.262999999999995,-0.5293865248226951,0.15,2.59877304964539
28.282999999999994,-0.5293510638297872,0.15,2.5987021276595748
28.302999999999994,-0.5293156028368795,0.15,2.598631205673759
28.322999999999997,-0.5292801418439717,0.15,2.5985602836879433
28.342999999999996,-0.5292446808510639,0.15,2.5984893617021276
28.362999999999996,-0.529209219858156,0.15,2.5984184397163124
28.382999999999996,-0.5291737588652483,0.15,2.5983475177304967
28.402999999999995,-0.5291382978723405,0.15,2.598276595744681
28.422999999999995,-0.5291028368794327,0.15,2.5982056737588652
28.442999999999994,-0.5290673758865249,0.15,2.59813475177305
28.462999999999994,-0.529031914893617,0.15,2.5980638297872343
28.482999999999997,-0.5289964539007093,0.15,2.5979929078014186
28.502999999999997,-0.5289609929078014,0.15,2.597921985815603
28.522999999999996,-0.5289255319148937,0.15,2.597851063829787
28.542999999999996,-0.5288900709219858,0.15,2.597780141843972
28.562999999999995,-0.5288546099290781,0.15,2.597709219858156
28.582999999999995,-0.5288191489361702,0.15,2.5976382978723405
28.602999999999994,-0.5287836879432625,0.15,2.5975673758865248
28.622999999999994,-0.5287482269503546,0.15,2.5974964539007095
28.642999999999994,-0.5287127659574469,0.15,2.597425531914894
28.662999999999997,-0.528677304964539,0.15,2.597354609929078
28.682999999999996,-0.5286418439716313,0.15,2.5972836879432624
28.702999999999996,-0.5286063829787234,0.15,2.597212765957447
28.722999999999995,-0.5285709219858157,0.15,2.5971418439716314
28.742999999999995,-0.5285354609929078,0.15,2.5970709219858157
28.762999999999995,-0.5285000000000001,0.15,2.597
28.782999999999994,-0.5284645390070922,0.15,2.5969290780141847
28.802999999999994,-0.5284290780141845,0.15,2.596858156028369
28.822999999999997,-0.5283936170212766,0.15,2.5967872340425533
28.842999999999996,-0.5283581560283688,0.15,2.5967163120567376
28.862999999999996,-0.528322695035461,0.15,2.596645390070922
28.882999999999996,-0.5282872340425532,0.15,2.5965744680851066
28.902999999999995,-0.5282517730496454,0.15,2.596503546099291
28.922999999999995,-0.5282163120567376,0.15,2.596432624113475
28.942999999999994,-0.5281808510638298,0.15,2.5963617021276595
28.962999999999994,-0.528145390070922,0.15,2.5962907801418442
28.982999999999997,-0.5281099290780142,0.15,2.5962198581560285
29.002999999999997,-0.5280744680851064,0.15,2.596148936170213
29.022999999999996,-0.5280390070921986,0.15,2.596078014184397
29.042999999999996,-0.5280035460992908,0.15,2.596007092198582
29.062999999999995,-0.527968085106383,0.15,2.595936170212766
29.082999999999995,-0.5279326241134752,0.15,2.5958652482269504
29.102999999999994,-0.5278971631205674,0.15,2.5957943262411347
29.122999999999994,-0.5278617021276596,0.15,2.5957234042553194
29.142999999999994,-0.5278262411347519,0.15,2.5956524822695037
29.162999999999997,-0.527790780141844,0.15,2.595581560283688
29.182999999999996,-0.5277553191489363,0.15,2.5955106382978723
29.202999999999996,-0.5277198581560284,0.15,2.595439716312057
29.222999999999995,-0.5276843971631207,0.15,2.5953687943262413
29.242999999999995,-0.5276489361702128,0.15,2.5952978723404256
29.262999999999995,-0.527613475177305,0.15,2.59522695035461
29.282999999999994,-0.5275780141843972,0.15,2.595156028368794
29.302999999999994,-0.5275425531914893,0.15,2.595085106382979
29.322999999999997,-0.5275070921985816,0.15,2.5950141843971632
29.342999999999996,-0.5274716312056738,0.15,2.5949432624113475
29.362999999999996,-0.527436170212766,0.15,2.594872340425532
29.382999999999996,-0.5274007092198582,0.15,2.5948014184397166
29.402999999999995,-0.5273652482269504,0.15,2.594730496453901
29.422999999999995,-0.5273297872340426,0.15,2.594659574468085
29.442999999999994,-0.5272943262411348,0.15,2.5945886524822694
29.462999999999994,-0.527258865248227,0.15,2.594517730496454
29.482999999999993,-0.5272234042553192,0.15,2.5944468085106385
29.502999999999997,-0.5271879432624114,0.15,2.5943758865248228
29.522999999999996,-0.5271524822695036,0.15,2.594304964539007
29.542999999999996,-0.5271170212765958,0.15,2.594234042553192
29.562999999999995,-0.527081560283688,0.15,2.594163120567376
29.582999999999995,-0.5270460992907802,0.15,2.5940921985815604
29.602999999999994,-0.5270106382978724,0.15,2.5940212765957447
29.622999999999994,-0.5269751773049646,0.15,2.5939503546099294
29.642999999999994,-0.5269397163120568,0.15,2.5938794326241137
29.662999999999997,-0.526904255319149,0.15,2.593808510638298
29.682999999999996,-0.5268687943262411,0.15,2.5937375886524823
29.702999999999996,-0.5268333333333334,0.15,2.5936666666666666
29.722999999999995,-0.5267978723404255,0.15,2.5935957446808513
29.742999999999995,-0.5267624113475178,0.15,2.5935248226950356
29.762999999999995,-0.5267269503546099,0.15,2.59345390070922
29.782999999999994,-0.5266914893617022,0.15,2.593382978723404
29.802999999999994,-0.5266560283687943,0.15,2.593312056737589
29.822999999999997,-0.5266205673758866,0.15,2.593241134751773
29.842999999999996,-0.5265851063829787,0.15,2.5931702127659575
29.862999999999996,-0.526549645390071,0.15,2.593099290780142
29.882999999999996,-0.5265141843971631,0.15,2.5930283687943265
29.902999999999995,-0.5264787234042554,0.15,2.592957446808511
29.922999999999995,-0.5264432624113475,0.15,2.592886524822695
29.942999999999994,-0.5264078014184398,0.15,2.5928156028368794
29.962999999999994,-0.5263723404255319,0.15,2.592744680851064
29.982999999999993,-0.5263368794326242,0.15,2.5926737588652484
30.002999999999997,-0.5263014184397163,0.15,2.5926028368794327
30.022999999999996,-0.5262659574468086,0.15,2.592531914893617
30.042999999999996,-0.5262304964539007,0.15,2.5924609929078017
30.062999999999995,-0.5261950354609929,0.15,2.592390070921986
30.082999999999995,-0.5261595744680851,0.15,2.5923191489361703
30.102999999999994,-0.5261241134751773,0.15,2.5922482269503546
30.122999999999994,-0.5260886524822695,0.15,2.592177304964539
30.142999999999994,-0.5260531914893617,0.15,2.5921063829787236
30.162999999999997,-0.526017730496454,0.15,2.592035460992908
30.182999999999996,-0.5259822695035461,0.15,2.5919645390070922
30.202999999999996,-0.5259468085106384,0.15,2.5918936170212765
30.222999999999995,-0.5259113475177305,0.15,2.5918226950354613
30.242999999999995,-0.5258758865248228,0.15,2.5917517730496455
30.262999999999995,-0.5258404255319149,0.15,2.59168085106383
30.282999999999994,-0.5258049645390072,0.15,2.591609929078014
30.302999999999994,-0.5257695035460993,0.15,2.591539007092199
30.322999999999993,-0.5257340425531916,0.15,2.591468085106383
30.342999999999996,-0.5256985815602837,0.15,2.5913971631205674
30.362999999999996,-0.525663120567376,0.15,2.5913262411347517
30.382999999999996,-0.5256276595744681,0.15,2.5912553191489365
30.402999999999995,-0.5255921985815604,0.15,2.5911843971631208
30.422999999999995,-0.5255567375886525,0.15,2.591113475177305
30.442999999999994,-0.5255212765957448,0.15,2.5910425531914894
30.462999999999994,-0.5254858156028369,0.15,2.590971631205674
30.482999999999993,-0.5254503546099292,0.15,2.5909007092198584
30.502999999999997,-0.5254148936170213,0.15,2.5908297872340427
30.522999999999996,-0.5253794326241135,0.15,2.590758865248227
30.542999999999996,-0.5253439716312057,0.15,2.5906879432624113
30.562999999999995,-0.5253085106382979,0.15,2.590617021276596
30.582999999999995,-0.5252730496453901,0.15,2.5905460992907803
30.602999999999994,-0.5252375886524823,0.15,2.5904751773049646
30.622999999999994,-0.5252021276595745,0.15,2.590404255319149
30.642999999999994,-0.5251666666666667,0.15,2.5903333333333336
30.662999999999997,-0.5251312056737589,0.15,2.590262411347518
30.682999999999996,-0.5250957446808511,0.15,2.590191489361702
30.702999999999996,-0.5250602836879433,0.15,2.5901205673758865
30.722999999999995,-0.5250248226950355,0.15,2.590049645390071
30.742999999999995,-0.5249893617021277,0.15,2.5899787234042555
30.762999999999995,-0.5249539007092199,0.15,2.58990780141844
30.782999999999994,-0.5249184397163121,0.15,2.589836879432624
30.802999999999994,-0.5248829787234043,0.15,2.589765957446809
30.822999999999993,-0.5248475177304965,0.15,2.589695035460993
30.842999999999996,-0.5248120567375887,0.15,2.5896241134751774
30.862999999999996,-0.5247765957446808,0.15,2.5895531914893617
30.882999999999996,-0.5247411347517731,0.15,2.589482269503546
30.902999999999995,-0.5247056737588652,0.15,2.5894113475177307
30.922999999999995,-0.5246702127659575,0.15,2.589340425531915
30.942999999999994,-0.5246347517730496,0.15,2.5892695035460993
30.962999999999994,-0.5245992907801419,0.15,2.5891985815602836
30.982999999999993,-0.524563829787234,0.15,2.5891276595744683
31.002999999999997,-0.5245283687943263,0.15,2.5890567375886526
31.022999999999996,-0.5244929078014184,0.15,2.588985815602837
31.042999999999996,-0.5244574468085107,0.15,2.588914893617021
31.062999999999995,-0.5244219858156028,0.15,2.588843971631206
31.082999999999995,-0.5243865248226951,0.15,2.5887730496453902
31.102999999999994,-0.5243510638297872,0.15,2.5887021276595745
31.122999999999994,-0.5243156028368795,0.15,2.588631205673759
31.142999999999994,-0.5242801418439716,0.15,2.5885602836879436
31.162999999999997,-0.5242446808510639,0.15,2.588489361702128
31.182999999999996,-0.524209219858156,0.15,2.588418439716312
31.202999999999996,-0.5241737588652483,0.15,2.5883475177304964
31.222999999999995,-0.5241382978723405,0.15,2.588276595744681
31.242999999999995,-0.5241028368794327,0.15,2.5882056737588655
31.262999999999995,-0.5240673758865249,0.15,2.5881347517730497
31.282999999999994,-0.524031914893617,0.15,2.588063829787234
31.302999999999994,-0.5239964539007093,0.15,2.5879929078014183
31.322999999999993,-0.5239609929078014,0.15,2.587921985815603
31.342999999999996,-0.5239255319148937,0.15,2.5878510638297874
31.362999999999996,-0.5238900709219858,0.15,2.5877801418439716
31.382999999999996,-0.5238546099290781,0.15,2.587709219858156
31.402999999999995,-0.5238191489361702,0.15,2.5876382978723407
31.422999999999995,-0.5237836879432625,0.15,2.587567375886525
31.442999999999994,-0.5237482269503546,0.15,2.5874964539007093
31.462999999999994,-0.5237127659574469,0.15,2.5874255319148936
31.482999999999993,-0.523677304964539,0.15,2.5873546099290783
31.502999999999997,-0.5236418439716313,0.15,2.5872836879432626
31.522999999999996,-0.5236063829787234,0.15,2.587212765957447
31.542999999999996,-0.5235709219858157,0.15,2.587141843971631
31.562999999999995,-0.5235354609929078,0.15,2.587070921985816
31.582999999999995,-0.5235000000000001,0.15,2.587
31.602999999999994,-0.5234645390070922,0.15,2.5869290780141845
31.622999999999994,-0.5234290780141845,0.15,2.5868581560283688
31.642999999999994,-0.5233936170212766,0.15,2.5867872340425535
31.662999999999993,-0.5233581560283689,0.15,2.586716312056738
31.682999999999996,-0.523322695035461,0.15,2.586645390070922
31.702999999999996,-0.5232872340425532,0.15,2.5865744680851064
31.722999999999995,-0.5232517730496454,0.15,2.5865035460992907
31.742999999999995,-0.5232163120567376,0.15,2.5864326241134754
31.762999999999995,-0.5231808510638298,0.15,2.5863617021276597
31.782999999999994,-0.523145390070922,0.15,2.586290780141844
31.802999999999994,-0.5231099290780142,0.15,2.5862198581560283
31.822999999999993,-0.5230744680851064,0.15,2.586148936170213
31.842999999999996,-0.5230390070921986,0.15,2.5860780141843973
31.862999999999996,-0.5230035460992908,0.15,2.5860070921985816
31.882999999999996,-0.522968085106383,0.15,2.585936170212766
31.902999999999995,-0.5229326241134752,0.15,2.5858652482269506
31.922999999999995,-0.5228971631205674,0.15,2.585794326241135
31.942999999999994,-0.5228617021276596,0.15,2.585723404255319
31.962999999999994,-0.5228262411347518,0.15,2.5856524822695035
31.982999999999993,-0.522790780141844,0.15,2.5855815602836882
32.003,-0.5227553191489362,0.15,2.5855106382978725
32.022999999999996,-0.5227198581560284,0.15,2.585439716312057
32.043,-0.5226843971631205,0.15,2.585368794326241
32.062999999999995,-0.5226489361702128,0.15,2.585297872340426
32.083,-0.5226134751773049,0.15,2.58522695035461
32.103,-0.5225780141843972,0.15,2.5851560283687944
32.123,-0.5225425531914893,0.15,2.5850851063829787
32.143,-0.5225070921985816,0.15,2.585014184397163
32.163,-0.5224716312056737,0.15,2.5849432624113478
32.183,-0.522436170212766,0.15,2.584872340425532
32.202999999999996,-0.5224007092198582,0.15,2.5848014184397163
32.223,-0.5223652482269504,0.15,2.5847304964539006
32.242999999999995,-0.5223297872340426,0.15,2.5846595744680854
32.263,-0.5222943262411348,0.15,2.5845886524822697
32.283,-0.522258865248227,0.15,2.584517730496454
32.303,-0.5222234042553192,0.15,2.5844468085106382
32.323,-0.5221879432624114,0.15,2.584375886524823
32.342999999999996,-0.5221524822695036,0.15,2.5843049645390073
32.363,-0.5221170212765958,0.15,2.5842340425531916
32.382999999999996,-0.522081560283688,0.15,2.584163120567376
32.403,-0.5220460992907802,0.15,2.5840921985815606
32.423,-0.5220106382978723,0.15,2.584021276595745
32.443,-0.5219751773049646,0.15,2.583950354609929
32.463,-0.5219397163120567,0.15,2.5838794326241135
32.483,-0.521904255319149,0.15,2.5838085106382978
32.503,-0.5218687943262411,0.15,2.5837375886524825
32.522999999999996,-0.5218333333333334,0.15,2.583666666666667
32.543,-0.5217978723404255,0.15,2.583595744680851
32.562999999999995,-0.5217624113475178,0.15,2.5835248226950354
32.583,-0.5217269503546099,0.15,2.58345390070922
32.603,-0.5216914893617022,0.15,2.5833829787234044
32.623,-0.5216560283687943,0.15,2.5833120567375887
32.643,-0.5216205673758866,0.15,2.583241134751773
32.663,-0.5215851063829787,0.15,2.5831702127659577
32.683,-0.521549645390071,0.15,2.583099290780142
32.702999999999996,-0.5215141843971631,0.15,2.5830283687943263
32.723,-0.5214787234042554,0.15,2.5829574468085106
32.742999999999995,-0.5214432624113475,0.15,2.5828865248226953
32.763,-0.5214078014184398,0.15,2.5828156028368796
32.783,-0.5213723404255319,0.15,2.582744680851064
32.803,-0.5213368794326242,0.15,2.582673758865248
32.823,-0.5213014184397163,0.15,2.5826028368794325
32.842999999999996,-0.5212659574468086,0.15,2.582531914893617
32.863,-0.5212304964539007,0.15,2.5824609929078015
32.882999999999996,-0.5211950354609929,0.15,2.582390070921986
32.903,-0.5211595744680851,0.15,2.58231914893617
32.922999999999995,-0.5211241134751773,0.15,2.582248226950355
32.943,-0.5210886524822695,0.15,2.582177304964539
32.963,-0.5210531914893617,0.15,2.5821063829787234
32.983,-0.521017730496454,0.15,2.5820354609929077
33.003,-0.5209822695035461,0.15,2.5819645390070924
33.022999999999996,-0.5209468085106383,0.15,2.5818936170212767
33.043,-0.5209113475177305,0.15,2.581822695035461
33.062999999999995,-0.5208758865248228,0.15,2.5817517730496453
33.083,-0.5208404255319149,0.15,2.58168085106383
33.103,-0.5208049645390072,0.15,2.5816099290780143
33.123,-0.5207695035460993,0.15,2.5815390070921986
33.143,-0.5207340425531916,0.15,2.581468085106383
33.163,-0.5206985815602837,0.15,2.5813971631205677
33.183,-0.520663120567376,0.15,2.581326241134752
33.202999999999996,-0.5206276595744681,0.15,2.5812553191489362
33.223,-0.5205921985815604,0.15,2.5811843971631205
33.242999999999995,-0.5205567375886525,0.15,2.5811134751773053
33.263,-0.5205212765957447,0.15,2.5810425531914896
33.283,-0.5204858156028369,0.15,2.580971631205674
33.303,-0.5204503546099291,0.15,2.580900709219858
33.323,-0.5204148936170213,0.15,2.5808297872340424
33.342999999999996,-0.5203794326241135,0.15,2.580758865248227
33.363,-0.5203439716312057,0.15,2.5806879432624115
33.382999999999996,-0.5203085106382979,0.15,2.5806170212765958
33.403,-0.5202730496453901,0.15,2.58054609929078
33.422999999999995,-0.5202375886524823,0.15,2.580475177304965
33.443,-0.5202021276595745,0.15,2.580404255319149
33.463,-0.5201666666666667,0.15,2.5803333333333334
33.483,-0.5201312056737589,0.15,2.5802624113475177
33.503,-0.5200957446808511,0.15,2.5801914893617024
33.522999999999996,-0.5200602836879433,0.15,2.5801205673758867
33.543,-0.5200248226950355,0.15,2.580049645390071
33.562999999999995,-0.51,0.11000000000003553,2.520000000000071
33.583,0.01,-0.04,2.57
33.603,-0.02,0.08,2.43
33.623,-0.22,0.15,2.29
33.643,-0.55,0.18,2.17
33.663,-0.97,0.21,2.13
33.683,-1.4,0.38,2.25
33.702999999999996,-1.7149999999999734,0.6449999999999734,2.4449999999999736
33.723,-1.95,0.8150000000000001,2.635
33.742999999999995,-2.099999999999858,0.9499999999998578,2.73
33.763,-2.18,0.97,2.74
33.783,-2.17,0.83,2.69
33.803,-2.06,0.71,2.61
33.823,-1.87,0.59,2.54
33.842999999999996,-1.6100000000001067,0.5399999999999645,2.4800000000000355
33.863,-1.33,0.54,2.48
33.882999999999996,-1.1000000000000711,0.629999999999929,2.47
33.903,-0.9950000000000089,0.7799999999999823,2.4200000000000177
33.922999999999995,-0.8800000000000711,0.9199999999999645,2.190000000000142
33.943,-0.7466666666666982,0.8866666666666982,1.8100000000000949
33.963,-0.55,0.69,1.3
33.983,-0.36,0.35,0.81
34.003,-0.21000000000000002,-0.05,0.405
34.022999999999996,-0.040000000000071055,-0.22999999999996448,0.10000000000010659
34.043,0.1,-0.225,-0.105
34.062999999999995,0.29199999999998294,-0.01600000000003411,-0.35799999999997445
34.083,0.559999999999929,0.17499999999998223,-0.6749999999999112
34.103,0.9,0.17,-1.18
34.123,1.2199999999999762,-0.10666666666662719,-1.819999999999929
34.143,1.4766666666666508,-0.5466666666666272,-2.453333333333278
34.163,1.5933333333333255,-1.0166666666666273,-3.023333333333278
34.183,1.5566666666666746,-1.4033333333333016,-3.4733333333333016
34.202999999999996,1.423333333333349,-1.57,-3.66
34.223,1.32,-1.4266666666666983,-3.6166666666666747
34.242999999999995,1.280000000000071,-0.9900000000004974,-3.4900000000001423
34.263,1.26,-0.45,-3.31
34.283,1.29,-0.09,-3.15
34.303,1.4,0.02,-3.01
34.323,1.525,-0.08,-2.895
34.342999999999996,1.64,-0.38999999999990526,-2.8000000000000234
34.363,1.64,-0.65,-2.76
34.382999999999996,1.5900000000000238,-0.8099999999999526,-2.76
34.403,1.55,-0.9233333333333255,-2.7466666666666746
34.422999999999995,1.4966666666666746,-0.9833333333333254,-2.603333333333349
34.443,1.34,-0.99,-2.31
34.463,1.03,-0.93,-1.87
34.483,0.53,-0.76,-1.4
34.503,0.03000000000004737,-0.4000000000000474,-0.9766666666666982
34.522999999999996,-0.28999999999995263,0.09999999999983421,-0.6900000000000946
34.543,-0.42,0.53,-0.32
34.562999999999995,-0.32000000000007106,0.5200000000000711,0.15999999999978684
34.583,-0.15,0.4,0.54
34.602999999999994,-0.10999999999997631,0.31,0.8499999999999053
34.623,-0.18,0.35,1.26
34.643,-0.24,0.39,1.84
34.663,-0.23666666666667455,0.3233333333333491,2.406666666666627
34.683,-0.15666666666667456,0.08666666666669826,2.6733333333333253
34.702999999999996,-0.020000000000047372,-0.17999999999992894,2.6600000000000237
34.723,0.16333333333334912,-0.32,2.4533333333333016
