timestamp,gyro_x,gyro_y,gyro_z
0.04,-0.7,-0.24,-0.28
0.06,-0.31,-0.013333333333333329,-0.8333333333333333
0.07999999999999999,-0.23250000000000004,0.1812499999999999,-0.90625
0.09999999999999999,-0.4733333333333332,0.6533333333333332,-1.1166666666666667
0.12,-0.724,0.944,-1.296
0.13999999999999999,-0.9266666666666665,1.0766666666666669,-1.4799999999999998
0.15999999999999998,-0.9361904761904762,0.9071428571428573,-1.6852380952380952
0.18,-0.9,0.053500000000000006,-2.0945
0.19999999999999998,-0.9149999999999999,-0.48749999999999977,-2.3225
0.21999999999999997,-1.02,-0.3740000000000004,-2.4539999999999997
0.23999999999999996,-0.9725000000000001,0.5574999999999992,-2.5975
0.25999999999999995,-0.5900000000000016,1.709999999999996,-2.440000000000001
0.27999999999999997,-0.09000000000000222,2.7949999999999964,-2.1800000000000015
0.29999999999999993,0.45333333333333203,3.553333333333332,-1.7700000000000011
0.31999999999999995,0.9099999999999995,4.069999999999997,-1.5299999999999994
0.3399999999999999,0.1633333333333365,1.4066666666666765,-1.6533333333333329
0.35999999999999993,-0.8999999999999984,-2.2399999999999993,-1.2849999999999997
0.37999999999999995,-1.319999999999994,-1.8800000000000077,-1.3500000000000005
0.3999999999999999,-1.95,-0.7980000000000014,-1.1260000000000003
0.41999999999999993,-1.6800000000000008,-0.36000000000000065,-1.1499999999999997
0.4399999999999999,-1.110000000000002,-0.7049999999999975,-1.4849999999999985
0.4599999999999999,-0.7375000000000008,-0.46166666666666645,-1.6774999999999998
0.4799999999999999,0.11499999999999917,-0.8300000000000005,-1.7650000000000008
0.4999999999999999,-0.029999999999996668,-0.8349999999999983,-1.5500000000000012
0.5199999999999999,-0.30333333333333257,-0.5533333333333359,-1.3400000000000012
0.5399999999999999,-0.4633333333333319,-0.09666666666666593,-1.1000000000000023
0.5599999999999999,-0.6733333333333338,-0.3000000000000011,-0.5900000000000011
0.58,-0.48,0.20333333333333334,-0.3
0.6,-0.265,0.685,-0.13
0.62,-0.14,0.73,-0.1
0.6399999999999999,-0.09999999999999779,0.44999999999999774,-0.6049999999999894
0.6599999999999999,-0.22000000000000036,0.6675000000000003,-1.584999999999999
0.6799999999999999,0.7099999999999966,-0.21999999999999778,-1.2100000000000022
0.7,0.80125,-0.2841666666666666,-1.17
0.72,0.21000000000000002,-1.6099999999999999,-1.335
0.7399999999999999,0.24333333333333323,-1.9399999999999997,-1.1366666666666667
0.7599999999999999,0.31,-1.8433333333333353,-1.4699999999999978
0.7799999999999999,0.3,-1.5400000000000005,-1.6666666666666663
0.7999999999999999,0.14000000000000112,-0.5100000000000044,-1.3650000000000038
0.82,0.0,0.19,-0.8266666666666667
0.8399999999999999,-0.3399999999999991,0.35,-0.65
0.8599999999999999,-0.9099999999999978,0.2966666666666674,-0.8599999999999989
0.8799999999999999,-1.17,-0.023333333333332592,-0.7633333333333349
0.8999999999999999,-1.0866666666666676,0.19999999999999887,-0.30333333333333595
0.9199999999999999,-1.0949999999999995,0.15000000000000224,0.17499999999999832
0.94,-1.25,-0.19,0.27
0.9599999999999999,-1.29,-0.8899999999999911,0.3099999999999989
0.9799999999999999,-1.22,-1.18,0.39666666666666633
0.9999999999999999,-1.19,-1.24,0.523333333333333
1.0199999999999998,-1.17,-1.0500000000000016,0.5733333333333338
1.0399999999999998,-1.14,-0.8000000000000067,0.5300000000000045
1.0599999999999998,-1.113333333333334,-0.5300000000000015,0.5466666666666662
1.0799999999999998,-0.9966666666666677,-0.32666666666666766,0.7966666666666647
1.0999999999999999,-0.8833333333333339,-0.15,1.0133333333333323
1.1199999999999999,-0.9,-0.21333333333333382,0.9933333333333338
1.14,-0.9899999999999989,-0.045000000000001664,0.8550000000000005
1.16,-1.1533333333333327,0.15333333333333285,0.8366666666666663
1.18,-1.3299999999999994,0.27666666666666645,0.7733333333333337
1.2,-1.3300000000000023,0.4749999999999972,0.7699999999999989
1.2199999999999998,-0.8400000000000066,0.9399999999999944,0.9599999999999977
1.2399999999999998,-0.5300000000000067,1.1899999999999977,1.0999999999999934
1.2599999999999998,-0.48999999999999777,0.9000000000000078,1.130000000000001
1.2799999999999998,-0.7499999999999944,0.24000000000000998,0.8500000000000055
1.2999999999999998,-1.1566666666666632,-0.36999999999999705,0.3933333333333368
1.3199999999999998,-1.8366666666666618,-0.57,-0.13666666666666322
1.3399999999999999,-2.599999999999978,-0.4400000000000111,-0.5299999999999934
1.3599999999999999,-3.4099999999999904,0.4599999999999889,-0.67
1.38,-3.809999999999999,1.2699999999999971,-0.5266666666666672
1.4,-3.82,1.98,-0.35
1.42,-3.43,2.07,-0.28
1.4399999999999997,-2.9400000000000155,1.7400000000000133,-0.2500000000000022
1.4599999999999997,-2.550909090909092,1.2381818181818205,-0.25818181818181796
1.4799999999999998,-1.6700000000000088,-0.039999999999988906,-0.3199999999999978
1.4999999999999998,-1.1420000000000026,-0.5699999999999983,-0.5859999999999985
1.5199999999999998,-0.6566666666666692,-0.8799999999999986,-0.78
1.5399999999999998,-0.41000000000000664,-0.8200000000000133,-0.7000000000000066
1.5599999999999998,-0.3323076923076924,-0.22769230769230897,-0.5169230769230773
1.5799999999999998,-0.3699999999999978,0.7299999999999944,-0.09000000000000444
1.5999999999999999,-0.48333333333333234,1.0133333333333323,0.09333333333333235
1.6199999999999999,-0.6199999999999956,0.9800000000000066,0.19
1.6399999999999997,-0.67,0.6600000000000045,0.1500000000000011
1.6599999999999997,-0.5600000000000023,0.4400000000000022,0.07000000000000112
1.6799999999999997,-0.4900000000000007,0.2900000000000007,0.06
1.6999999999999997,-0.47,0.07000000000000296,0.13333333333333136
1.7199999999999998,-0.4333333333333343,-0.17333333333333134,0.18666666666666568
1.7399999999999998,-0.3000000000000022,-0.2999999999999989,0.2599999999999989
1.7599999999999998,-0.12000000000000222,-0.37,0.31
1.7799999999999998,0.029999999999998514,-0.33,0.3799999999999993
1.7999999999999998,0.18999999999999778,-0.3199999999999993,0.4
1.8199999999999998,0.3799999999999978,-0.3799999999999989,0.3500000000000011
1.8399999999999999,0.5149999999999995,-0.32,0.27
1.8599999999999997,0.6999999999999911,-0.30000000000000443,0.3399999999999978
1.8799999999999997,0.7999999999999993,-0.5399999999999993,0.4499999999999993
1.8999999999999997,0.86,-0.35666666666666863,0.6133333333333314
1.9199999999999997,0.9133333333333314,-0.2933333333333343,0.6533333333333343
1.9399999999999997,1.03,-0.2899999999999967,0.6749999999999984
1.9599999999999997,1.1499999999999966,-0.35,0.7599999999999989
1.9799999999999998,1.4299999999999966,-0.6299999999999922,0.8499999999999978
1.9999999999999998,1.6074999999999997,-1.0699999999999985,0.7950000000000008
2.0199999999999996,1.4850000000000065,-1.3349999999999889,0.7749999999999978
2.0399999999999996,1.3200000000000045,-1.8300000000000045,0.7400000000000022
2.0599999999999996,0.8900000000000222,-1.1700000000000266,0.7599999999999911
2.0799999999999996,0.5225000000000042,-1.1299999999999966,0.9849999999999983
2.0999999999999996,0.19000000000000333,-1.4624999999999941,1.2299999999999967
2.1199999999999997,-0.09499999999999334,-2.154999999999971,1.4849999999999888
2.1399999999999997,0.6499999999999356,-2.4400000000000666,2.9499999999999313
2.1599999999999997,2.83999999999998,0.03249999999998085,4.474999999999992
2.1799999999999997,2.570000000000052,-1.3499999999998995,2.7200000000000832
2.1999999999999997,1.45,-2.5300000000000185,0.46000000000000624
2.2199999999999998,1.3700000000000112,-1.5999999999999868,0.9199999999999956
2.2399999999999998,0.9100000000000059,-2.1099999999999897,0.9000000000000015
2.26,0.7466666666666657,-2.4833333333333374,0.6733333333333358
2.28,0.87,-2.48,0.3
2.3,0.93,-3.0749999999999957,0.08500000000000112
2.32,0.8925000000000008,-3.8449999999999984,-0.2624999999999986
2.34,0.46,-4.06,-0.68
2.36,-0.23,-3.97,-0.76
2.38,-0.8785714285714257,-3.488571428571431,-0.6328571428571431
2.3999999999999995,-1.7239999999999955,-2.5680000000000067,-0.54
2.4199999999999995,-2.2973684210526293,-1.7405263157894766,-0.547894736842106
2.4399999999999995,-2.4319999999999937,-1.5620000000000096,-0.5180000000000011
2.4599999999999995,-2.696923076923078,0.02999999999999351,-0.009230769230772724
2.4799999999999995,-2.495000000000001,0.8299999999999983,0.5699999999999974
2.4999999999999996,-2.310000000000009,0.7600000000000133,0.8999999999999956
2.5199999999999996,-2.29,0.4300000000000045,0.8400000000000014
2.5399999999999996,-2.3799999999999955,0.03000000000000888,0.7800000000000045
2.5599999999999996,-2.5566666666666635,0.30666666666665926,0.73
2.5799999999999996,-2.66,0.7819999999999963,0.7759999999999995
2.5999999999999996,-2.5500000000000043,1.3399999999999928,1.029999999999994
2.6199999999999997,-2.3150000000000017,1.5249999999999995,1.2399999999999989
2.6399999999999997,-2.0400000000000014,1.62,1.1533333333333342
2.6599999999999997,-1.8366666666666673,1.5533333333333343,0.9533333333333343
2.6799999999999997,-1.77,1.2866666666666686,0.7933333333333343
2.6999999999999997,-1.775238095238095,1.1085714285714294,0.7347619047619048
2.7199999999999998,-1.8349999999999995,0.7200000000000033,0.73
2.7399999999999998,-1.7866666666666686,0.5433333333333314,0.81
2.76,-1.58,0.82,0.83
2.78,-1.4933333333333343,1.086666666666663,0.78
2.8,-1.44,1.33,0.78
2.8199999999999994,-1.43,1.4799999999999984,0.7999999999999986
2.8399999999999994,-1.4624999999999986,1.47,0.81
2.8599999999999994,-1.49,1.3900000000000021,0.7700000000000022
2.8799999999999994,-1.52,1.3383333333333336,0.72
2.8999999999999995,-1.52,1.3316666666666668,0.72
2.9199999999999995,-1.6922222222222214,1.3177777777777786,0.7522222222222215
2.9399999999999995,-1.8,1.154285714285716,0.8857142857142841
2.9599999999999995,-1.83,0.9800000000000044,1.0533333333333303
2.9799999999999995,-1.780000000000009,0.7400000000000133,1.17
2.9999999999999996,-1.570000000000006,0.5400000000000045,1.2199999999999984
3.0199999999999996,-1.0800000000000134,0.26000000000000445,1.2
3.0399999999999996,-0.5500000000000134,-0.034999999999988894,1.0350000000000066
3.0599999999999996,-0.040000000000008876,-0.44999999999999113,0.7333333333333407
3.0799999999999996,0.4099999999999911,-0.8499999999999925,0.35000000000000736
3.0999999999999996,0.7499999999999956,-1.2199999999999944,-0.07999999999999445
3.1199999999999997,1.0299999999999956,-1.5399999999999956,-0.37999999999999556
3.1399999999999997,1.3049999999999968,-1.68,-0.6399999999999978
3.1599999999999997,1.5499999999999985,-1.4766666666666686,-0.7666666666666657
3.1799999999999997,1.6649999999999987,-1.1550000000000031,-0.9499999999999955
3.1999999999999997,1.694999999999999,-1.06,-1.3349999999999946
3.2199999999999998,1.7299999999999984,-1.169999999999997,-1.7599999999999911
3.2399999999999993,1.7100000000000044,-1.3599999999999868,-2.1699999999999777
3.2599999999999993,1.4900000000000133,-1.5849999999999902,-2.5699999999999865
3.2799999999999994,1.163333333333343,-1.8066666666666629,-2.8466666666666627
3.2999999999999994,0.87500000000001,-1.93,-2.8850000000000033
3.3199999999999994,0.6933333333333372,-1.7966666666666746,-2.6666666666666745
3.3399999999999994,0.540000000000003,-1.3100000000000118,-2.3300000000000076
3.3599999999999994,0.37500000000000333,-0.5550000000000299,-1.9950000000000099
3.3799999999999994,0.32,0.10999999999998224,-1.7800000000000045
3.3999999999999995,0.3866666666666627,0.5533333333333255,-1.6566666666666685
3.4199999999999995,0.5399999999999942,0.7,-1.6233333333333313
3.4399999999999995,0.6866666666666628,0.580000000000006,-1.6966666666666628
3.4599999999999995,0.77,0.3200000000000089,-1.8099999999999956
3.4799999999999995,0.75,0.11000000000000149,-1.8749999999999993
3.4999999999999996,0.6433333333333363,-0.023333333333331853,-1.926666666666668
3.5199999999999996,0.56,-0.025000000000002222,-1.8750000000000022
3.5399999999999996,0.54,0.06666666666666371,-1.7100000000000044
3.5599999999999996,0.49000000000000443,0.22499999999999332,-1.4300000000000088
3.5799999999999996,0.3400000000000044,0.3866666666666637,-1.1133333333333406
3.5999999999999996,0.10000000000000445,0.47,-0.7133333333333407
3.6199999999999997,-0.17999999999999405,0.47,-0.29000000000000886
3.6399999999999997,-0.3899999999999978,0.48,0.16999999999999335
3.6599999999999997,-0.4633333333333328,0.4433333333333343,0.5766666666666642
3.6799999999999993,-0.44666666666666865,0.26000000000000595,0.9033333333333254
3.6999999999999993,-0.47999999999999704,0.030000000000011837,1.1199999999999941
3.7199999999999993,-0.6099999999999941,-0.1899999999999941,1.259999999999994
3.7399999999999993,-0.7799999999999934,-0.20000000000000667,1.43499999999999
3.7599999999999993,-0.8666666666666641,0.0366666666666568,1.7466666666666568
3.7799999999999994,-0.8450000000000033,0.31499999999999,2.04499999999999
3.7999999999999994,-0.7566666666666716,0.45,2.2066666666666643
3.8199999999999994,-0.6933333333333358,0.3666666666666716,2.183333333333336
3.8399999999999994,-0.66,0.1666666666666716,2.0666666666666718
3.8599999999999994,-0.6849999999999967,-0.054999999999990015,1.9050000000000098
3.8799999999999994,-0.7899999999999956,-0.2949999999999934,1.7400000000000044
3.8999999999999995,-0.8733333333333314,-0.43,1.66
3.9199999999999995,-0.9099999999999989,-0.40000000000000224,1.65
3.9399999999999995,-0.9050000000000022,-0.1500000000000089,1.68
3.9599999999999995,-0.9149999999999978,0.1699999999999911,1.675000000000002
3.9799999999999995,-0.95,0.39499999999999724,1.66
3.9999999999999996,-0.9949999999999967,0.53,1.65
4.02,-1.0566666666666658,0.48666666666666863,1.61
4.039999999999999,-1.1349999999999953,0.37500000000000444,1.5350000000000046
4.06,-1.2299999999999955,0.3849999999999978,1.4550000000000023
4.079999999999999,-1.3249999999999957,0.5199999999999911,1.44
4.1,-1.4066666666666656,0.6733333333333315,1.4966666666666657
4.119999999999999,-1.44,0.7266666666666627,1.5833333333333255
4.14,-1.4033333333333342,0.7666666666666657,1.6466666666666656
4.159999999999999,-1.2966666666666706,0.7433333333333353,1.66
4.18,-1.14,0.74,1.61
4.199999999999999,-0.8750000000000067,0.6450000000000067,1.4100000000000088
4.22,-0.5600000000000089,0.33500000000001107,1.100000000000009
4.239999999999999,-0.20333333333334122,-0.12999999999998815,0.7266666666666766
4.26,0.12666666666666274,-0.5833333333333284,0.34333333333333727
4.279999999999999,0.38333333333333136,-0.879999999999997,-0.01666666666666272
4.3,0.5533333333333315,-1.0,-0.29999999999999705
4.319999999999999,0.6999999999999911,-0.8900000000000089,-0.5299999999999911
4.339999999999999,0.8333333333333254,-0.6233333333333492,-0.6933333333333255
4.359999999999999,1.0133333333333314,-0.33666666666666867,-0.9499999999999971
4.379999999999999,1.2033333333333254,-0.3233333333333254,-1.3133333333333137
4.3999999999999995,1.3833333333333313,-0.5566666666666626,-1.8966666666666567
4.419999999999999,1.48,-0.9099999999999911,-2.62499999999998
4.4399999999999995,1.4466666666666685,-1.1833333333333313,-3.3433333333333257
4.459999999999999,1.2650000000000132,-1.28,-3.8099999999999823
4.4799999999999995,1.010000000000003,-1.2333333333333343,-3.96
4.499999999999999,0.8100000000000089,-1.1500000000000088,-3.8150000000000133
4.52,0.74,-1.1366666666666656,-3.4866666666666717
4.539999999999999,0.8166666666666627,-1.0000000000000118,-3.0800000000000236
4.56,0.89,-0.6766666666666716,-2.663333333333337
4.579999999999999,0.9366666666666627,-0.2366666666666864,-2.3300000000000116
4.6,1.0233333333333314,0.12666666666666274,-2.1166666666666685
4.619999999999999,1.1666666666666627,0.2966666666666627,-2.0033333333333374
4.64,1.2466666666666657,0.2933333333333343,-2.0
4.659999999999999,1.2550000000000021,0.2550000000000022,-2.054999999999998
4.68,1.1933333333333342,0.23,-2.09
4.699999999999999,1.1200000000000023,0.2699999999999978,-2.070000000000002
4.72,1.015000000000001,0.3999999999999978,-1.9600000000000022
4.739999999999999,0.8733333333333353,0.5533333333333295,-1.750000000000006
4.759999999999999,0.7333333333333373,0.65,-1.4466666666666863
4.779999999999999,0.5920000000000021,0.6320000000000021,-1.1040000000000043
4.799999999999999,0.39000000000001184,0.4866666666666746,-0.7333333333333492
4.819999999999999,0.10000000000001777,0.28000000000001335,-0.3200000000000222
4.839999999999999,-0.1699999999999867,0.16000000000000444,0.10999999999997336
4.859999999999999,-0.3166666666666657,0.09333333333333432,0.5699999999999941
4.879999999999999,-0.3639999999999979,0.03,1.0299999999999894
4.8999999999999995,-0.42499999999999777,0.06999999999999557,1.3749999999999933
4.919999999999999,-0.6166666666666508,0.20333333333332543,1.5899999999999883
4.9399999999999995,-0.84590909090909,0.273181818181818,1.739545454545454
4.959999999999999,-1.1299999999999732,0.39999999999998226,1.9799999999999645
4.9799999999999995,-1.300000000000003,0.44000000000000594,2.5399999999999854
4.999999999999999,-1.103333333333349,0.22333333333334912,2.7933333333333255
5.02,-0.8,-0.03,2.82
5.039999999999999,-0.5800000000000088,-0.2599999999999867,2.5900000000000176
5.06,-0.58,-0.43,2.26
5.079999999999999,-0.7499999999999867,-0.3700000000000089,1.9700000000000133
5.1,-0.98,-0.14,1.82
5.119999999999999,-1.139999999999991,0.14999999999996447,1.81
5.14,-1.25,0.5,1.9
5.159999999999999,-1.3499999999999972,0.7899999999999912,1.979999999999997
5.179999999999999,-1.439999999999997,0.929999999999997,2.01
5.199999999999999,-1.5699999999999912,0.9400000000000044,1.99
5.219999999999999,-1.6599999999999955,0.8200000000000088,1.9100000000000044
5.239999999999999,-1.66,0.702500000000001,1.8425000000000011
5.259999999999999,-1.570000000000003,0.709999999999997,1.77
5.279999999999999,-1.450000000000006,0.749999999999997,1.73
5.299999999999999,-1.300000000000006,0.700000000000003,1.74
5.319999999999999,-1.110000000000009,0.5200000000000089,1.74
5.339999999999999,-0.8950000000000067,0.31000000000000444,1.71
5.359999999999999,-0.630000000000003,0.12666666666666865,1.6166666666666687
5.379999999999999,-0.3800000000000133,-0.10999999999998668,1.4100000000000132
5.3999999999999995,-0.1400000000000089,-0.3499999999999911,1.0800000000000118
5.419999999999999,0.03999999999999112,-0.5499999999999912,0.7200000000000177
5.4399999999999995,0.12999999999999556,-0.65,0.38000000000001777
5.459999999999999,0.18999999999999556,-0.6200000000000044,0.09000000000001332
5.4799999999999995,0.24999999999999556,-0.5000000000000089,-0.13999999999999113
5.499999999999999,0.3349999999999978,-0.3400000000000044,-0.34999999999999554
5.52,0.46,-0.22,-0.64
5.539999999999999,0.6799999999999867,-0.16,-0.9399999999999822
5.56,0.9459999999999986,-0.17399999999999965,-1.2399999999999982
5.579999999999999,1.2499999999999867,-0.34999999999998666,-1.6899999999999733
5.599999999999999,1.3699999999999957,-0.6999999999999778,-2.1699999999999733
5.619999999999999,1.320000000000003,-1.0699999999999852,-2.6299999999999852
5.639999999999999,1.1000000000000134,-1.3699999999999868,-2.9899999999999824
5.659999999999999,0.7900000000000178,-1.51,-3.1899999999999955
5.679999999999999,0.5300000000000059,-1.430000000000006,-3.2000000000000033
5.699999999999999,0.38000000000000445,-1.2300000000000133,-3.15
5.719999999999999,0.4099999999999911,-1.060000000000009,-3.09
5.739999999999999,0.5799999999999911,-0.8800000000000059,-3.050000000000003
5.759999999999999,0.8299999999999866,-0.6800000000000089,-3.03
5.779999999999999,1.0399999999999956,-0.48500000000000665,-3.005000000000002
5.799999999999999,1.1399999999999955,-0.26000000000001333,-2.920000000000009
5.819999999999999,1.1100000000000045,-0.11000000000000888,-2.760000000000013
5.839999999999999,1.0850000000000066,-0.07,-2.5350000000000197
5.859999999999999,0.9800000000000089,-0.11999999999999555,-2.2400000000000135
5.879999999999999,0.8000000000000089,-0.20999999999999702,-1.9700000000000089
5.8999999999999995,0.6500000000000089,-0.29,-1.7000000000000133
5.919999999999999,0.5366666666666686,-0.32,-1.410000000000006
5.9399999999999995,0.43000000000000443,-0.24000000000000443,-1.1500000000000088
5.959999999999999,0.2500000000000089,-0.07000000000000593,-0.7600000000000148
5.9799999999999995,0.05000000000000533,0.08999999999999467,-0.4000000000000089
5.999999999999999,-0.13999999999999557,0.4199999999999778,0.0699999999999778
6.019999999999999,-0.18,0.6603861003861003,0.3502895752895752
6.039999999999999,-0.18,0.661930501930502,0.3514478764478764
6.059999999999999,-0.18,0.6634749034749035,0.3526061776061775
6.079999999999999,-0.18,0.665019305019305,0.3537644787644787
6.099999999999999,-0.18,0.6665637065637064,0.3549227799227798
6.119999999999999,-0.18,0.6681081081081081,0.35608108108108105
6.139999999999999,-0.18,0.6696525096525096,0.3572393822393822
6.159999999999999,-0.18,0.6711969111969112,0.35839768339768335
6.179999999999999,-0.18,0.6727413127413127,0.3595559845559845
6.199999999999999,-0.18,0.6742857142857143,0.36071428571428565
6.219999999999999,-0.18,0.6758301158301158,0.3618725868725868
6.239999999999999,-0.18,0.6773745173745174,0.363030888030888
6.259999999999999,-0.18,0.6789189189189189,0.36418918918918913
6.279999999999999,-0.18,0.6804633204633204,0.3653474903474903
6.299999999999999,-0.18,0.6820077220077219,0.36650579150579143
6.319999999999999,-0.18,0.6835521235521235,0.3676640926640926
6.339999999999999,-0.18,0.685096525096525,0.36882239382239373
6.359999999999999,-0.18,0.6866409266409266,0.3699806949806949
6.379999999999999,-0.18,0.6881853281853281,0.3711389961389961
6.3999999999999995,-0.18,0.6897297297297297,0.37229729729729727
6.419999999999999,-0.18,0.6912741312741312,0.3734555984555984
6.439999999999999,-0.18,0.6928185328185327,0.3746138996138995
6.459999999999999,-0.18,0.6943629343629343,0.3757722007722007
6.479999999999999,-0.18,0.6959073359073358,0.3769305019305018
6.499999999999999,-0.18,0.6974517374517373,0.378088803088803
6.519999999999999,-0.18,0.6989961389961388,0.37924710424710417
6.539999999999999,-0.12000000000001776,0.77,0.6599999999999645
6.559999999999999,-0.9100000000000267,0.3400000000000133,1.55500000000002
6.579999999999999,-0.23666666666667455,-0.0566666666666568,0.9533333333333432
6.599999999999999,0.03999999999998519,-0.3933333333333136,0.5333333333333581
6.619999999999999,0.16,-0.5733333333333314,0.15666666666667456
6.639999999999999,0.17,-0.5550000000000056,-0.15749999999998612
6.659999999999999,0.17,-0.31333333333334323,-0.4599999999999941
6.679999999999999,0.22333333333332842,0.0933333333332988,-0.6899999999999852
6.699999999999999,0.3449999999999967,0.5224999999999917,-0.8774999999999951
6.719999999999999,0.5599999999999852,0.75,-1.096666666666657
6.739999999999999,0.7699999999999956,0.570000000000011,-1.3499999999999912
6.759999999999999,0.9133333333333294,0.053333333333364916,-1.7166666666666468
6.779999999999999,0.9566666666666686,-0.5433333333333196,-2.1466666666666567
6.799999999999999,0.9466666666666705,-0.9933333333333175,-2.5233333333333174
6.819999999999999,0.9166666666666686,-1.2366666666666628,-2.753333333333331
6.839999999999999,0.9233333333333295,-1.33,-2.79
6.859999999999999,1.0059999999999987,-1.2260000000000022,-2.676000000000002
6.879999999999999,1.1366666666666627,-0.9266666666666745,-2.5033333333333374
6.899999999999999,1.2466666666666568,-0.553333333333358,-2.39
6.919999999999999,1.356666666666663,-0.28333333333333727,-2.3666666666666685
6.939999999999999,1.4849999999999932,-0.22,-2.37
6.959999999999999,1.5899999999999972,-0.3399999999999941,-2.419999999999994
6.979999999999999,1.63,-0.58499999999998,-2.5049999999999932
6.999999999999999,1.5666666666666687,-0.8166666666666628,-2.5833333333333313
7.019999999999999,1.3950000000000198,-0.93,-2.62
7.039999999999999,1.1733333333333371,-0.8333333333333373,-2.583333333333337
7.059999999999999,0.92500000000002,-0.59500000000002,-2.43500000000002
7.079999999999999,0.7233333333333373,-0.31000000000000594,-2.1966666666666743
7.099999999999999,0.5700000000000134,-0.07000000000001333,-1.8800000000000265
7.119999999999999,0.44000000000000444,0.09999999999999334,-1.5600000000000112
7.139999999999999,0.23000000000002663,0.3199999999999867,-1.12000000000004
7.159999999999999,-0.02499999999999334,0.5549999999999933,-0.6850000000000112
7.179999999999999,-0.2099999999999911,0.7299999999999822,-0.34000000000003555
7.199999999999999,-0.2749999999999978,0.7650000000000022,-0.025000000000006663
7.219999999999999,-0.27,0.5833333333333491,0.22999999999998816
7.239999999999999,-0.2966666666666647,0.3366666666666706,0.48999999999999405
7.259999999999999,-0.39333333333332543,0.3733333333333254,0.7566666666666508
7.279999999999999,-0.5799999999999933,0.5899999999999933,1.059999999999989
7.299999999999999,-0.7799999999999956,0.7799999999999978,1.4899999999999867
7.3199999999999985,-0.7850000000000067,0.7750000000000067,1.9599999999999733
7.339999999999999,-0.6600000000000134,0.61500000000002,2.2099999999999866
7.3599999999999985,-0.50500000000002,0.37000000000002664,2.2450000000000068
7.379999999999999,-0.36666666666666864,0.10000000000000592,2.0933333333333373
7.399999999999999,-0.33,-0.14499999999998003,1.86500000000002
7.419999999999999,-0.35,-0.24,1.75
7.439999999999999,-0.37999999999999556,-0.19000000000000444,1.7899999999999956
7.459999999999999,-0.47599999999999504,-0.06400000000000497,1.925999999999995
7.479999999999999,-0.6749999999999801,0.12999999999998668,2.0849999999999933
7.499999999999999,-0.8939999999999926,0.2279999999999975,2.1879999999999975
7.519999999999999,-1.15499999999998,0.25,2.284999999999993
7.539999999999999,-1.3299999999999912,0.1500000000000089,2.3449999999999953
7.559999999999999,-1.39,-0.06333333333332544,2.41
7.579999999999999,-1.3612500000000016,-0.18749999999999695,2.4787499999999985
7.599999999999999,-1.2400000000000022,-0.28,2.6099999999999977
7.619999999999999,-1.16,-0.12500000000001332,2.6650000000000045
7.639999999999999,-1.0766666666666718,0.0699999999999852,2.6266666666666714
7.659999999999999,-0.8800000000000059,0.2533333333333294,2.476666666666671
7.679999999999999,-0.61500000000002,0.3549999999999933,2.215000000000033
7.699999999999999,-0.2933333333333413,0.4,1.7700000000000118
7.719999999999999,0.026666666666650875,0.3100000000000118,1.1966666666666983
7.739999999999998,0.29499999999998006,0.05000000000002665,0.64000000000004
7.759999999999999,0.47999999999998666,-0.4049999999999534,0.22000000000002665
7.7799999999999985,0.5949999999999933,-0.8499999999999733,-0.024999999999980017
7.799999999999999,0.63,-1.1299999999999881,-0.24999999999998818
7.8199999999999985,0.6349999999999933,-1.1800000000000133,-0.46999999999998665
7.839999999999999,0.7166666666666627,-0.9866666666666746,-0.7433333333333136
7.8599999999999985,0.7949999999999934,-0.86,-1.1199999999999601
7.879999999999999,0.8666666666666627,-0.8866666666666627,-1.656666666666639
7.899999999999999,0.91,-0.9799999999999955,-2.1899999999999644
7.919999999999999,0.8700000000000044,-1.1099999999999957,-2.7399999999999736
7.939999999999999,0.6333333333333492,-1.17,-3.193333333333314
7.959999999999999,0.34333333333334914,-1.1166666666666747,-3.423333333333326
7.979999999999999,0.04000000000003553,-0.8900000000000355,-3.43
7.999999999999999,-0.17999999999999408,-0.5066666666666766,-3.316666666666671
8.019999999999998,-0.3166666666666568,-0.030000000000059215,-3.1300000000000296
8.04,-0.33,0.3766666666666509,-2.9266666666666743
8.059999999999999,-0.23666666666667457,0.6399999999999881,-2.7466666666666746
8.079999999999998,-0.07000000000001777,0.8199999999999822,-2.6100000000000088
8.099999999999998,0.0733333333333136,0.8433333333333431,-2.54
8.119999999999997,0.1933333333333136,0.7466666666666864,-2.51
8.139999999999999,0.3099999999999911,0.6200000000000089,-2.47
8.159999999999998,0.36,0.5233333333333373,-2.42
8.179999999999998,0.35000000000000353,0.51,-2.3400000000000034
8.199999999999998,0.36,0.5999999999999822,-2.1100000000000265
8.219999999999997,0.4099999999999822,0.6999999999999822,-1.800000000000071
8.239999999999998,0.41,0.7,-1.4900000000000266
8.259999999999998,0.3400000000000089,0.6300000000000089,-1.2200000000000266
8.279999999999998,0.22000000000000888,0.5100000000000089,-0.9400000000000355
8.299999999999997,0.07000000000003553,0.43000000000001776,-0.6300000000000711
8.319999999999999,-0.09999999999998817,0.41,-0.2900000000000237
8.339999999999998,-0.10063694267515917,0.4093630573248408,-0.28681528662420414
8.359999999999998,-0.1012738853503184,0.4087261146496816,-0.28363057324840807
8.379999999999997,-0.10191082802547761,0.4080891719745224,-0.28044585987261195
8.399999999999999,-0.10254777070063689,0.4074522292993631,-0.27726114649681555
8.419999999999998,-0.10318471337579611,0.40681528662420385,-0.2740764331210194
8.439999999999998,-0.10382165605095534,0.4061783439490447,-0.2708917197452233
8.459999999999997,-0.10445859872611456,0.40554140127388544,-0.26770700636942724
8.479999999999999,-0.10509554140127383,0.40490445859872615,-0.26452229299363084
8.499999999999998,-0.10573248407643306,0.40426751592356697,-0.2613375796178347
8.519999999999998,-0.10636942675159228,0.40363057324840773,-0.2581528662420386
8.539999999999997,-0.1070063694267515,0.4029936305732485,-0.2549681528662425
8.559999999999999,-0.10764331210191078,0.40235668789808926,-0.2517834394904461
8.579999999999998,-0.10828025477707,0.40171974522293,-0.24859872611465
8.599999999999998,-0.10891719745222922,0.4010828025477708,-0.24541401273885388
8.619999999999997,-0.10955414012738844,0.40044585987261155,-0.24222929936305776
8.639999999999997,-0.13799999999999432,0.4,-0.15800000000002273
8.659999999999998,-0.32999999999998225,0.2600000000000178,0.7099999999999111
8.679999999999998,-0.41999999999999404,-0.21,1.970000000000006
8.699999999999998,-0.42,-0.1966666666666568,1.96
8.719999999999997,-0.3700000000000118,-0.24,1.9699999999999882
8.739999999999998,-0.2800000000000178,-0.3099999999999911,2.039999999999991
8.759999999999998,-0.19000000000000888,-0.36,2.109999999999991
8.779999999999998,-0.13,-0.31000000000000594,2.189999999999994
8.799999999999997,-0.1,-0.25,2.200000000000018
8.819999999999999,-0.03000000000000888,-0.2899999999999911,2.1300000000000088
8.839999999999998,0.09999999999998224,-0.4199999999999822,1.9300000000000266
8.859999999999998,0.21499999999999334,-0.5049999999999933,1.6500000000000266
8.879999999999997,0.3199999999999929,-0.5699999999999857,1.2900000000000356
8.899999999999999,0.4099999999999964,-0.6299999999999965,0.8500000000000213
8.919999999999998,0.40000000000000596,-0.62,0.3700000000000296
8.939999999999998,0.2500000000000237,-0.6066666666666746,-0.03666666666662719
8.959999999999997,0.08333333333334912,-0.5566666666666746,-0.3833333333333017
8.979999999999999,0.03999999999999408,-0.49000000000000593,-0.6699999999999764
8.999999999999998,0.1659999999999872,-0.46800000000000425,-0.9759999999999872
9.019999999999998,0.3999999999999763,-0.42,-1.2933333333333017
9.039999999999997,0.5799999999999881,-0.39000000000000595,-1.6399999999999704
9.059999999999997,0.6599999999999823,-0.48999999999996446,-2.0599999999999112
9.079999999999998,0.66,-0.7299999999999763,-2.5099999999999643
9.099999999999998,0.5700000000000118,-1.0799999999999705,-2.91999999999997
9.119999999999997,0.36000000000002663,-1.3999999999999733,-3.2399999999999736
9.139999999999997,0.1300000000000533,-1.51,-3.3200000000000176
9.159999999999998,-0.039999999999964474,-1.4000000000000532,-3.1200000000000534
9.179999999999998,-0.14999999999998223,-1.0700000000000889,-2.790000000000071
9.199999999999998,-0.18,-0.6400000000000355,-2.4400000000000235
9.219999999999997,-0.12000000000001183,-0.25000000000004735,-2.1500000000000474
9.239999999999998,-1.1844691893969639e-14,0.04999999999998224,-1.970000000000006
9.259999999999998,0.1399999999999941,0.17,-1.9
9.279999999999998,0.25055555555555425,0.15944444444444578,-1.85
9.299999999999997,0.28166666666666273,0.11666666666667456,-1.8483333333333374
9.319999999999999,0.2766666666666726,-0.08333333333332742,-1.91
9.339999999999998,0.18750000000000555,-0.12750000000000555,-1.93
9.359999999999998,0.13,-2.6645352591003757e-14,-1.8600000000000179
9.379999999999997,0.09000000000001776,0.279999999999929,-1.7100000000000355
9.399999999999999,0.05,0.5999999999999645,-1.540000000000009
9.419999999999998,-0.022499999999994448,0.8249999999999889,-1.355000000000011
9.439999999999998,-0.11999999999999111,0.9999999999999822,-1.1700000000000177
9.459999999999997,-0.23999999999998814,1.07,-0.9000000000000474
9.479999999999997,-0.3633333333333254,1.09,-0.5333333333333728
9.499999999999998,-0.39,1.100000000000006,-0.1400000000000296
9.519999999999998,-0.2900000000000059,0.9800000000000119,0.2499999999999704
9.539999999999997,-0.20000000000000592,0.7400000000000178,0.6099999999999763
9.559999999999997,-0.22999999999998816,0.45000000000004736,0.9599999999999408
9.579999999999998,-0.34999999999997633,0.32,1.3033333333333017
9.599999999999998,-0.5466666666666509,0.3833333333333254,1.5899999999999763
9.619999999999997,-0.62,0.45,1.8899999999999468
9.639999999999997,-0.5000000000000266,0.4150000000000133,2.18499999999996
9.659999999999998,-0.31000000000001776,0.24500000000002664,2.354999999999991
9.679999999999998,-0.14000000000001778,-0.004999999999973354,2.335000000000009
9.699999999999998,-0.05,-0.20999999999997337,2.14500000000004
9.719999999999997,-0.13999999999997337,-0.34499999999998665,1.88500000000004
9.739999999999998,-0.30499999999997335,-0.38,1.7150000000000087
9.759999999999998,-0.5049999999999734,-0.26500000000002666,1.69
9.779999999999998,-0.72499999999996,0.024999999999933388,1.7799999999999734
9.799999999999997,-0.8799999999999921,0.2999999999999803,1.879999999999992
9.819999999999999,-1.1649999999999734,0.7799999999999645,2.004999999999991
9.839999999999998,-1.3199999999999645,0.9799999999999645,2.01
9.859999999999998,-1.4149999999999867,1.0350000000000135,1.9650000000000132
9.879999999999997,-1.43,0.9200000000000267,1.8750000000000133
9.899999999999997,-1.3750000000000133,0.75500000000004,1.7950000000000133
9.919999999999998,-1.3150000000000088,0.5500000000000178,1.79
9.939999999999998,-1.2200000000000266,0.31500000000003997,1.82
9.959999999999997,-1.0733333333333492,0.11333333333334912,1.84
9.979999999999997,-0.8600000000000236,0.04333333333332544,1.82
9.999999999999998,-0.5766666666666982,0.07333333333332544,1.7466666666666746
10.019999999999998,-0.24333333333337281,0.09,1.623333333333349
10.039999999999997,0.07999999999997633,0.023333333333349124,1.4000000000000237
10.059999999999997,0.3199999999999763,-0.1599999999999763,1.0766666666666984
10.079999999999998,0.47666666666665086,-0.42333333333330175,0.7033333333333728
10.099999999999998,0.54,-0.6899999999999763,0.3600000000000237
10.119999999999997,0.5266666666666746,-0.86,0.10000000000002368
10.139999999999997,0.46666666666667456,-0.8000000000000237,-0.1299999999999763
10.159999999999998,0.3750000000000089,-0.5050000000000444,-0.4349999999999556
10.179999999999998,0.34,-0.1433333333333728,-0.8166666666666272
10.199999999999998,0.36,0.1599999999999467,-1.2349999999999066
10.219999999999997,0.45333333333332543,0.2566666666666746,-1.8099999999999528
10.239999999999998,0.5749999999999911,0.005000000000044406,-2.2849999999999557
10.259999999999998,0.5866666666666746,-0.3999999999999526,-2.673333333333302
10.279999999999998,0.46000000000002367,-0.8133333333333018,-2.956666666666651
10.299999999999997,0.2933333333333491,-1.0,-3.0066666666666744
10.319999999999997,0.1566666666666785,-0.866666666666714,-2.8500000000000356
10.339999999999998,0.0999716874292186,-0.6298584371460929,-2.6999150622876558
10.359999999999998,0.09985843714609288,-0.6292921857304644,-2.699575311438279
10.379999999999997,0.09974518686296718,-0.6287259343148359,-2.699235560588902
10.399999999999997,0.09963193657984148,-0.6281596828992073,-2.6988958097395246
10.419999999999998,0.09951868629671576,-0.6275934314835788,-2.6985560588901474
10.439999999999998,0.09940543601359006,-0.6270271800679502,-2.69821630804077
10.459999999999997,0.09929218573046435,-0.6264609286523217,-2.6978765571913934
10.479999999999997,0.09917893544733865,-0.6258946772366932,-2.697536806342016
10.499999999999998,0.09906568516421294,-0.6253284258210646,-2.697197055492639
10.519999999999998,0.09895243488108722,-0.6247621744054361,-2.696857304643262
10.539999999999997,0.09883918459796152,-0.6241959229898075,-2.6965175537938846
10.559999999999997,0.09872593431483581,-0.623629671574179,-2.6961778029445074
10.579999999999998,0.0986126840317101,-0.6230634201585504,-2.6958380520951306
10.599999999999998,0.09849943374858439,-0.6224971687429219,-2.6954983012457534
10.619999999999997,0.09838618346545869,-0.6219309173272934,-2.695158550396376
10.639999999999997,0.09827293318233297,-0.6213646659116648,-2.694818799546999
10.659999999999998,0.09815968289920726,-0.6207984144960363,-2.694479048697622
10.679999999999998,0.09804643261608156,-0.6202321630804077,-2.694139297848245
10.699999999999998,0.09793318233295585,-0.6196659116647792,-2.693799546998868
10.719999999999997,0.09781993204983015,-0.6190996602491508,-2.6934597961494906
10.739999999999997,0.09770668176670444,-0.6185334088335221,-2.6931200453001134
10.759999999999998,0.09759343148357873,-0.6179671574178937,-2.692780294450736
10.779999999999998,0.09748018120045303,-0.617400906002265,-2.692440543601359
10.799999999999997,0.09736693091732732,-0.6168346545866366,-2.692100792751982
10.819999999999997,0.09725368063420162,-0.6162684031710081,-2.691761041902605
10.839999999999998,0.09714043035107589,-0.6157021517553795,-2.691421291053228
10.859999999999998,0.09702718006795019,-0.615135900339751,-2.6910815402038506
10.879999999999997,0.09691392978482448,-0.6145696489241224,-2.6907417893544734
10.899999999999997,0.09680067950169878,-0.6140033975084939,-2.6904020385050966
10.919999999999998,0.09668742921857307,-0.6134371460928653,-2.6900622876557194
10.939999999999998,0.09657417893544736,-0.6128708946772368,-2.689722536806342
10.959999999999997,0.09646092865232166,-0.6123046432616083,-2.689382785956965
10.979999999999997,0.09634767836919594,-0.6117383918459797,-2.689043035107588
10.999999999999998,0.09623442808607023,-0.6111721404303512,-2.6887032842582106
11.019999999999998,0.09612117780294453,-0.6106058890147226,-2.688363533408834
11.039999999999997,0.09600792751981882,-0.6100396375990941,-2.6880237825594566
11.059999999999997,0.09589467723669312,-0.6094733861834656,-2.6876840317100794
11.079999999999998,0.0957814269535674,-0.608907134767837,-2.687344280860702
11.099999999999998,0.0956681766704417,-0.6083408833522085,-2.687004530011325
11.119999999999997,0.09555492638731598,-0.6077746319365799,-2.6866647791619482
11.139999999999997,0.09544167610419028,-0.6072083805209514,-2.686325028312571
11.159999999999997,0.09532842582106457,-0.6066421291053229,-2.685985277463194
11.179999999999998,0.09521517553793886,-0.6060758776896943,-2.6856455266138166
11.199999999999998,0.09510192525481316,-0.6055096262740658,-2.6853057757644394
11.219999999999997,0.09498867497168745,-0.6049433748584372,-2.684966024915062
11.239999999999997,0.09487542468856175,-0.6043771234428087,-2.6846262740656854
11.259999999999998,0.09476217440543604,-0.6038108720271801,-2.6842865232163082
11.279999999999998,0.09464892412231032,-0.6032446206115516,-2.683946772366931
11.299999999999997,0.09453567383918463,-0.6026783691959231,-2.683607021517554
11.319999999999997,0.09442242355605891,-0.6021121177802945,-2.6832672706681766
11.339999999999998,0.0943091732729332,-0.601545866364666,-2.6829275198188
11.359999999999998,0.09419592298980749,-0.6009796149490374,-2.6825877689694226
11.379999999999997,0.09408267270668179,-0.6004133635334089,-2.6822480181200454
11.399999999999997,0.09396942242355608,-0.5998471121177804,-2.6819082672706682
11.419999999999998,0.09385617214043036,-0.5992808607021518,-2.681568516421291
11.439999999999998,0.09374292185730466,-0.5987146092865233,-2.681228765571914
11.459999999999997,0.09362967157417895,-0.5981483578708947,-2.680889014722537
11.479999999999997,0.09351642129105325,-0.5975821064552662,-2.68054926387316
11.499999999999998,0.09340317100792754,-0.5970158550396376,-2.6802095130237826
11.519999999999998,0.09328992072480183,-0.5964496036240091,-2.6798697621744054
11.539999999999997,0.09317667044167613,-0.5958833522083806,-2.679530011325028
11.559999999999997,0.09306342015855042,-0.595317100792752,-2.6791902604756515
11.579999999999997,0.09295016987542472,-0.5947508493771235,-2.6788505096262742
11.599999999999998,0.09283691959229899,-0.5941845979614949,-2.678510758776897
11.619999999999997,0.09272366930917329,-0.5936183465458664,-2.67817100792752
11.639999999999997,0.09261041902604758,-0.5930520951302379,-2.6778312570781426
11.659999999999997,0.09249716874292188,-0.5924858437146093,-2.6774915062287654
11.679999999999998,0.09238391845979617,-0.5919195922989808,-2.6771517553793887
11.699999999999998,0.09227066817667046,-0.5913533408833522,-2.6768120045300114
11.719999999999997,0.09215741789354476,-0.5907870894677237,-2.6764722536806342
11.739999999999997,0.09204416761041904,-0.5902208380520952,-2.676132502831257
11.759999999999998,0.09193091732729333,-0.5896545866364666,-2.67579275198188
11.779999999999998,0.09181766704416763,-0.5890883352208381,-2.675453001132503
11.799999999999997,0.09170441676104192,-0.5885220838052095,-2.675113250283126
11.819999999999997,0.09159116647791622,-0.587955832389581,-2.6747734994337486
11.839999999999998,0.0914779161947905,-0.5873895809739524,-2.6744337485843714
11.859999999999998,0.0913646659116648,-0.586823329558324,-2.6740939977349942
11.879999999999997,0.09125141562853908,-0.5862570781426955,-2.673754246885617
11.899999999999997,0.09113816534541339,-0.5856908267270668,-2.6734144960362403
11.919999999999998,0.09102491506228767,-0.5851245753114384,-2.673074745186863
11.939999999999998,0.09091166477916196,-0.5845583238958098,-2.672734994337486
11.959999999999997,0.09079841449603626,-0.5839920724801813,-2.6723952434881086
11.979999999999997,0.09068516421291055,-0.5834258210645528,-2.6720554926387314
11.999999999999996,0.09057191392978485,-0.5828595696489243,-2.6717157417893547
12.019999999999998,0.09045866364665914,-0.5822933182332957,-2.6713759909399775
12.039999999999997,0.09034541336353342,-0.5817270668176671,-2.6710362400906003
12.059999999999997,0.09023216308040771,-0.5811608154020386,-2.670696489241223
12.079999999999997,0.09011891279728201,-0.5805945639864101,-2.670356738391846
12.099999999999998,0.0900056625141563,-0.5800283125707815,-2.6700169875424686
12.119999999999997,0.12999999999998224,0.3199999999999112,-2.430000000000018
12.139999999999997,-1.05,0.4800000000000355,1.7900000000000118
12.159999999999997,-1.0000000000000118,0.23000000000003554,1.7000000000000117
12.179999999999998,-0.9000000000000089,0.08000000000000444,1.64
12.199999999999998,-0.7333333333333492,-0.033333333333325436,1.62
12.219999999999997,-0.5700000000000236,-0.10999999999998816,1.6499999999999881
12.239999999999997,-0.42000000000001775,-0.13,1.66
12.259999999999998,-0.3200000000000089,-0.13,1.63
12.279999999999998,-0.2200000000000059,-0.11,1.550000000000006
12.299999999999997,-0.11000000000001184,-0.14999999999997632,1.3800000000000237
12.319999999999997,0.009999999999988157,-0.2599999999999763,1.1000000000000474
12.339999999999998,0.07999999999999408,-0.40999999999998815,0.7500000000000296
12.359999999999998,0.05000000000000593,-0.48,0.4300000000000296
12.379999999999997,-0.05999999999997631,-0.48,0.1700000000000237
12.399999999999997,-0.15999999999998224,-0.38000000000003553,-0.07999999999994671
12.419999999999996,-0.13000000000001777,-0.1600000000000533,-0.2899999999999467
12.439999999999998,0.04999999999994671,0.0899999999999467,-0.4999999999999467
12.459999999999997,0.30499999999996,0.2649999999999867,-0.71499999999996
12.479999999999997,0.5899999999999644,0.21000000000003552,-0.9999999999999526
12.499999999999996,0.789999999999929,-0.17999999999978683,-1.3399999999998224
12.519999999999998,0.89,-0.71499999999996,-1.7099999999999733
12.539999999999997,0.8500000000000059,-1.2299999999999645,-2.0799999999999765
12.559999999999997,0.6520000000000171,-1.5119999999999887,-2.367999999999983
12.579999999999997,0.37000000000004735,-1.5300000000000238,-2.499999999999988
12.599999999999998,0.17000000000000592,-1.2300000000000355,-2.4600000000000057
12.619999999999997,0.1299999999999941,-0.7000000000000414,-2.320000000000012
12.639999999999997,0.16999999999998816,-0.010000000000106576,-2.160000000000012
12.659999999999997,0.22999999999998816,0.5299999999999526,-2.040000000000012
12.679999999999998,0.3419999999999915,0.7459999999999958,-1.98
12.699999999999998,0.5499999999999823,0.6900000000000118,-1.95
12.719999999999997,0.7333333333333254,0.4200000000000237,-2.0366666666666506
12.739999999999997,0.8199999999999881,0.12000000000004736,-2.1699999999999764
12.759999999999998,0.83,-0.12999999999998224,-2.279999999999991
12.779999999999998,0.83,-0.16000000000001777,-2.2800000000000087
12.799999999999997,0.7700000000000119,0.07999999999995264,-2.1900000000000235
12.819999999999997,0.6800000000000237,0.3999999999999645,-1.9800000000000473
12.839999999999996,0.6040000000000078,0.6159999999999922,-1.6300000000000392
12.859999999999998,0.48000000000001775,0.69,-1.1400000000000354
12.879999999999997,0.24000000000004737,0.63,-0.6400000000000711
12.899999999999997,-0.049999999999964476,0.5000000000000236,-0.2100000000000592
12.919999999999996,-0.2666666666666391,0.4066666666666805,0.17666666666659758
12.939999999999998,-0.3799999999999911,0.35000000000000886,0.5299999999999556
12.959999999999997,-0.41,0.14666666666669825,0.9066666666666272
12.979999999999997,-0.43,-0.13999999999995266,1.2199999999999527
12.999999999999996,-0.5049999999999822,-0.3999999999999645,1.4749999999999468
13.019999999999998,-0.6099999999999941,-0.5100000000000059,1.7599999999999822
13.039999999999997,-0.6899999999999911,-0.43000000000001776,2.0499999999999643
13.059999999999997,-0.6425000000000078,-0.2850000000000156,2.2924999999999764
13.079999999999997,-0.4700000000000237,-0.13000000000002368,2.429999999999988
13.099999999999998,-0.2650000000000111,0.002499999999994449,2.3125000000000164
13.119999999999997,-0.09333333333334913,0.03,2.0466666666666984
13.139999999999997,-0.004000000000005685,-0.06599999999999431,1.7760000000000227
13.159999999999997,0.01,-0.25666666666663907,1.4500000000000415
13.179999999999998,-0.06666666666665087,-0.37,1.2000000000000237
13.199999999999998,-0.24999999999998224,-0.2900000000000118,1.040000000000006
13.219999999999997,-0.5024999999999766,0.06499999999995337,1.0
13.239999999999997,-0.7759999999999766,0.5899999999999609,1.1239999999999843
13.259999999999998,-0.9549999999999911,0.9749999999999733,1.3099999999999823
13.279999999999998,-1.03,1.0566666666666746,1.3933333333333253
13.299999999999997,-1.06,0.9300000000000356,1.39
13.319999999999997,-1.07,0.6700000000000356,1.3066666666666786
13.339999999999996,-1.0666666666666806,0.45333333333336095,1.27
13.359999999999998,-1.04,0.37,1.339999999999994
13.379999999999997,-1.04,0.37633333333333235,1.3726666666666647
13.399999999999997,-1.0999999999999646,0.5099999999999645,1.54
13.419999999999996,-1.1050000000000177,0.4700000000000355,1.5450000000000177
13.439999999999998,-0.9372727272727334,0.2972727272727334,1.4381818181818222
13.459999999999997,-0.6700000000001421,0.11000000000007105,1.2200000000001066
13.479999999999997,-0.33000000000005325,-0.11499999999996004,0.8700000000000533
13.499999999999996,-0.030000000000029607,-0.3999999999999704,0.496666666666716
13.519999999999998,0.16999999999997334,-0.5649999999999867,0.21500000000004
13.539999999999997,0.27333333333332543,-0.61,0.046666666666674565
13.559999999999997,0.31,-0.62,-0.09666666666665087
13.579999999999997,0.37333333333331953,-0.5100000000000414,-0.24666666666663903
13.599999999999998,0.44666666666665683,-0.2900000000000296,-0.4599999999999704
13.619999999999997,0.49,-0.056666666666686405,-0.813333333333284
13.639999999999997,0.5599999999999734,0.06,-1.24999999999992
13.659999999999997,0.6479999999999936,-0.03599999999998721,-1.6879999999999615
13.679999999999998,0.73,-0.32999999999996443,-2.134999999999956
13.699999999999998,0.6950000000000133,-0.6399999999999467,-2.43499999999996
13.719999999999997,0.6050000000000133,-0.8799999999999734,-2.6049999999999867
13.739999999999997,0.5050000000000178,-0.96,-2.5950000000000175
13.759999999999996,0.43666666666668047,-0.826666666666722,-2.453333333333361
13.779999999999998,0.3750000000000133,-0.41000000000007997,-2.3100000000000263
13.799999999999997,0.33,0.054999999999906735,-2.2450000000000134
13.819999999999997,0.33,0.5879999999999617,-2.2120000000000064
13.839999999999996,0.4749999999999467,0.8449999999999822,-2.185000000000018
13.859999999999998,0.6774999999999833,0.815000000000011,-2.17
13.879999999999997,0.8659999999999887,0.6080000000000227,-2.2159999999999886
13.899999999999997,1.0049999999999866,0.30500000000003996,-2.324999999999987
13.919999999999996,1.0749999999999824,0.0550000000000533,-2.41
13.939999999999998,1.12,-0.10499999999998669,-2.360000000000027
13.959999999999997,1.11,-0.11500000000001331,-2.15500000000004
13.979999999999997,1.0000000000000266,-0.010000000000026646,-1.8400000000000534
13.999999999999996,0.8200000000000356,0.15999999999996448,-1.4500000000001065
14.019999999999998,0.6000000000000266,0.3149999999999867,-1.0250000000000665
14.039999999999997,0.3800000000000237,0.29666666666667457,-0.6233333333333728
14.059999999999997,0.1400000000000533,0.19500000000001333,-0.19000000000007994
14.079999999999997,-0.11499999999994671,0.11,0.15999999999992895
14.099999999999998,-0.3249999999999889,0.12,0.37749999999998335
14.119999999999997,-0.43999999999997336,0.12500000000001332,0.6399999999999467
14.139999999999997,-0.5449999999999867,0.04500000000001332,0.9499999999999733
14.159999999999997,-0.6966666666666568,-0.05,1.313333333333284
14.179999999999996,-0.8449999999999822,0.009999999999964473,1.619999999999929
14.199999999999998,-0.93,0.2199999999999704,1.9199999999999704
14.219999999999997,-0.8700000000000266,0.35,2.2099999999999733
14.239999999999997,-0.6033333333333728,0.3133333333333432,2.386666666666657
14.259999999999996,-0.33500000000005326,0.1450000000000533,2.3750000000000178
14.279999999999998,-0.1666666666666864,-0.12999999999997042,2.173333333333373
14.299999999999997,-0.16,-0.3633333333333136,1.9266666666666863
14.319999999999997,-0.2799999999999645,-0.48,1.7400000000000355
14.339999999999996,-0.40499999999998226,-0.44000000000003553,1.65
14.359999999999998,-0.4799999999999911,-0.29000000000001774,1.64
14.379999999999997,-0.5466666666666569,0.043333333333283985,1.6866666666666568
14.399999999999997,-0.6266666666666568,0.3599999999999704,1.74
14.419999999999996,-0.7066666666666568,0.48,1.75
14.439999999999998,-0.7449999999999867,0.40000000000002667,1.7200000000000266
14.459999999999997,-0.77,0.1440000000000199,1.626000000000005
14.479999999999997,-0.8049999999999867,-0.09999999999997336,1.55
14.499999999999996,-0.82,-0.14439999999999853,1.56
14.519999999999998,-0.829999999999997,-0.15,1.5699999999999972
14.539999999999997,-0.97,0.22999999999997336,1.9299999999999733
14.559999999999997,-0.9133333333333432,0.32,2.056666666666657
14.579999999999997,-0.7500000000000355,0.30000000000001775,1.9900000000000355
14.599999999999996,-0.5466666666667219,0.22333333333336097,1.7533333333334025
14.619999999999997,-0.20000000000003554,0.030000000000017762,1.2100000000000621
14.639999999999997,0.19333333333328398,-0.1799999999999704,0.6066666666667456
14.659999999999997,0.5699999999999289,-0.35999999999996446,-0.0799999999998579
14.679999999999996,0.7166666666666548,-0.5166666666666548,-0.5366666666666193
14.699999999999998,0.6633333333333432,-0.5966666666666568,-0.8033333333333137
14.719999999999997,0.5066666666666864,-0.5733333333333431,-0.9633333333333136
14.739999999999997,0.38,-0.326666666666716,-1.0666666666666569
14.759999999999996,0.35,-0.003333333333372806,-1.2033333333333136
14.779999999999998,0.3799999999999911,0.17,-1.4599999999999733
14.799999999999997,0.5199999999999467,0.09000000000001776,-1.8199999999999112
14.819999999999997,0.6699999999999823,-0.03999999999998224,-2.2199999999999114
14.839999999999996,0.6933333333333431,-0.1066666666666568,-2.6233333333332842
14.859999999999998,0.6066666666666746,-0.15,-2.909999999999976
14.879999999999997,0.45000000000003554,-0.22999999999998225,-3.1599999999999646
14.899999999999997,0.37000000000000355,-0.27,-3.19
14.919999999999996,0.28,-0.1600000000000533,-2.9800000000000533
14.939999999999998,0.28,0.10999999999994671,-2.7300000000000533
14.959999999999997,0.32666666666665684,0.34333333333331356,-2.4500000000000295
14.979999999999997,0.4199999999999822,0.5199999999999823,-2.150000000000053
14.999999999999996,0.4949999999999911,0.5350000000000089,-1.9400000000000177
15.019999999999996,0.5666666666666509,0.4166666666666982,-1.8133333333333492
15.039999999999997,0.6499999999999911,0.24000000000001775,-1.7400000000000089
15.059999999999997,0.7099999999999822,0.10000000000003553,-1.72
15.079999999999997,0.75,-0.049999999999964476,-1.72
15.099999999999996,0.78,-0.09000000000001776,-1.6300000000000354
15.119999999999997,0.76,0.059999999999982234,-1.4400000000000177
15.139999999999997,0.6600000000000119,0.32999999999995266,-1.1700000000000472
15.159999999999997,0.5600000000000119,0.5399999999999882,-0.8600000000000474
15.179999999999996,0.5,0.5200000000000178,-0.5100000000000711
15.199999999999998,0.47,0.3487500000000075,-0.21500000000001
15.219999999999997,0.38973684210526377,0.08960526315789566,0.06052631578947245
15.239999999999997,0.3844736842105271,0.08171052631579062,0.07105263157894584
15.259999999999996,0.3792105263157904,0.07381578947368557,0.08157894736841922
15.279999999999998,0.3739473684210532,0.06592105263157982,0.09210526315789355
15.299999999999997,0.2800000000000711,-0.059999999999928944,0.2599999999998934
15.319999999999997,0.06000000000007105,-0.17999999999992894,0.5999999999998934
15.339999999999996,-0.9699999999999467,0.1699999999999112,1.8899999999999288
15.359999999999998,-1.134999999999997,0.5399999999999882,2.214999999999985
15.379999999999997,-1.1100000000000119,0.6700000000000119,2.5099999999999643
15.399999999999997,-0.8900000000000711,0.44000000000007106,2.6
15.419999999999996,-0.5600000000000711,0.07000000000010659,2.4700000000000535
15.439999999999996,-0.3100000000000355,-0.34999999999994075,2.1800000000000477
15.459999999999997,-0.22,-0.6699999999999645,1.8400000000000474
15.479999999999997,-0.26999999999998225,-0.8399999999999822,1.540000000000071
15.499999999999996,-0.34999999999998815,-0.7600000000000237,1.3700000000000119
15.519999999999996,-0.44499999999998,-0.44750000000004997,1.34249999999999
15.539999999999997,-0.5266666666666627,-0.2183333333333432,1.36
15.559999999999997,-0.7399999999999822,0.2099999999999467,1.4599999999999822
15.579999999999997,-0.82,0.33999999999998226,1.53
15.599999999999996,-0.85,0.2900000000000355,1.53
15.619999999999997,-0.8100000000000089,0.17000000000001778,1.44
15.639999999999997,-0.7300000000000119,0.05000000000001185,1.3600000000000119
15.659999999999997,-0.6200000000000119,1.1842957170493662e-14,1.2900000000000118
15.679999999999996,-0.5100000000000119,-0.06,1.24
15.699999999999998,-0.39000000000001184,-0.09,1.22
15.719999999999997,-0.31,-0.09,1.1900000000000117
15.739999999999997,-0.3,-0.010000000000023688,1.1500000000000117
15.759999999999996,-0.3299999999999882,0.09999999999997633,1.08
15.779999999999998,-0.32,0.14,0.9500000000000118
15.799999999999997,-0.26000000000001183,0.03000000000002368,0.8000000000000356
15.819999999999997,-0.18000000000001184,-0.11999999999998816,0.6100000000000236
15.839999999999996,-0.11000000000001184,-0.24999999999998815,0.4100000000000355
15.859999999999996,-0.05,-0.27,0.23000000000002369
15.879999999999997,0.01999999999998816,-0.23000000000001186,0.05000000000003553
15.899999999999997,0.13999999999992896,-0.12000000000007105,-0.12999999999992895
15.919999999999996,0.3299999999999763,0.04999999999997632,-0.35999999999996446
15.939999999999996,0.5299999999999645,0.12999999999998815,-0.6599999999999409
15.959999999999997,0.7099999999999763,0.08000000000001184,-1.0399999999999407
15.979999999999997,0.8599999999999763,-0.16999999999995263,-1.4499999999999407
15.999999999999996,0.91,-0.5699999999999289,-1.8799999999999288
16.019999999999996,0.8800000000000355,-0.8599999999998579,-2.1899999999998223
16.04,0.64,-1.16,-2.6
16.059999999999995,0.3600000000000355,-1.1900000000000117,-2.749999999999988
16.08,0.08,-0.93,-2.7
16.099999999999998,-0.07749999999999556,-0.4300000000000355,-2.545000000000009
16.119999999999997,-0.11,0.17999999999991712,-2.380000000000012
16.139999999999997,-0.03666666666667456,0.7099999999999526,-2.2766666666666744
16.159999999999997,0.09999999999996448,1.0299999999999467,-2.25
16.179999999999996,0.2699999999999645,1.1200000000000179,-2.27
16.199999999999996,0.47999999999994075,1.0033333333333727,-2.2833333333333137
16.219999999999995,0.6699999999999408,0.7266666666667456,-2.3
16.24,0.84,0.46,-2.33
16.259999999999998,0.9299999999999882,0.23000000000003554,-2.300000000000012
16.279999999999998,0.94,0.17,-2.090000000000024
16.299999999999997,0.9082758620689672,0.23344827586206585,-1.8631034482758684
16.319999999999997,0.9013793103448293,0.24724137931034146,-1.8355172413793173
16.339999999999996,0.7600000000000711,0.29,-1.3500000000002133
16.359999999999996,0.3000000000000474,0.2033333333333649,-0.5433333333334123
16.379999999999995,0.060000000000059214,0.14,-0.22333333333343203
16.399999999999995,-0.1366666666666272,0.1433333333333136,0.11333333333325439
16.419999999999998,-0.2533333333333254,0.22333333333332545,0.3933333333333017
16.439999999999998,-0.33333333333332543,0.2566666666666746,0.6899999999999763
16.459999999999997,-0.45333333333332543,0.15333333333334914,1.0033333333333017
16.479999999999997,-0.6266666666666508,-0.036666666666650874,1.3233333333333017
16.499999999999996,-0.8149999999999467,-0.14,1.6699999999999289
16.519999999999996,-1.0299999999999645,-0.08500000000001776,1.9549999999999468
16.539999999999996,-1.1,0.06999999999994672,2.22499999999992
16.559999999999995,-0.9800000000000533,0.12,2.449999999999947
16.58,-0.7700000000000178,0.040000000000017764,2.54
16.599999999999998,-0.5800000000000177,-0.10499999999999113,2.4600000000000177
16.619999999999997,-0.4900000000000355,-0.22999999999992896,2.2600000000001064
16.639999999999997,-0.5049999999999911,-0.33,1.9750000000000265
16.659999999999997,-0.6099999999999763,-0.28000000000002373,1.7800000000000238
16.679999999999996,-0.8733333333333018,0.05999999999995263,1.6566666666666745
16.699999999999996,-1.2799999999998817,0.526666666666568,1.65
16.719999999999995,-1.6633333333332543,0.986666666666568,1.7233333333333136
16.739999999999995,-1.8899999999999466,1.2349999999999732,1.76
16.759999999999998,-1.95,1.2225000000000044,1.705000000000009
16.779999999999998,-1.895000000000009,1.0350000000000266,1.5400000000000178
16.799999999999997,-1.7400000000000237,0.7900000000000237,1.373333333333349
16.819999999999997,-1.4750000000000532,0.5750000000000532,1.2450000000000179
16.839999999999996,-1.2200000000001066,0.3900000000001066,1.21
16.859999999999996,-0.94500000000008,0.18500000000007993,1.2050000000000267
16.879999999999995,-0.7260000000000298,-0.013999999999970156,1.18
16.899999999999995,-0.47600000000002984,-0.14799999999999006,1.17
16.919999999999998,-0.23000000000002369,-0.12666666666667456,1.0833333333333492
16.939999999999998,-0.033333333333349126,-0.05666666666667456,0.8800000000000237
16.959999999999997,0.12499999999999112,-0.06,0.6050000000000266
16.979999999999997,0.23499999999998222,-0.21999999999996447,0.33500000000005326
16.999999999999996,0.23500000000001775,-0.35,0.10000000000003553
17.019999999999996,0.14000000000003554,-0.3350000000000178,-0.09499999999998224
17.039999999999996,0.03500000000002665,-0.17500000000007992,-0.24499999999997335
17.059999999999995,0.0,0.10999999999989342,-0.35499999999997334
17.08,0.08499999999999111,0.3399999999999822,-0.4899999999999822
17.099999999999998,0.24999999999997335,0.41,-0.6499999999999823
17.119999999999997,0.5399999999999645,0.34000000000001773,-0.8949999999999734
17.139999999999997,0.8633333333333018,0.08666666666669826,-1.1733333333333016
17.159999999999997,1.1599999999999762,-0.3399999999999526,-1.5366666666666273
17.179999999999996,1.3249999999999824,-0.8699999999998934,-1.9749999999999113
17.199999999999996,1.3150000000000266,-1.3149999999998667,-2.3199999999998933
17.219999999999995,1.2150000000000265,-1.54,-2.5249999999999733
17.239999999999995,1.0600000000000533,-1.4250000000000798,-2.52
17.259999999999998,0.9600000000000078,-1.1300000000000274,-2.480000000000004
17.279999999999998,0.87,-0.1100000000001066,-2.415000000000009
17.299999999999997,0.84,0.7899999999999112,-2.384999999999991
17.319999999999997,0.8749999999999822,1.3749999999999112,-2.38
17.339999999999996,1.0199999999999645,1.555000000000018,-2.37
17.359999999999996,1.2149999999999201,1.3800000000001065,-2.3949999999999734
17.379999999999995,1.4033333333333016,0.9800000000000947,-2.476666666666651
17.399999999999995,1.5249999999999733,0.5450000000001332,-2.5649999999999733
17.419999999999998,1.604999999999991,0.24000000000001775,-2.585000000000009
17.439999999999998,1.595000000000009,0.17,-2.490000000000018
17.459999999999997,1.495000000000009,0.23999999999998223,-2.2950000000000266
17.479999999999997,1.3400000000000356,0.3549999999999822,-2.010000000000071
17.499999999999996,1.1466666666666983,0.40666666666665086,-1.6166666666667457
17.519999999999996,0.9100000000000474,0.3833333333333491,-1.143333333333444
17.539999999999996,0.5850000000001332,0.2700000000000533,-0.6150000000001865
17.559999999999995,0.16666666666674562,0.06666666666669824,-0.08000000000009475
17.579999999999995,-0.20999999999989344,-0.024999999999973356,0.3699999999998934
17.599999999999998,-0.4699999999999822,-0.04,0.6999999999999555
17.619999999999997,-0.57,-0.18999999999998224,1.0199999999999645
17.639999999999997,-0.6099999999999822,-0.34999999999996445,1.2799999999999467
17.659999999999997,-0.7433333333333018,-0.46666666666665085,1.5799999999999528
17.679999999999996,-0.8833333333333018,-0.4933333333333491,1.9066666666666034
17.699999999999996,-1.0419999999999745,-0.3440000000000341,2.2059999999999658
17.719999999999995,-1.2499999999999527,-0.023333333333396496,2.463333333333302
17.739999999999995,-1.376666666666651,0.1966666666666509,2.626666666666651
17.759999999999998,-1.41,0.1933333333333373,2.6833333333333376
17.779999999999998,-1.3466666666666747,-0.04666666666665087,2.6333333333333373
17.799999999999997,-1.2100000000000177,-0.3899999999999645,2.5000000000000178
17.819999999999997,-1.0933333333333493,-0.7099999999999526,2.3000000000000473
17.839999999999996,-1.0033333333333492,-0.7533333333333492,2.100000000000047
17.859999999999996,-0.9066666666666983,-0.5400000000000474,1.9100000000000472
17.879999999999995,-0.8433333333333491,-0.1566666666667456,1.7666666666666984
17.899999999999995,-0.8499999999999645,0.22999999999982237,1.6900000000000355
17.919999999999998,-0.9166666666666627,0.4833333333333254,1.6133333333333373
17.939999999999998,-0.97,0.45666666666667455,1.4700000000000117
17.959999999999997,-1.0266666666666628,0.3166666666666746,1.2200000000000117
17.979999999999997,-1.05,0.1833333333333491,0.9866666666666982
17.999999999999996,-1.0233333333333492,0.14666666666665087,0.9366666666666509
18.019999999999996,-1.02,0.16,0.9999999999999911
18.039999999999996,-1.0000000000000178,0.24999999999998224,1.1599999999999644
18.059999999999995,-0.9200000000000178,0.2700000000000178,1.25
18.079999999999995,-0.7700000000000355,0.20000000000001777,1.26
18.099999999999998,-0.6000000000000355,0.04000000000003553,1.2000000000000355
18.119999999999997,-0.4200000000000355,-0.1799999999999467,1.0700000000000534
18.139999999999997,-0.3100000000000018,-0.31499999999999734,0.9650000000000026
18.159999999999997,-0.08000000000001777,-0.5199999999999823,0.6000000000000533
18.179999999999996,-0.04,-0.54,0.30000000000007104
18.199999999999996,-0.06,-0.4800000000000355,0.04000000000005329
18.219999999999995,-0.1,-0.3666666666666982,-0.16333333333330177
18.239999999999995,-0.05000000000003553,-0.11000000000007105,-0.3299999999999645
18.259999999999998,0.07999999999996447,0.1799999999999467,-0.5299999999999467
18.279999999999998,0.2699999999999882,0.33666666666666273,-0.7599999999999881
18.299999999999997,0.5466666666666509,0.33666666666667455,-1.0266666666666509
18.319999999999997,0.8533333333332543,0.13333333333339648,-1.3433333333332544
18.339999999999996,1.1299999999999526,-0.21333333333325438,-1.7699999999999052
18.359999999999996,1.2599999999999822,-0.6399999999999112,-2.259999999999911
18.379999999999995,1.2300000000000177,-0.9599999999999467,-2.6399999999999113
18.399999999999995,1.1166666666666982,-1.126666666666651,-2.836666666666651
18.419999999999995,0.9800000000001421,-1.0600000000001422,-2.820000000000071
18.439999999999998,0.8433333333333373,-0.6200000000000236,-2.6933333333333374
18.459999999999997,0.7300000000000177,-0.030000000000142107,-2.5900000000000354
18.479999999999997,0.7366666666666508,0.5399999999999053,-2.53
18.499999999999996,0.8699999999999645,0.9099999999999467,-2.51
18.519999999999996,1.0599999999999645,0.97,-2.51
18.539999999999996,1.2699999999999763,0.7900000000000356,-2.569999999999988
18.559999999999995,1.4899999999999467,0.45000000000008883,-2.6899999999999644
18.579999999999995,1.6799999999999644,0.08000000000007106,-2.8599999999999643
18.599999999999998,1.8099999999999858,-0.23999999999997157,-2.959999999999993
18.619999999999997,1.9299999999999822,-0.48,-2.820000000000053
18.639999999999997,1.893333333333345,-0.40000000000001773,-2.4400000000000355
18.659999999999997,1.6000000000000711,-0.11000000000007105,-1.8300000000001422
18.679999999999996,1.1400000000001065,0.2799999999999112,-1.1900000000001598
18.699999999999996,0.5600000000001066,0.48499999999998666,-0.6150000000000932
18.719999999999995,-0.08999999999987564,0.46,-0.04000000000012434
18.739999999999995,-0.5099999999999526,0.3600000000000237,0.41999999999994075
18.759999999999998,-0.7199999999999644,0.2500000000000355,0.7399999999998934
18.779999999999998,-0.74,0.11500000000001333,0.9849999999999867
18.799999999999997,-0.7,-0.08999999999992894,1.2999999999998224
18.819999999999997,-0.7399999999999822,-0.21999999999998224,1.609999999999929
18.839999999999996,-0.8599999999999645,-0.22500000000001777,1.8999999999999289
18.859999999999996,-1.0699999999999468,-0.07000000000003553,2.1699999999999466
18.879999999999995,-1.2399999999999645,0.16999999999994672,2.409999999999947
18.899999999999995,-1.2350000000000132,0.3149999999999867,2.5799999999999734
18.919999999999995,-1.1200000000000474,0.2900000000000237,2.62
18.939999999999998,-0.9900000000000178,0.09000000000007105,2.5200000000000355
18.959999999999997,-0.8300000000000088,-0.2749999999999778,2.4150000000000045
18.979999999999997,-0.6400000000000237,-0.6899999999999525,2.300000000000012
18.999999999999996,-0.5400000000000119,-0.8999999999999881,2.2100000000000235
19.019999999999996,-0.5599999999999645,-0.8100000000000711,2.110000000000071
19.039999999999996,-0.6999999999999289,-0.4800000000001776,2.0000000000000355
19.059999999999995,-0.8999999999999467,-0.020000000000124363,1.93
19.079999999999995,-1.1999999999999644,0.5299999999999409,1.89
19.099999999999998,-1.4199999999999466,0.8199999999999467,1.8200000000000178
19.119999999999997,-1.5599999999999883,0.8300000000000118,1.7000000000000237
19.139999999999997,-1.5700000000000118,0.7000000000000118,1.5800000000000118
19.159999999999997,-1.4300000000000355,0.5500000000000356,1.53
19.179999999999996,-1.2000000000000237,0.4366666666666746,1.5533333333333255
19.199999999999996,-0.9900000000000236,0.3400000000000237,1.59
19.219999999999995,-0.8100000000000237,0.19000000000002368,1.62
19.239999999999995,-0.6680000000000199,-0.017999999999970158,1.58400000000001
19.259999999999994,-0.49000000000004734,-0.24999999999992895,1.4600000000000473
19.279999999999998,-0.3000000000000355,-0.4299999999999763,1.2600000000000473
19.299999999999997,-0.08000000000005329,-0.49999999999998224,0.9600000000000888
19.319999999999997,0.09999999999997633,-0.55,0.5600000000000592
19.339999999999996,0.17999999999998814,-0.56,0.15000000000004737
19.359999999999996,0.21,-0.5100000000000119,-0.19999999999995266
19.379999999999995,0.23,-0.41000000000001774,-0.4699999999999467
19.399999999999995,0.28999999999996445,-0.2000000000001066,-0.6899999999998934
19.419999999999995,0.43999999999992895,0.11999999999985789,-0.8799999999998934
19.439999999999998,0.6599999999999645,0.43999999999995265,-1.1199999999999528
19.459999999999997,0.947999999999983,0.6459999999999944,-1.4199999999999715
19.479999999999997,1.2499999999999762,0.5100000000000237,-1.8366666666666274
19.499999999999996,1.4233333333333253,0.1733333333333728,-2.2366666666666273
19.519999999999996,1.48,-0.2066666666666272,-2.626666666666627
19.539999999999996,1.4266666666666863,-0.5299999999999409,-2.9833333333332543
19.559999999999995,1.3266666666666864,-0.7466666666666272,-3.1833333333333136
19.579999999999995,1.29,-0.8,-3.120000000000071
19.599999999999998,1.28,-0.6700000000000237,-2.8566666666666984
19.619999999999997,1.27,-0.42000000000003557,-2.5150000000000445
19.639999999999997,1.2666666666666746,-0.1600000000000237,-2.2200000000000237
19.659999999999997,1.27,0.019999999999976315,-2.050000000000012
19.679999999999996,1.29,0.016666666666674563,-2.0
19.699999999999996,1.33,-0.12999999999994077,-2.0633333333333135
19.719999999999995,1.3699999999999883,-0.3299999999999763,-2.139999999999988
19.739999999999995,1.36,-0.4649999999999733,-2.1949999999999736
19.759999999999994,1.2980000000000114,-0.48800000000001137,-2.21
19.779999999999998,1.1800000000000237,-0.3800000000000237,-2.120000000000012
19.799999999999997,1.0000000000000355,-0.21000000000002367,-1.9100000000000354
19.819999999999997,0.8133333333333491,-0.04333333333334913,-1.5533333333333728
19.839999999999996,0.6500000000000237,0.09333333333332544,-1.1966666666666983
19.859999999999996,0.4700000000000474,0.1,-0.8066666666667298
19.879999999999995,0.27250000000004,0.06750000000001333,-0.3675000000000666
19.899999999999995,0.04000000000005921,-0.0433333333333136,0.08666666666656798
19.919999999999995,-0.18399999999997727,-0.05800000000001137,0.5199999999999432
19.939999999999998,-0.2933333333333254,-0.04,0.8933333333333018
19.959999999999997,-0.32999999999998225,-0.11999999999996447,1.199999999999929
19.979999999999997,-0.3966666666666509,-0.2533333333333254,1.5099999999999763
19.999999999999996,-0.5266666666666509,-0.29,1.7499999999999762
20.019999999999996,-0.6966666666666508,-0.23666666666667455,2.0099999999999763
20.039999999999996,-0.8299999999999763,-0.12000000000002368,2.2799999999999523
20.059999999999995,-0.8266666666666863,0.0433333333333136,2.5499999999999408
20.079999999999995,-0.7400000000000236,0.13,2.7199999999999767
20.099999999999994,-0.69,0.12500000000002665,2.7150000000000265
20.119999999999997,-0.69,0.020000000000023686,2.6200000000000236
20.139999999999997,-0.68,-0.15666666666665088,2.4833333333333494
20.159999999999997,-0.68,-0.17000859393650036,2.4699914060635
20.179999999999996,-0.68,-0.1700181427548341,2.469981857245166
20.199999999999996,-0.68,-0.17002769157316783,2.4699723084268324
20.219999999999995,-0.68,-0.17003724039150156,2.4699627596084985
20.239999999999995,-0.68,-0.1700467892098353,2.4699532107901647
20.259999999999994,-0.68,-0.17005633802816902,2.4699436619718314
20.279999999999998,-0.68,-0.17006588684650276,2.4699341131534975
20.299999999999997,-0.68,-0.1700754356648365,2.4699245643351637
20.319999999999997,-0.68,-0.17008498448317022,2.46991501551683
20.339999999999996,-0.68,-0.17009453330150395,2.469905466698496
20.359999999999996,-0.68,-0.17010408211983769,2.4698959178801627
20.379999999999995,-0.68,-0.17011363093817142,2.469886369061829
20.399999999999995,-0.68,-0.17012317975650515,2.469876820243495
20.419999999999995,-0.68,-0.17013272857483888,2.4698672714251613
20.439999999999998,-0.68,-0.17014227739317261,2.4698577226068275
20.459999999999997,-0.68,-0.17015182621150635,2.469848173788494
20.479999999999997,-0.68,-0.17016137502984008,2.4698386249701603
20.499999999999996,-0.68,-0.1701709238481738,2.4698290761518265
20.519999999999996,-0.68,-0.17018047266650754,2.4698195273334926
20.539999999999996,-0.68,-0.17019002148484125,2.469809978515159
20.559999999999995,-0.68,-0.17019957030317498,2.469800429696825
20.579999999999995,-0.68,-0.1702091191215087,2.4697908808784916
20.599999999999994,-0.68,-0.17021866793984244,2.469781332060158
20.619999999999997,-0.68,-0.17022821675817618,2.469771783241824
20.639999999999997,-0.68,-0.1702377655765099,2.46976223442349
20.659999999999997,-0.68,-0.17024731439484364,2.4697526856051564
20.679999999999996,-0.68,-0.17025686321317737,2.469743136786823
20.699999999999996,-0.68,-0.1702664120315111,2.469733587968489
20.719999999999995,-0.68,-0.17027596084984484,2.4697240391501554
20.739999999999995,-0.68,-0.17028550966817857,2.4697144903318216
20.759999999999994,-0.68,-0.1702950584865123,2.4697049415134877
20.779999999999998,-0.68,-0.17030460730484603,2.4696953926951544
20.799999999999997,-0.68,-0.17031415612317977,2.4696858438768206
20.819999999999997,-0.68,-0.1703237049415135,2.4696762950584867
20.839999999999996,-0.68,-0.17033325375984723,2.469666746240153
20.859999999999996,-0.68,-0.17034280257818096,2.469657197421819
20.879999999999995,-0.68,-0.1703523513965147,2.4696476486034857
20.899999999999995,-0.68,-0.17036190021484843,2.469638099785152
20.919999999999995,-0.68,-0.17037144903318216,2.469628550966818
20.939999999999998,-0.68,-0.1703809978515159,2.4696190021484843
20.959999999999997,-0.68,-0.17039054666984962,2.4696094533301505
20.979999999999997,-0.68,-0.17040009548818336,2.4695999045118167
20.999999999999996,-0.68,-0.1704096443065171,2.4695903556934833
21.019999999999996,-0.68,-0.17041919312485082,2.4695808068751495
21.039999999999996,-0.68,-0.17042874194318455,2.4695712580568157
21.059999999999995,-0.68,-0.17043829076151829,2.469561709238482
21.079999999999995,-0.68,-0.170447839579852,2.469552160420148
21.099999999999994,-0.68,-0.17045738839818572,2.4695426116018147
21.119999999999997,-0.68,-0.17046693721651945,2.469533062783481
21.139999999999997,-0.68,-0.1704764860348532,2.469523513965147
21.159999999999997,-0.68,-0.17048603485318692,2.469513965146813
21.179999999999996,-0.68,-0.17049558367152065,2.4695044163284794
21.199999999999996,-0.68,-0.17050513248985438,2.469494867510146
21.219999999999995,-0.68,-0.17051468130818812,2.469485318691812
21.239999999999995,-0.68,-0.17052423012652185,2.4694757698734784
21.259999999999994,-0.68,-0.17053377894485558,2.4694662210551446
21.279999999999998,-0.68,-0.1705433277631893,2.4694566722368108
21.299999999999997,-0.68,-0.17055287658152304,2.469447123418477
21.319999999999997,-0.68,-0.17056242539985678,2.4694375746001436
21.339999999999996,-0.68,-0.1705719742181905,2.4694280257818098
21.359999999999996,-0.68,-0.17058152303652424,2.469418476963476
21.379999999999995,-0.68,-0.17059107185485797,2.469408928145142
21.399999999999995,-0.68,-0.1706006206731917,2.4693993793268083
21.419999999999995,-0.68,-0.17061016949152544,2.469389830508475
21.439999999999994,-0.68,-0.17061971830985917,2.469380281690141
21.459999999999997,-0.68,-0.1706292671281929,2.4693707328718073
21.479999999999997,-0.68,-0.17063881594652663,2.4693611840534735
21.499999999999996,-0.68,-0.17064836476486037,2.4693516352351397
21.519999999999996,-0.68,-0.1706579135831941,2.4693420864168063
21.539999999999996,-0.68,-0.17066746240152783,2.4693325375984725
21.559999999999995,-0.68,-0.17067701121986156,2.4693229887801387
21.579999999999995,-0.68,-0.1706865600381953,2.469313439961805
21.599999999999994,-0.68,-0.17069610885652903,2.469303891143471
21.619999999999997,-0.68,-0.17070565767486276,2.4692943423251377
21.639999999999997,-0.68,-0.17071520649319646,2.469284793506804
21.659999999999997,-0.68,-0.1707247553115302,2.46927524468847
21.679999999999996,-0.68,-0.17073430412986393,2.4692656958701362
21.699999999999996,-0.68,-0.17074385294819766,2.4692561470518024
21.719999999999995,-0.68,-0.1707534017665314,2.4692465982334686
21.739999999999995,-0.68,-0.17076295058486513,2.469237049415135
21.759999999999994,-0.68,-0.17077249940319886,2.4692275005968014
21.779999999999998,-0.68,-0.1707820482215326,2.4692179517784676
21.799999999999997,-0.68,-0.17079159703986632,2.4692084029601338
21.819999999999997,-0.68,-0.17080114585820005,2.4691988541418
21.839999999999996,-0.68,-0.1708106946765338,2.4691893053234666
21.859999999999996,-0.68,-0.17082024349486752,2.4691797565051328
21.879999999999995,-0.68,-0.17082979231320125,2.469170207686799
21.899999999999995,-0.68,-0.17083934113153498,2.469160658868465
21.919999999999995,-0.68,-0.17084888994986872,2.4691511100501313
21.939999999999994,-0.68,-0.17085843876820245,2.469141561231798
21.959999999999997,-0.68,-0.17086798758653618,2.469132012413464
21.979999999999997,-0.68,-0.1708775364048699,2.4691224635951303
21.999999999999996,-0.68,-0.17088708522320364,2.4691129147767965
22.019999999999996,-0.68,-0.17089663404153738,2.4691033659584627
22.039999999999996,-0.68,-0.1709061828598711,2.4690938171401293
22.059999999999995,-0.68,-0.17091573167820484,2.4690842683217955
22.079999999999995,-0.68,-0.17092528049653857,2.4690747195034617
22.099999999999994,-0.68,-0.1709348293148723,2.469065170685128
22.119999999999997,-0.68,-0.17094437813320604,2.469055621866794
22.139999999999997,-0.68,-0.17095392695153977,2.4690460730484602
22.159999999999997,-0.68,-0.1709634757698735,2.469036524230127
22.179999999999996,-0.68,-0.1709730245882072,2.469026975411793
22.199999999999996,-0.68,-0.17098257340654094,2.4690174265934592
22.219999999999995,-0.68,-0.17099212222487467,2.4690078777751254
22.239999999999995,-0.68,-0.1710016710432084,2.4689983289567916
22.259999999999994,-0.68,-0.17101121986154214,2.4689887801384582
22.279999999999994,-0.68,-0.17102076867987587,2.4689792313201244
22.299999999999997,-0.68,-0.1710303174982096,2.4689696825017906
22.319999999999997,-0.68,-0.17103986631654333,2.468960133683457
22.339999999999996,-0.68,-0.17104941513487706,2.468950584865123
22.359999999999996,-0.68,-0.1710589639532108,2.4689410360467896
22.379999999999995,-0.68,-0.17106851277154453,2.468931487228456
22.399999999999995,-0.68,-0.17107806158987826,2.468921938410122
22.419999999999995,-0.68,-0.171087610408212,2.468912389591788
22.439999999999994,-0.68,-0.17109715922654573,2.4689028407734543
22.459999999999997,-0.68,-0.17110670804487946,2.4688932919551205
22.479999999999997,-0.68,-0.1711162568632132,2.468883743136787
22.499999999999996,-0.68,-0.17112580568154692,2.4688741943184533
22.519999999999996,-0.68,-0.17113535449988065,2.4688646455001195
22.539999999999996,-0.68,-0.1711449033182144,2.4688550966817857
22.559999999999995,-0.68,-0.17115445213654812,2.468845547863452
22.579999999999995,-0.68,-0.17116400095488185,2.4688359990451185
22.599999999999994,-0.68,-0.17117354977321558,2.4688264502267847
22.619999999999997,-0.68,-0.17118309859154932,2.468816901408451
22.639999999999997,-0.68,-0.17119264740988305,2.468807352590117
22.659999999999997,-0.68,-0.17120219622821678,2.4687978037717833
22.679999999999996,-0.68,-0.1712117450465505,2.46878825495345
22.699999999999996,-0.68,-0.17122129386488424,2.468778706135116
22.719999999999995,-0.68,-0.17123084268321795,2.4687691573167823
22.739999999999995,-0.68,-0.17124039150155168,2.4687596084984484
22.759999999999994,-0.68,-0.1712499403198854,2.4687500596801146
22.779999999999994,-0.68,-0.17125948913821915,2.4687405108617813
22.799999999999997,-0.68,-0.17126903795655288,2.4687309620434474
22.819999999999997,-0.68,-0.1712785867748866,2.4687214132251136
22.839999999999996,-0.68,-0.17128813559322034,2.46871186440678
22.859999999999996,-0.68,-0.17129768441155407,2.468702315588446
22.879999999999995,-0.68,-0.1713072332298878,2.468692766770112
22.899999999999995,-0.68,-0.17131678204822154,2.468683217951779
22.919999999999995,-0.68,-0.17132633086655527,2.468673669133445
22.939999999999994,-0.68,-0.171335879684889,2.468664120315111
22.959999999999997,-0.68,-0.17134542850322274,2.4686545714967774
22.979999999999997,-0.68,-0.17135497732155647,2.4686450226784435
22.999999999999996,-0.68,-0.1713645261398902,2.46863547386011
23.019999999999996,-0.68,-0.17137407495822393,2.4686259250417764
23.039999999999996,-0.68,-0.17138362377655766,2.4686163762234425
23.059999999999995,-0.68,-0.1713931725948914,2.4686068274051087
23.079999999999995,-0.68,-0.17140272141322513,2.468597278586775
23.099999999999994,-0.68,-0.17141227023155886,2.4685877297684415
23.119999999999994,-0.68,-0.1714218190498926,2.4685781809501077
23.139999999999997,-0.68,-0.17143136786822633,2.468568632131774
23.159999999999997,-0.68,-0.17144091668656006,2.46855908331344
23.179999999999996,-0.68,-0.1714504655048938,2.4685495344951063
23.199999999999996,-0.68,-0.17146001432322752,2.468539985676773
23.219999999999995,-0.68,-0.17146956314156125,2.468530436858439
23.239999999999995,-0.68,-0.17147911195989496,2.4685208880401053
23.259999999999994,-0.68,-0.1714886607782287,2.4685113392217715
23.279999999999994,-0.68,-0.17149820959656242,2.4685017904034376
23.299999999999997,-0.68,-0.17150775841489616,2.468492241585104
23.319999999999997,-0.68,-0.1715173072332299,2.4684826927667705
23.339999999999996,-0.68,-0.17152685605156362,2.4684731439484366
23.359999999999996,-0.68,-0.17153640486989735,2.468463595130103
23.379999999999995,-0.68,-0.17154595368823108,2.468454046311769
23.399999999999995,-0.68,-0.17155550250656482,2.468444497493435
23.419999999999995,-0.68,-0.17156505132489855,2.468434948675102
23.439999999999994,-0.68,-0.17157460014323228,2.468425399856768
23.459999999999997,-0.68,-0.171584148961566,2.468415851038434
23.479999999999997,-0.68,-0.17159369777989975,2.4684063022201004
23.499999999999996,-0.68,-0.17160324659823348,2.4683967534017666
23.519999999999996,-0.68,-0.1716127954165672,2.468387204583433
23.539999999999996,-0.68,-0.17162234423490094,2.4683776557650994
23.559999999999995,-0.68,-0.17163189305323467,2.4683681069467656
23.579999999999995,-0.68,-0.1716414418715684,2.4683585581284317
23.599999999999994,-0.68,-0.17165099068990214,2.468349009310098
23.619999999999994,-0.68,-0.17166053950823587,2.4683394604917646
23.639999999999997,-0.68,-0.1716700883265696,2.4683299116734307
23.659999999999997,-0.68,-0.17167963714490334,2.468320362855097
23.679999999999996,-0.68,-0.17168918596323707,2.468310814036763
23.699999999999996,-0.68,-0.1716987347815708,2.4683012652184293
23.719999999999995,-0.68,-0.17170828359990453,2.4682917164000955
23.739999999999995,-0.68,-0.17171783241823826,2.468282167581762
23.759999999999994,-0.68,-0.171727381236572,2.4682726187634283
23.779999999999994,-0.68,-0.1717369300549057,2.4682630699450945
23.799999999999997,-0.68,-0.17174647887323943,2.4682535211267607
23.819999999999997,-0.68,-0.17175602769157317,2.468243972308427
23.839999999999996,-0.68,-0.1717655765099069,2.4682344234900935
23.859999999999996,-0.68,-0.17177512532824063,2.4682248746717597
23.879999999999995,-0.68,-0.17178467414657436,2.468215325853426
23.899999999999995,-0.68,-0.1717942229649081,2.468205777035092
23.919999999999995,-0.68,-0.17180377178324183,2.468196228216758
23.939999999999994,-0.68,-0.17181332060157556,2.468186679398425
23.959999999999994,-0.68,-0.1718228694199093,2.468177130580091
23.979999999999997,-0.68,-0.17183241823824302,2.468167581761757
23.999999999999996,-0.68,-0.17184196705657676,2.4681580329434234
24.019999999999996,-0.68,-0.1718515158749105,2.4681484841250896
24.039999999999996,-0.68,-0.17186106469324422,2.4681389353067558
24.059999999999995,-0.68,-0.17187061351157795,2.4681293864884224
24.079999999999995,-0.68,-0.17188016232991168,2.4681198376700886
24.099999999999994,-0.68,-0.17188971114824542,2.4681102888517548
24.119999999999994,-0.68,-0.17189925996657915,2.468100740033421
24.139999999999997,-0.68,-0.17190880878491288,2.468091191215087
24.159999999999997,-0.68,-0.1719183576032466,2.4680816423967538
24.179999999999996,-0.68,-0.17192790642158035,2.46807209357842
24.199999999999996,-0.68,-0.17193745523991408,2.468062544760086
24.219999999999995,-0.68,-0.1719470040582478,2.4680529959417523
24.239999999999995,-0.68,-0.17195655287658154,2.4680434471234185
24.259999999999994,-0.68,-0.17196610169491527,2.468033898305085
24.279999999999994,-0.68,-0.171975650513249,2.4680243494867513
24.299999999999997,-0.68,-0.17198519933158274,2.4680148006684175
24.319999999999997,-0.68,-0.17199474814991647,2.4680052518500837
24.339999999999996,-0.68,-0.17200429696825018,2.46799570303175
24.359999999999996,-0.68,-0.1720138457865839,2.4679861542134165
24.379999999999995,-0.68,-0.17202339460491764,2.4679766053950827
24.399999999999995,-0.68,-0.17203294342325137,2.467967056576749
24.419999999999995,-0.68,-0.1720424922415851,2.467957507758415
24.439999999999994,-0.68,-0.17205204105991884,2.4679479589400812
24.459999999999994,-0.68,-0.17206158987825257,2.4679384101217474
24.479999999999997,-0.68,-0.1720711386965863,2.467928861303414
24.499999999999996,-0.68,-0.17208068751492003,2.4679193124850802
24.519999999999996,-0.68,-0.17209023633325377,2.4679097636667464
24.539999999999996,-0.68,-0.1720997851515875,2.4679002148484126
24.559999999999995,-0.68,-0.17210933396992123,2.467890666030079
24.579999999999995,-0.68,-0.17211888278825496,2.4678811172117454
24.599999999999994,-0.68,-0.1721284316065887,2.4678715683934116
24.619999999999994,-0.68,-0.17213798042492243,2.467862019575078
24.639999999999997,-0.68,-0.17214752924325616,2.467852470756744
24.659999999999997,-0.68,-0.1721570780615899,2.46784292193841
24.679999999999996,-0.68,-0.17216662687992362,2.467833373120077
24.699999999999996,-0.68,-0.17217617569825736,2.467823824301743
24.719999999999995,-0.68,-0.1721857245165911,2.467814275483409
24.739999999999995,-0.68,-0.17219527333492482,2.4678047266650753
24.759999999999994,-0.68,-0.17220482215325855,2.4677951778467415
24.779999999999994,-0.68,-0.17221437097159228,2.467785629028408
24.799999999999994,-0.68,-0.17222391978992602,2.4677760802100743
24.819999999999997,-0.68,-0.17223346860825975,2.4677665313917405
24.839999999999996,-0.68,-0.17224301742659348,2.4677569825734067
24.859999999999996,-0.68,-0.1722525662449272,2.467747433755073
24.879999999999995,-0.68,-0.17226211506326092,2.467737884936739
24.899999999999995,-0.68,-0.17227166388159465,2.4677283361184057
24.919999999999995,-0.68,-0.17228121269992838,2.467718787300072
24.939999999999994,-0.68,-0.17229076151826211,2.467709238481738
24.959999999999994,-0.68,-0.17230031033659585,2.4676996896634042
24.979999999999997,-0.68,-0.17230985915492958,2.4676901408450704
24.999999999999996,-0.68,-0.1723194079732633,2.467680592026737
25.019999999999996,-0.68,-0.17232895679159704,2.4676710432084032
25.039999999999996,-0.68,-0.17233850560993078,2.4676614943900694
25.059999999999995,-0.68,-0.1723480544282645,2.4676519455717356
25.079999999999995,-0.68,-0.17235760324659824,2.467642396753402
25.099999999999994,-0.68,-0.17236715206493197,2.4676328479350684
25.119999999999994,-0.68,-0.1723767008832657,2.4676232991167346
25.139999999999997,-0.68,-0.17238624970159944,2.467613750298401
25.159999999999997,-0.68,-0.17239579851993317,2.467604201480067
25.179999999999996,-0.68,-0.1724053473382669,2.467594652661733
25.199999999999996,-0.68,-0.17241489615660063,2.4675851038433994
25.219999999999995,-0.68,-0.17242444497493437,2.467575555025066
25.239999999999995,-0.68,-0.1724339937932681,2.467566006206732
25.259999999999994,-0.68,-0.17244354261160183,2.4675564573883983
25.279999999999994,-0.68,-0.17245309142993556,2.4675469085700645
25.299999999999994,-0.68,-0.1724626402482693,2.4675373597517307
25.319999999999997,-0.68,-0.17247218906660303,2.4675278109333973
25.339999999999996,-0.68,-0.17248173788493676,2.4675182621150635
25.359999999999996,-0.68,-0.1724912867032705,2.4675087132967297
25.379999999999995,-0.68,-0.17250083552160422,2.467499164478396
25.399999999999995,-0.68,-0.17251038433993793,2.467489615660062
25.419999999999995,-0.68,-0.17251993315827166,2.4674800668417287
25.439999999999994,-0.68,-0.1725294819766054,2.467470518023395
25.459999999999994,-0.68,-0.17253903079493912,2.467460969205061
25.479999999999997,-0.68,-0.17254857961327286,2.4674514203867273
25.499999999999996,-0.68,-0.1725581284316066,2.4674418715683935
25.519999999999996,-0.68,-0.17256767724994032,2.46743232275006
25.539999999999996,-0.68,-0.17257722606827405,2.4674227739317263
25.559999999999995,-0.68,-0.17258677488660779,2.4674132251133924
25.579999999999995,-0.68,-0.17259632370494152,2.4674036762950586
25.599999999999994,-0.68,-0.17260587252327525,2.467394127476725
25.619999999999994,-0.68,-0.17261542134160898,2.467384578658391
25.639999999999993,-0.68,-0.17262497015994271,2.4673750298400576
25.659999999999997,-0.68,-0.17263451897827645,2.467365481021724
25.679999999999996,-0.68,-0.17264406779661018,2.46735593220339
25.699999999999996,-0.68,-0.1726536166149439,2.467346383385056
25.719999999999995,-0.68,-0.17266316543327764,2.4673368345667224
25.739999999999995,-0.68,-0.17267271425161138,2.467327285748389
25.759999999999994,-0.68,-0.1726822630699451,2.467317736930055
25.779999999999994,-0.68,-0.17269181188827884,2.4673081881117214
25.799999999999994,-0.68,-0.17270136070661257,2.4672986392933876
25.819999999999997,-0.68,-0.1727109095249463,2.4672890904750537
25.839999999999996,-0.68,-0.17272045834328004,2.4672795416567204
25.859999999999996,-0.68,-0.17273000716161377,2.4672699928383865
25.879999999999995,-0.68,-0.1727395559799475,2.4672604440200527
25.899999999999995,-0.68,-0.17274910479828123,2.467250895201719
25.919999999999995,-0.68,-0.17275865361661497,2.467241346383385
25.939999999999994,-0.68,-0.17276820243494867,2.4672317975650517
25.959999999999994,-0.68,-0.1727777512532824,2.467222248746718
25.979999999999997,-0.68,-0.17278730007161613,2.467212699928384
25.999999999999996,-0.68,-0.17279684888994987,2.4672031511100503
26.019999999999996,-0.68,-0.1728063977082836,2.4671936022917165
26.039999999999996,-0.68,-0.17281594652661733,2.4671840534733827
26.059999999999995,-0.68,-0.17282549534495106,2.4671745046550493
26.079999999999995,-0.68,-0.1728350441632848,2.4671649558367155
26.099999999999994,-0.68,-0.17284459298161853,2.4671554070183817
26.119999999999994,-0.68,-0.17285414179995226,2.467145858200048
26.139999999999993,-0.68,-0.172863690618286,2.467136309381714
26.159999999999997,-0.68,-0.17287323943661972,2.4671267605633806
26.179999999999996,-0.68,-0.17288278825495346,2.467117211745047
26.199999999999996,-0.68,-0.1728923370732872,2.467107662926713
26.219999999999995,-0.68,-0.17290188589162092,2.467098114108379
26.239999999999995,-0.68,-0.17291143470995465,2.4670885652900454
26.259999999999994,-0.68,-0.17292098352828839,2.467079016471712
26.279999999999994,-0.68,-0.17293053234662212,2.467069467653378
26.299999999999994,-0.68,-0.17294008116495585,2.4670599188350444
26.319999999999997,-0.68,-0.17294962998328958,2.4670503700167106
26.339999999999996,-0.68,-0.17295917880162331,2.4670408211983768
26.359999999999996,-0.68,-0.17296872761995705,2.4670312723800434
26.379999999999995,-0.68,-0.17297827643829078,2.4670217235617096
26.399999999999995,-0.68,-0.1729878252566245,2.4670121747433758
26.419999999999995,-0.68,-0.17299737407495824,2.467002625925042
26.439999999999994,-0.68,-0.17300692289329198,2.466993077106708
26.459999999999994,-0.68,-0.1730164717116257,2.4669835282883743
26.479999999999997,-0.68,-0.17302602052995944,2.466973979470041
26.499999999999996,-0.68,-0.17303556934829314,2.466964430651707
26.519999999999996,-0.68,-0.17304511816662688,2.4669548818333733
26.539999999999996,-0.68,-0.1730546669849606,2.4669453330150395
26.559999999999995,-0.68,-0.17306421580329434,2.4669357841967057
26.579999999999995,-0.68,-0.17307376462162807,2.4669262353783723
26.599999999999994,-0.68,-0.1730833134399618,2.4669166865600385
26.619999999999994,-0.68,-0.17309286225829554,2.4669071377417047
26.639999999999993,-0.68,-0.17310241107662927,2.466897588923371
26.659999999999997,-0.68,-0.173111959894963,2.466888040105037
26.679999999999996,-0.68,-0.17312150871329673,2.4668784912867037
26.699999999999996,-0.68,-0.17313105753163047,2.46686894246837
26.719999999999995,-0.68,-0.1731406063499642,2.466859393650036
26.739999999999995,-0.68,-0.17315015516829793,2.466849844831702
26.759999999999994,-0.68,-0.17315970398663166,2.4668402960133684
26.779999999999994,-0.68,-0.1731692528049654,2.4668307471950346
26.799999999999994,-0.68,-0.17317880162329913,2.466821198376701
26.819999999999997,-0.68,-0.17318835044163286,2.4668116495583674
26.839999999999996,-0.68,-0.1731978992599666,2.4668021007400336
26.859999999999996,-0.68,-0.17320744807830032,2.4667925519216998
26.879999999999995,-0.68,-0.17321699689663406,2.466783003103366
26.899999999999995,-0.68,-0.1732265457149678,2.4667734542850326
26.919999999999995,-0.68,-0.17323609453330152,2.4667639054666988
26.939999999999994,-0.68,-0.17324564335163525,2.466754356648365
26.959999999999994,-0.68,-0.17325519216996899,2.466744807830031
26.979999999999993,-0.68,-0.17326474098830272,2.4667352590116973
26.999999999999996,-0.68,-0.17327428980663645,2.466725710193364
27.019999999999996,-0.68,-0.17328383862497018,2.46671616137503
27.039999999999996,-0.68,-0.1732933874433039,2.4667066125566963
27.059999999999995,-0.68,-0.17330293626163762,2.4666970637383625
27.079999999999995,-0.68,-0.17331248507997135,2.4666875149200287
27.099999999999994,-0.68,-0.17332203389830508,2.4666779661016953
27.119999999999994,-0.68,-0.17333158271663882,2.4666684172833615
27.139999999999993,-0.68,-0.17334113153497255,2.4666588684650277
27.159999999999997,-0.68,-0.17335068035330628,2.466649319646694
27.179999999999996,-0.68,-0.17336022917164,2.46663977082836
27.199999999999996,-0.68,-0.17336977798997374,2.4666302220100262
27.219999999999995,-0.68,-0.17337932680830748,2.466620673191693
27.239999999999995,-0.68,-0.1733888756266412,2.466611124373359
27.259999999999994,-0.68,-0.17339842444497494,2.4666015755550252
27.279999999999994,-0.68,-0.17340797326330867,2.4665920267366914
27.299999999999994,-0.68,-0.1734175220816424,2.4665824779183576
27.319999999999997,-0.68,-0.17342707089997614,2.4665729291000242
27.339999999999996,-0.68,-0.17343661971830987,2.4665633802816904
27.359999999999996,-0.68,-0.1734461685366436,2.4665538314633566
27.379999999999995,-0.68,-0.17345571735497733,2.466544282645023
27.399999999999995,-0.68,-0.17346526617331107,2.466534733826689
27.419999999999995,-0.68,-0.1734748149916448,2.4665251850083556
27.439999999999994,-0.68,-0.17348436380997853,2.466515636190022
27.459999999999994,-0.68,-0.17349391262831226,2.466506087371688
27.479999999999993,-0.68,-0.173503461446646,2.466496538553354
27.499999999999996,-0.68,-0.17351301026497973,2.4664869897350203
27.519999999999996,-0.68,-0.17352255908331346,2.466477440916687
27.539999999999996,-0.68,-0.1735321079016472,2.466467892098353
27.559999999999995,-0.68,-0.1735416567199809,2.4664583432800193
27.579999999999995,-0.68,-0.17355120553831463,2.4664487944616855
27.599999999999994,-0.68,-0.17356075435664836,2.4664392456433517
27.619999999999994,-0.68,-0.1735703031749821,2.466429696825018
27.639999999999993,-0.68,-0.17357985199331583,2.4664201480066845
27.659999999999997,-0.68,-0.17358940081164956,2.4664105991883507
27.679999999999996,-0.68,-0.1735989496299833,2.466401050370017
27.699999999999996,-0.68,-0.17360849844831702,2.466391501551683
27.719999999999995,-0.68,-0.17361804726665075,2.4663819527333493
27.739999999999995,-0.68,-0.1736275960849845,2.466372403915016
27.759999999999994,-0.68,-0.17363714490331822,2.466362855096682
27.779999999999994,-0.68,-0.17364669372165195,2.4663533062783483
27.799999999999994,-0.68,-0.17365624253998568,2.4663437574600144
27.819999999999993,-0.68,-0.17366579135831942,2.4663342086416806
27.839999999999996,-0.68,-0.17367534017665315,2.4663246598233473
27.859999999999996,-0.68,-0.17368488899498688,2.4663151110050134
27.879999999999995,-0.68,-0.1736944378133206,2.4663055621866796
27.899999999999995,-0.68,-0.17370398663165434,2.466296013368346
27.919999999999995,-0.68,-0.17371353544998808,2.466286464550012
27.939999999999994,-0.68,-0.1737230842683218,2.4662769157316786
27.959999999999994,-0.68,-0.17373263308665554,2.466267366913345
27.979999999999993,-0.68,-0.17374218190498927,2.466257818095011
27.999999999999996,-0.68,-0.173751730723323,2.466248269276677
28.019999999999996,-0.68,-0.17376127954165674,2.4662387204583434
28.039999999999996,-0.68,-0.17377082835999047,2.4662291716400095
28.059999999999995,-0.68,-0.1737803771783242,2.466219622821676
28.079999999999995,-0.68,-0.17378992599665793,2.4662100740033424
28.099999999999994,-0.68,-0.17379947481499164,2.4662005251850085
28.119999999999994,-0.68,-0.17380902363332537,2.4661909763666747
28.139999999999993,-0.68,-0.1738185724516591,2.466181427548341
28.159999999999997,-0.68,-0.17382812126999284,2.4661718787300075
28.179999999999996,-0.68,-0.17383767008832657,2.4661623299116737
28.199999999999996,-0.68,-0.1738472189066603,2.46615278109334
28.219999999999995,-0.68,-0.17385676772499403,2.466143232275006
28.239999999999995,-0.68,-0.17386631654332776,2.4661336834566723
28.259999999999994,-0.68,-0.1738758653616615,2.466124134638339
28.279999999999994,-0.68,-0.17388541417999523,2.466114585820005
28.299999999999994,-0.68,-0.17389496299832896,2.4661050370016713
28.319999999999993,-0.68,-0.1739045118166627,2.4660954881833375
28.339999999999996,-0.68,-0.17391406063499643,2.4660859393650036
28.359999999999996,-0.68,-0.17392360945333016,2.46607639054667
28.379999999999995,-0.68,-0.1739331582716639,2.4660668417283365
28.399999999999995,-0.68,-0.17394270708999762,2.4660572929100026
28.419999999999995,-0.68,-0.17395225590833135,2.466047744091669
28.439999999999994,-0.68,-0.1739618047266651,2.466038195273335
28.459999999999994,-0.68,-0.17397135354499882,2.466028646455001
28.479999999999993,-0.68,-0.17398090236333255,2.466019097636668
28.499999999999996,-0.68,-0.17399045118166628,2.466009548818334
28.519999999999996,-0.68,-0.17400000000000002,2.466
28.539999999999996,-0.68,-0.17400954881833375,2.4659904511816664
28.559999999999995,-0.68,-0.17401909763666748,2.4659809023633326
28.579999999999995,-0.68,-0.1740286464550012,2.465971353544999
28.599999999999994,-0.68,-0.17403819527333494,2.4659618047266654
28.619999999999994,-0.68,-0.17404774409166868,2.4659522559083316
28.639999999999993,-0.68,-0.17405729291000238,2.4659427070899977
28.659999999999993,-0.68,-0.1740668417283361,2.465933158271664
28.679999999999996,-0.68,-0.17407639054666985,2.4659236094533306
28.699999999999996,-0.68,-0.17408593936500358,2.4659140606349967
28.719999999999995,-0.68,-0.1740954881833373,2.465904511816663
28.739999999999995,-0.68,-0.17410503700167104,2.465894962998329
28.759999999999994,-0.68,-0.17411458582000477,2.4658854141799953
28.779999999999994,-0.68,-0.1741241346383385,2.4658758653616615
28.799999999999994,-0.68,-0.17413368345667224,2.465866316543328
28.819999999999993,-0.68,-0.17414323227500597,2.4658567677249943
28.839999999999996,-0.68,-0.1741527810933397,2.4658472189066605
28.859999999999996,-0.68,-0.17416232991167344,2.4658376700883267
28.879999999999995,-0.68,-0.17417187873000717,2.465828121269993
28.899999999999995,-0.68,-0.1741814275483409,2.4658185724516595
28.919999999999995,-0.68,-0.17419097636667463,2.4658090236333257
28.939999999999994,-0.68,-0.17420052518500836,2.465799474814992
28.959999999999994,-0.68,-0.1742100740033421,2.465789925996658
28.979999999999993,-0.68,-0.17421962282167583,2.465780377178324
28.999999999999996,-0.68,-0.17422917164000956,2.465770828359991
29.019999999999996,-0.68,-0.1742387204583433,2.465761279541657
29.039999999999996,-0.68,-0.17424826927667703,2.465751730723323
29.059999999999995,-0.68,-0.17425781809501076,2.4657421819049894
29.079999999999995,-0.68,-0.1742673669133445,2.4657326330866556
29.099999999999994,-0.68,-0.17427691573167822,2.465723084268322
29.119999999999994,-0.68,-0.17428646455001195,2.4657135354499884
29.139999999999993,-0.68,-0.1742960133683457,2.4657039866316546
29.159999999999993,-0.68,-0.17430556218667942,2.4656944378133208
29.179999999999996,-0.68,-0.17431511100501315,2.465684888994987
29.199999999999996,-0.68,-0.17432465982334686,2.465675340176653
29.219999999999995,-0.68,-0.1743342086416806,2.4656657913583198
29.239999999999995,-0.68,-0.17434375746001432,2.465656242539986
29.259999999999994,-0.68,-0.17435330627834805,2.465646693721652
29.279999999999994,-0.68,-0.17436285509668178,2.4656371449033183
29.299999999999994,-0.68,-0.17437240391501552,2.4656275960849845
29.319999999999993,-0.68,-0.17438195273334925,2.465618047266651
29.339999999999996,-0.68,-0.17439150155168298,2.4656084984483173
29.359999999999996,-0.68,-0.1744010503700167,2.4655989496299835
29.379999999999995,-0.68,-0.17441059918835045,2.4655894008116497
29.399999999999995,-0.68,-0.17442014800668418,2.465579851993316
29.419999999999995,-0.68,-0.1744296968250179,2.4655703031749825
29.439999999999994,-0.68,-0.17443924564335164,2.4655607543566487
29.459999999999994,-0.68,-0.17444879446168537,2.465551205538315
29.479999999999993,-0.68,-0.1744583432800191,2.465541656719981
29.499999999999993,-0.68,-0.17446789209835284,2.4655321079016472
29.519999999999996,-0.68,-0.17447744091668657,2.4655225590833134
29.539999999999996,-0.68,-0.1744869897350203,2.46551301026498
29.559999999999995,-0.68,-0.17449653855335404,2.4655034614466462
29.579999999999995,-0.68,-0.17450608737168777,2.4654939126283124
29.599999999999994,-0.68,-0.1745156361900215,2.4654843638099786
29.619999999999994,-0.68,-0.17452518500835523,2.465474814991645
29.639999999999993,-0.68,-0.17453473382668896,2.4654652661733114
29.659999999999993,-0.68,-0.1745442826450227,2.4654557173549776
29.679999999999996,-0.68,-0.17455383146335643,2.465446168536644
29.699999999999996,-0.68,-0.17456338028169016,2.46543661971831
29.719999999999995,-0.68,-0.17457292910002387,2.465427070899976
29.739999999999995,-0.68,-0.1745824779183576,2.4654175220816428
29.759999999999994,-0.68,-0.17459202673669133,2.465407973263309
29.779999999999994,-0.68,-0.17460157555502506,2.465398424444975
29.799999999999994,-0.68,-0.1746111243733588,2.4653888756266413
29.819999999999993,-0.68,-0.17462067319169253,2.4653793268083075
29.839999999999996,-0.68,-0.17463022201002626,2.465369777989974
29.859999999999996,-0.68,-0.17463977082836,2.4653602291716403
29.879999999999995,-0.68,-0.17464931964669372,2.4653506803533065
29.899999999999995,-0.68,-0.17465886846502746,2.4653411315349727
29.919999999999995,-0.68,-0.1746684172833612,2.465331582716639
29.939999999999994,-0.68,-0.17467796610169492,2.465322033898305
29.959999999999994,-0.68,-0.17468751492002865,2.4653124850799717
29.979999999999993,-0.68,-0.17469706373836238,2.465302936261638
29.999999999999993,-0.68,-0.17470661255669612,2.465293387443304
30.019999999999996,-0.68,-0.17471616137502985,2.4652838386249702
30.039999999999996,-0.68,-0.17472571019336358,2.4652742898066364
30.059999999999995,-0.68,-0.1747352590116973,2.465264740988303
30.079999999999995,-0.68,-0.17474480783003105,2.4652551921699692
30.099999999999994,-0.68,-0.17475435664836478,2.4652456433516354
30.119999999999994,-0.68,-0.1747639054666985,2.4652360945333016
30.139999999999993,-0.68,-0.17477345428503224,2.465226545714968
30.159999999999993,-0.68,-0.17478300310336597,2.4652169968966344
30.179999999999996,-0.68,-0.1747925519216997,2.4652074480783006
30.199999999999996,-0.68,-0.17480210074003344,2.465197899259967
30.219999999999995,-0.68,-0.17481164955836717,2.465188350441633
30.239999999999995,-0.68,-0.1748211983767009,2.465178801623299
30.259999999999994,-0.68,-0.1748307471950346,2.465169252804966
30.279999999999994,-0.68,-0.17484029601336834,2.465159703986632
30.299999999999994,-0.68,-0.17484984483170207,2.465150155168298
30.319999999999993,-0.68,-0.1748593936500358,2.4651406063499643
30.339999999999993,-0.68,-0.17486894246836954,2.4651310575316305
30.359999999999996,-0.68,-0.17487849128670327,2.4651215087132967
30.379999999999995,-0.68,-0.174888040105037,2.4651119598949633
30.399999999999995,-0.68,-0.17489758892337073,2.4651024110766295
30.419999999999995,-0.68,-0.17490713774170447,2.4650928622582957
30.439999999999994,-0.68,-0.1749166865600382,2.465083313439962
30.459999999999994,-0.68,-0.17492623537837193,2.465073764621628
30.479999999999993,-0.68,-0.17493578419670566,2.4650642158032947
30.499999999999993,-0.68,-0.1749453330150394,2.465054666984961
30.519999999999996,-0.68,-0.17495488183337313,2.465045118166627
30.539999999999996,-0.68,-0.17496443065170686,2.4650355693482933
30.559999999999995,-0.68,-0.1749739794700406,2.4650260205299594
30.579999999999995,-0.68,-0.17498352828837432,2.465016471711626
30.599999999999994,-0.68,-0.17499307710670806,2.4650069228932923
30.619999999999994,-0.68,-0.1750026259250418,2.4649973740749584
30.639999999999993,-0.68,-0.17501217474337552,2.4649878252566246
30.659999999999993,-0.68,-0.17502172356170925,2.464978276438291
30.679999999999996,-0.68,-0.17503127238004298,2.464968727619957
30.699999999999996,-0.68,-0.17504082119837672,2.4649591788016236
30.719999999999995,-0.68,-0.17505037001671045,2.46494962998329
30.739999999999995,-0.68,-0.17505991883504418,2.464940081164956
30.759999999999994,-0.68,-0.1750694676533779,2.464930532346622
30.779999999999994,-0.68,-0.17507901647171165,2.4649209835282884
30.799999999999994,-0.68,-0.17508856529004535,2.464911434709955
30.819999999999993,-0.68,-0.17509811410837908,2.464901885891621
30.839999999999993,-0.68,-0.17510766292671281,2.4648923370732874
30.859999999999996,-0.68,-0.17511721174504655,2.4648827882549535
30.879999999999995,-0.68,-0.17512676056338028,2.4648732394366197
30.899999999999995,-0.68,-0.175136309381714,2.4648636906182864
30.919999999999995,-0.68,-0.17514585820004774,2.4648541417999525
30.939999999999994,-0.68,-0.17515540701838148,2.4648445929816187
30.959999999999994,-0.68,-0.1751649558367152,2.464835044163285
30.979999999999993,-0.68,-0.17517450465504894,2.464825495344951
30.999999999999993,-0.68,-0.17518405347338267,2.4648159465266177
31.019999999999996,-0.68,-0.1751936022917164,2.464806397708284
31.039999999999996,-0.68,-0.17520315111005014,2.46479684888995
31.059999999999995,-0.68,-0.17521269992838387,2.4647873000716163
31.079999999999995,-0.68,-0.1752222487467176,2.4647777512532825
31.099999999999994,-0.68,-0.17523179756505133,2.4647682024349487
31.119999999999994,-0.68,-0.17524134638338507,2.4647586536166153
31.139999999999993,-0.68,-0.1752508952017188,2.4647491047982815
31.159999999999993,-0.68,-0.17526044402005253,2.4647395559799476
31.179999999999996,-0.68,-0.17526999283838626,2.464730007161614
31.199999999999996,-0.68,-0.17527954165672,2.46472045834328
31.219999999999995,-0.68,-0.17528909047505373,2.4647109095249466
31.239999999999995,-0.68,-0.17529863929338746,2.464701360706613
31.259999999999994,-0.68,-0.1753081881117212,2.464691811888279
31.279999999999994,-0.68,-0.17531773693005492,2.464682263069945
31.299999999999994,-0.68,-0.17532728574838866,2.4646727142516114
31.319999999999993,-0.68,-0.1753368345667224,2.464663165433278
31.339999999999993,-0.68,-0.1753463833850561,2.464653616614944
31.359999999999996,-0.68,-0.17535593220338985,2.4646440677966104
31.379999999999995,-0.68,-0.17536548102172356,2.4646345189782766
31.399999999999995,-0.68,-0.1753750298400573,2.4646249701599428
31.419999999999995,-0.68,-0.17538457865839102,2.4646154213416094
31.439999999999994,-0.68,-0.17539412747672475,2.4646058725232756
31.459999999999994,-0.68,-0.17540367629505849,2.4645963237049417
31.479999999999993,-0.68,-0.17541322511339222,2.464586774886608
31.499999999999993,-0.68,-0.17542277393172595,2.464577226068274
31.519999999999996,-0.68,-0.17543232275005968,2.4645676772499403
31.539999999999996,-0.68,-0.17544187156839341,2.464558128431607
31.559999999999995,-0.68,-0.17545142038672715,2.464548579613273
31.579999999999995,-0.68,-0.17546096920506088,2.4645390307949393
31.599999999999994,-0.68,-0.1754705180233946,2.4645294819766055
31.619999999999994,-0.68,-0.17548006684172834,2.4645199331582717
31.639999999999993,-0.68,-0.17548961566006208,2.4645103843399383
31.659999999999993,-0.68,-0.1754991644783958,2.4645008355216045
31.679999999999993,-0.68,-0.17550871329672954,2.4644912867032707
31.699999999999996,-0.68,-0.17551826211506327,2.464481737884937
31.719999999999995,-0.68,-0.175527810933397,2.464472189066603
31.739999999999995,-0.68,-0.17553735975173074,2.4644626402482697
31.759999999999994,-0.68,-0.17554690857006447,2.464453091429936
31.779999999999994,-0.68,-0.1755564573883982,2.464443542611602
31.799999999999994,-0.68,-0.17556600620673193,2.464433993793268
31.819999999999993,-0.68,-0.17557555502506567,2.4644244449749344
31.839999999999993,-0.68,-0.1755851038433994,2.464414896156601
31.859999999999996,-0.68,-0.17559465266173313,2.464405347338267
31.879999999999995,-0.68,-0.17560420148006686,2.4643957985199334
31.899999999999995,-0.68,-0.17561375029840057,2.4643862497015996
31.919999999999995,-0.68,-0.1756232991167343,2.4643767008832658
31.939999999999994,-0.68,-0.17563284793506803,2.464367152064932
31.959999999999994,-0.68,-0.17564239675340176,2.4643576032465986
31.979999999999993,-0.68,-0.1756519455717355,2.4643480544282648
31.999999999999993,-0.68,-0.17566149439006923,2.464338505609931
32.019999999999996,-0.68,-0.17567104320840296,2.464328956791597
32.04,-0.68,-0.1756805920267367,2.4643194079732633
32.059999999999995,-0.68,-0.17569014084507042,2.46430985915493
32.07999999999999,-0.68,-0.17569968966340416,2.464300310336596
32.099999999999994,-0.68,-0.1757092384817379,2.4642907615182623
32.12,-0.68,-0.17571878730007162,2.4642812126999285
32.13999999999999,-0.68,-0.17572833611840535,2.4642716638815947
32.16,-0.68,-0.17573788493673909,2.4642621150632613
32.17999999999999,-0.68,-0.17574743375507282,2.4642525662449275
32.199999999999996,-0.68,-0.17575698257340655,2.4642430174265937
32.21999999999999,-0.68,-0.17576653139174028,2.46423346860826
32.239999999999995,-0.68,-0.17577608021007401,2.464223919789926
32.25999999999999,-0.68,-0.17578562902840775,2.4642143709715922
32.279999999999994,-0.68,-0.17579517784674148,2.464204822153259
32.3,-0.68,-0.1758047266650752,2.464195273334925
32.31999999999999,-0.68,-0.17581427548340894,2.4641857245165912
32.339999999999996,-0.68,-0.17582382430174268,2.4641761756982574
32.35999999999999,-0.68,-0.1758333731200764,2.4641666268799236
32.379999999999995,-0.68,-0.17584292193841014,2.4641570780615902
32.39999999999999,-0.68,-0.17585247075674387,2.4641475292432564
32.419999999999995,-0.68,-0.17586201957507758,2.4641379804249226
32.44,-0.68,-0.17587156839341134,2.464128431606589
32.459999999999994,-0.68,-0.17588111721174504,2.464118882788255
32.48,-0.68,-0.17589066603007877,2.4641093339699216
32.49999999999999,-0.68,-0.1759002148484125,2.464099785151588
32.519999999999996,-0.68,-0.17590976366674624,2.464090236333254
32.53999999999999,-0.68,-0.17591931248507997,2.46408068751492
32.559999999999995,-0.68,-0.1759288613034137,2.4640711386965863
32.57999999999999,-0.68,-0.17593841012174743,2.464061589878253
32.599999999999994,-0.68,-0.17594795894008117,2.464052041059919
32.62,-0.68,-0.1759575077584149,2.4640424922415853
32.63999999999999,-0.68,-0.17596705657674863,2.4640329434232515
32.66,-0.68,-0.17597660539508236,2.4640233946049177
32.67999999999999,-0.68,-0.1759861542134161,2.464013845786584
32.699999999999996,-0.68,-0.17599570303174983,2.4640042969682505
32.71999999999999,-0.68,-0.17600525185008356,2.4639947481499167
32.739999999999995,-0.68,-0.1760148006684173,2.463985199331583
32.75999999999999,-0.68,-0.17602434948675102,2.463975650513249
32.779999999999994,-0.68,-0.17603389830508476,2.4639661016949153
32.8,-0.68,-0.1760434471234185,2.463956552876582
32.81999999999999,-0.68,-0.17605299594175222,2.463947004058248
32.839999999999996,-0.68,-0.17606254476008595,2.4639374552399143
32.85999999999999,-0.68,-0.17607209357841969,2.4639279064215804
32.879999999999995,-0.68,-0.17608164239675342,2.4639183576032466
32.89999999999999,-0.68,-0.17609119121508715,2.4639088087849133
32.919999999999995,-0.68,-0.17610074003342088,2.4638992599665794
32.93999999999999,-0.68,-0.1761102888517546,2.4638897111482456
32.959999999999994,-0.68,-0.17611983767008832,2.463880162329912
32.98,-0.68,-0.17612938648842208,2.463870613511578
32.99999999999999,-0.68,-0.17613893530675578,2.4638610646932446
33.019999999999996,-0.68,-0.17614848412508952,2.463851515874911
33.03999999999999,-0.68,-0.17615803294342325,2.463841967056577
33.059999999999995,-0.68,-0.17616758176175698,2.463832418238243
33.07999999999999,-0.68,-0.1761771305800907,2.4638228694199094
33.099999999999994,-0.68,-0.17618667939842445,2.4638133206015755
33.12,-0.68,-0.17619622821675818,2.463803771783242
33.13999999999999,-0.68,-0.1762057770350919,2.4637942229649084
33.16,-0.68,-0.17621532585342564,2.4637846741465745
33.17999999999999,-0.68,-0.17622487467175937,2.4637751253282407
33.199999999999996,-0.68,-0.1762344234900931,2.463765576509907
33.21999999999999,-0.68,-0.17624397230842684,2.4637560276915735
33.239999999999995,-0.68,-0.17625352112676057,2.4637464788732397
33.25999999999999,-0.68,-0.1762630699450943,2.463736930054906
33.279999999999994,-0.68,-0.17627261876342804,2.463727381236572
33.3,-0.68,-0.17628216758176177,2.4637178324182383
33.31999999999999,-0.68,-0.1762917164000955,2.463708283599905
33.339999999999996,-0.68,-0.17630126521842923,2.463698734781571
33.35999999999999,-0.68,-0.17631081403676296,2.4636891859632373
33.379999999999995,-0.68,-0.1763203628550967,2.4636796371449035
33.39999999999999,-0.68,-0.17632991167343043,2.4636700883265696
33.419999999999995,-0.68,-0.17633946049176416,2.4636605395082363
33.43999999999999,-0.68,-0.1763490093100979,2.4636509906899025
33.459999999999994,-0.68,-0.17635855812843163,2.4636414418715686
33.48,-0.68,-0.17636810694676536,2.463631893053235
33.49999999999999,-0.68,-0.17637765576509906,2.463622344234901
33.519999999999996,-0.68,-0.17638720458343282,2.463612795416567
33.53999999999999,-0.68,-0.17639675340176653,2.463603246598234
33.559999999999995,-0.68,-0.17640630222010026,2.4635936977799
33.57999999999999,-0.68,-0.176415851038434,2.463584148961566
33.599999999999994,-0.68,-0.17642539985676772,2.4635746001432324
33.62,-0.68,-0.17643494867510146,2.4635650513248986
33.63999999999999,-0.68,-0.1764444974934352,2.463555502506565
33.66,-0.68,-0.17645404631176892,2.4635459536882314
33.67999999999999,-0.68,-0.17646359513010265,2.4635364048698976
33.699999999999996,-0.68,-0.17647314394843638,2.4635268560515637
33.71999999999999,-0.68,-0.17648269276677012,2.46351730723323
33.739999999999995,-0.68,-0.17649224158510385,2.4635077584148966
33.75999999999999,-0.68,-0.17650179040343758,2.4634982095965627
33.779999999999994,-0.68,-0.1765113392217713,2.463488660778229
33.8,-0.68,-0.17652088804010505,2.463479111959895
33.81999999999999,-0.68,-0.17653043685843878,2.4634695631415613
33.839999999999996,-0.68,-0.1765399856767725,2.4634600143232275
33.85999999999999,-0.68,-0.17654953449510624,2.463450465504894
33.879999999999995,-0.68,-0.17655908331343997,2.4634409166865603
33.89999999999999,-0.68,-0.1765686321317737,2.4634313678682265
33.919999999999995,-0.68,-0.17657818095010744,2.4634218190498927
33.93999999999999,-0.68,-0.17658772976844117,2.463412270231559
33.959999999999994,-0.68,-0.1765972785867749,2.4634027214132255
33.98,-0.68,-0.17660682740510864,2.4633931725948917
33.99999999999999,-0.68,-0.17661637622344237,2.463383623776558
34.019999999999996,-0.68,-0.1766259250417761,2.463374074958224
34.03999999999999,-0.68,-0.1766354738601098,2.46336452613989
34.059999999999995,-0.68,-0.17664502267844354,2.463354977321557
34.07999999999999,-0.68,-0.17665457149677727,2.463345428503223
34.099999999999994,-0.68,-0.176664120315111,2.463335879684889
34.12,-0.68,-0.17667366913344473,2.4633263308665554
34.13999999999999,-0.68,-0.17668321795177847,2.4633167820482216
34.16,-0.68,-0.1766927667701122,2.463307233229888
34.17999999999999,-0.68,-0.17670231558844593,2.4632976844115544
34.199999999999996,-0.68,-0.17671186440677966,2.4632881355932206
34.21999999999999,-0.68,-0.1767214132251134,2.4632785867748868
34.239999999999995,-0.68,-0.17673096204344713,2.463269037956553
34.25999999999999,-0.68,-0.17674051086178086,2.463259489138219
34.279999999999994,-0.68,-0.1767500596801146,2.4632499403198858
34.3,-0.68,-0.17675960849844832,2.463240391501552
34.31999999999999,-0.68,-0.17676915731678206,2.463230842683218
34.339999999999996,-0.68,-0.1767787061351158,2.4632212938648843
34.35999999999999,-0.68,-0.17678825495344952,2.4632117450465505
34.379999999999995,-0.68,-0.17679780377178325,2.463202196228217
34.39999999999999,-0.68,-0.17680735259011698,2.4631926474098833
34.419999999999995,-0.68,-0.17681690140845072,2.4631830985915495
34.43999999999999,-0.68,-0.17682645022678445,2.4631735497732157
34.459999999999994,-0.68,-0.17683599904511818,2.463164000954882
34.48,-0.68,-0.1768455478634519,2.4631544521365485
34.49999999999999,-0.68,-0.17685509668178565,2.4631449033182147
34.519999999999996,-0.68,-0.17686464550011938,2.463135354499881
34.53999999999999,-0.68,-0.1768741943184531,2.463125805681547
34.559999999999995,-0.68,-0.17688374313678684,2.4631162568632132
34.57999999999999,-0.68,-0.17689329195512055,2.46310670804488
34.599999999999994,-0.68,-0.17690284077345428,2.463097159226546
34.61999999999999,-0.68,-0.176912389591788,2.4630876104082122
34.63999999999999,-0.68,-0.17692193841012174,2.4630780615898784
34.66,-0.68,-0.17693148722845548,2.4630685127715446
34.67999999999999,-0.68,-0.1769410360467892,2.463058963953211
34.699999999999996,-0.68,-0.17695058486512294,2.4630494151348774
34.71999999999999,-0.68,-0.17696013368345667,2.4630398663165436
34.739999999999995,-0.68,-0.1769696825017904,2.4630303174982098
34.75999999999999,-0.68,-0.17697923132012414,2.463020768679876
34.779999999999994,-0.68,-0.17698878013845787,2.463011219861542
34.8,-0.68,-0.1769983289567916,2.4630016710432088
34.81999999999999,-0.68,-0.17700787777512533,2.462992122224875
34.839999999999996,-0.68,-0.17701742659345907,2.462982573406541
34.85999999999999,-0.68,-0.1770269754117928,2.4629730245882073
34.879999999999995,-0.68,-0.17703652423012653,2.4629634757698735
34.89999999999999,-0.68,-0.17704607304846026,2.46295392695154
34.919999999999995,-0.68,-0.177055621866794,2.4629443781332063
34.93999999999999,-0.68,-0.17706517068512773,2.4629348293148725
34.959999999999994,-0.68,-0.17707471950346146,2.4629252804965387
34.98,-0.68,-0.1770842683217952,2.462915731678205
34.99999999999999,-0.68,-0.17709381714012892,2.462906182859871
35.019999999999996,-0.68,-0.17710336595846266,2.4628966340415377
35.03999999999999,-0.68,-0.1771129147767964,2.462887085223204
35.059999999999995,-0.68,-0.17712246359513012,2.46287753640487
35.07999999999999,-0.68,-0.17713201241346385,2.4628679875865362
35.099999999999994,-0.68,-0.17714156123179758,2.4628584387682024
35.11999999999999,-0.68,-0.1771511100501313,2.462848889949869
35.13999999999999,-0.68,-0.17716065886846502,2.4628393411315352
35.16,-0.68,-0.17717020768679875,2.4628297923132014
35.17999999999999,-0.68,-0.17717975650513249,2.4628202434948676
35.199999999999996,-0.68,-0.17718930532346622,2.462810694676534
35.21999999999999,-0.68,-0.17719885414179995,2.4628011458582004
35.239999999999995,-0.68,-0.17720840296013368,2.4627915970398666
35.25999999999999,-0.68,-0.17721795177846741,2.462782048221533
35.279999999999994,-0.68,-0.17722750059680115,2.462772499403199
35.3,-0.68,-0.17723704941513488,2.462762950584865
35.31999999999999,-0.68,-0.1772465982334686,2.462753401766532
35.339999999999996,-0.68,-0.17725614705180234,2.462743852948198
35.35999999999999,-0.68,-0.17726569587013608,2.462734304129864
35.379999999999995,-0.68,-0.1772752446884698,2.4627247553115303
35.39999999999999,-0.68,-0.17728479350680354,2.4627152064931965
35.419999999999995,-0.68,-0.17729434232513727,2.4627056576748627
35.43999999999999,-0.68,-0.177303891143471,2.4626961088565293
35.459999999999994,-0.68,-0.17731343996180474,2.4626865600381955
35.48,-0.68,-0.17732298878013847,2.4626770112198617
35.49999999999999,-0.68,-0.1773325375984722,2.462667462401528
35.519999999999996,-0.68,-0.17734208641680593,2.462657913583194
35.53999999999999,-0.68,-0.17735163523513967,2.4626483647648607
35.559999999999995,-0.68,-0.1773611840534734,2.462638815946527
35.57999999999999,-0.68,-0.17737073287180713,2.462629267128193
35.599999999999994,-0.68,-0.17738028169014086,2.4626197183098593
