timestamp,acc_x,acc_y,acc_z,gyro_x,gyro_y,gyro_z
0.449,-0.43,-0.32,0.32,-0.95,0.87,-0.54
0.46900000000000003,-0.2399999999999975,-1.5700000000000052,-0.12999999999999956,-0.8394117647058823,0.831764705882353,-0.5029411764705882
0.48900000000000005,0.7500000000000007,-2.919999999999998,-0.35000000000000114,-0.7749999999999999,0.8700000000000003,-0.4099999999999994
0.5090000000000001,0.5699999999999943,-2.18999999999999,-0.7099999999999997,-0.7029411764705877,0.8670588235294112,-0.26882352941176424
0.5290000000000001,-0.17000000000000023,-0.5099999999999937,-0.5400000000000001,-0.5887499999999992,0.7649999999999995,-0.23187499999999994
0.5490000000000002,-0.32000000000000745,0.6100000000000081,-0.720000000000009,-0.47999999999999965,0.7099999999999995,-0.20999999999999974
0.5690000000000002,-0.9499999999999873,1.0199999999999907,-1.5600000000000065,-0.4264705882352938,0.6382352941176469,-0.16470588235294079
0.5890000000000002,-0.2700000000000007,0.6499999999999978,-2.6500000000000177,-0.41,0.63,-0.14
0.6090000000000002,-0.14999999999998223,0.6100000000000049,-3.6500000000000052,-0.3982352941176468,0.63,-0.1341176470588234
0.6290000000000002,1.459999999999996,0.7499999999999973,-3.889999999999994,-0.3747058823529409,0.6376470588235296,-0.09941176470588182
0.6490000000000002,0.4199999999999858,0.7700000000000007,-3.860000000000011,-0.3499999999999997,0.7500000000000014,-0.10000000000000013
0.6690000000000003,-0.32000000000000733,0.4699999999999991,-4.720000000000002,-0.3206249999999993,0.8693750000000007,-0.10812499999999986
0.6890000000000003,-1.0600000000000156,0.35999999999999766,-4.820000000000003,-0.23058823529411576,0.8729411764705868,-0.0711764705882342
0.7090000000000003,-2.1500000000000203,0.30000000000000365,-4.760000000000012,-0.1482352941176467,0.7611764705882333,0.005294117647059997
0.7290000000000003,-3.300000000000007,0.25999999999999335,-4.969999999999974,-0.07882352941176314,0.7505882352941184,0.08352941176470727
0.7490000000000003,-4.050000000000006,0.089999999999996,-4.11,0.02000000000000098,0.8300000000000013,0.19000000000000197
0.7690000000000003,-4.430000000000019,-0.080000000000001,-3.6999999999999846,0.08058823529411883,0.8982352941176469,0.3058823529411782
0.7890000000000004,-5.499999999999996,-0.029999999999987675,-2.829999999999992,0.0362499999999948,0.6162499999999849,0.40625000000000144
0.8090000000000004,-5.17,0.610000000000006,-2.5099999999999993,-0.07294117647058637,-0.6105882352941483,0.48529411764706026
0.8290000000000004,-5.31,0.9800000000000177,-2.239999999999981,0.06705882352941545,-0.3011764705882063,0.4794117647058813
0.8490000000000004,-4.979999999999996,1.8300000000000036,-1.4599999999999929,0.18999999999999845,0.7600000000000044,0.39999999999999925
0.8690000000000004,-4.990000000000006,1.930000000000015,-1.2200000000000089,0.10705882352940838,0.9105882352941148,0.3770588235294128
0.8890000000000005,-5.169999999999992,2.239999999999978,-1.2999999999999667,-0.05625000000000416,0.7637499999999958,0.4062499999999997
0.9090000000000005,-5.270000000000028,1.2999999999999858,-0.16999999999996226,-0.20294117647059057,0.5876470588235257,0.35294117647058615
0.9290000000000005,-6.617272727272735,0.07818181818180828,1.3981818181818493,-0.2935294117647077,0.40764705882352525,0.2588235294117626
0.9490000000000005,-6.960000000000004,-0.2300000000000438,2.60000000000003,-0.2799999999999981,0.31000000000000033,0.18999999999999773
0.9690000000000005,-6.829999999999985,-1.7200000000000413,3.3400000000000056,-0.18823529411764117,0.3252941176470598,0.10411764705882058
0.9890000000000005,-6.630000000000017,-3.28400000000003,3.483999999999997,-0.030909090909090067,0.3354545454545441,0.03363636363636397
1.0090000000000006,-6.804999999999964,-4.430000000000056,3.4079999999999933,-0.0006060606060597634,0.28696969696969565,0.045757575757576094
1.0290000000000006,-5.405999999999964,-5.853000000000013,3.5510000000000224,0.08647058823529788,0.08647058823528508,0.04235294117647021
1.0490000000000006,-4.560000000000041,-6.189999999999989,4.2500000000000275,0.17000000000000118,-0.00999999999999902,0.06000000000000274
1.0690000000000006,-5.449999999999989,-5.9730000000000185,5.519000000000027,0.20529411764706001,0.019411764705883336,0.14235294117647335
1.0890000000000006,-4.715999999999965,-6.947000000000037,6.129999999999995,0.21499999999999833,0.08500000000000499,0.21875000000000208
1.1090000000000007,-3.6039999999999854,-8.109000000000034,5.73,0.13705882352940857,0.23058823529412192,0.24411764705882316
1.1290000000000007,-2.8169999999999353,-9.180000000000007,5.836000000000005,0.03117647058823189,0.36411764705882765,0.22470588235294042
1.1490000000000007,-2.0100000000000233,-9.428999999999998,6.1719999999999935,-0.08000000000000314,0.5100000000000016,0.23000000000000156
1.1690000000000007,-2.535999999999989,-9.278000000000013,6.3640000000000185,-0.16529411764706017,0.5517647058823534,0.2752941176470602
1.1890000000000007,-2.15,-9.658000000000007,6.621999999999986,-0.19375000000000042,0.5524999999999992,0.30750000000000083
1.2090000000000007,-2.156999999999998,-9.81,6.486999999999997,-0.1882352941176462,0.5458823529411769,0.3317647058823538
1.2290000000000008,-2.1200000000000077,-9.546999999999974,6.539000000000007,-0.12647058823529125,0.5194117647058808,0.34
1.2490000000000008,-2.4350000000000116,-8.898999999999983,6.569999999999984,-0.019999999999994907,0.4599999999999977,0.28999999999999765
1.2690000000000008,-2.732000000000025,-8.34999999999997,6.094999999999981,0.1362500000000068,0.3793749999999947,0.22437499999999855
1.2890000000000008,-3.5090000000000305,-7.417999999999952,5.5599999999999765,0.30352941176471215,0.24470588235293583,0.20411764705882401
1.3090000000000008,-4.366000000000043,-6.296999999999967,4.890999999999963,0.4329411764705926,0.18588235294117694,0.22176470588235392
1.3290000000000008,-5.771000000000063,-5.0059999999999345,3.8559999999999657,0.49294117647058977,0.3200000000000086,0.23
1.3490000000000009,-7.007000000000013,-3.393999999999941,3.052999999999979,0.4499999999999979,0.5900000000000067,0.23999999999999946
1.3690000000000009,-7.18,-1.8759999999999488,2.345999999999965,0.40647058823529314,0.7164705882352932,0.23352941176470682
1.389000000000001,-7.095999999999996,-0.7749999999999451,1.270999999999941,0.3862499999999994,0.6849999999999977,0.24249999999999888
1.409000000000001,-6.984999999999945,0.401000000000061,0.18399999999997402,0.3564705882352919,0.7070588235294163,0.21823529411764594
1.429000000000001,-5.485999999999926,1.289000000000019,-0.199000000000009,0.2176470588235208,0.8317647058823594,0.1947058823529401
1.449000000000001,-4.407999999999968,2.059000000000059,-0.384000000000014,0.05999999999999686,1.1000000000000159,0.13999999999999582
1.469000000000001,-3.900999999999991,3.045000000000055,-0.463000000000013,-0.010588235294121104,1.4229411764705957,0.049411764705878894
1.489000000000001,-3.89000000000002,4.254000000000113,-0.918000000000018,-0.06750000000000111,1.563750000000005,-0.003750000000000555
1.509000000000001,-3.77999999999993,6.617000000000107,-1.571000000000061,-0.10352941176470812,1.6964705882353015,-0.03941176470588515
1.529000000000001,-1.8588888888887056,8.59444444444454,-3.1577777777778864,-0.18882352941177044,1.910588235294131,-0.1364705882353005
1.549000000000001,1.6300000000001618,9.908888888888868,-4.44000000000002,-0.32000000000002615,2.170000000000011,-0.24000000000001437
1.569000000000001,3.9044444444445197,9.497777777777786,-4.66999999999998,-0.745454545454554,2.3509090909090946,-0.468181818181821
1.589000000000001,4.975555555555571,9.77000000000003,-4.099999999999959,-0.9151515151515243,2.4236363636363674,-0.5227272727272757
1.609000000000001,5.095454545454516,10.464545454545496,-3.230909090909053,-1.4058823529412188,2.6423529411764894,-0.5735294117647084
1.6290000000000011,4.137999999999944,11.162000000000019,-2.4399999999999444,-1.9117647058823715,2.6935294117646995,-0.5364705882352897
1.6490000000000011,3.0722222222221283,11.401111111111137,-1.635555555555514,-2.2321212121212306,2.6845454545454555,-0.3939393939393848
1.6690000000000011,1.599999999999928,11.489999999999972,-0.9999999999999722,-2.5264705882353047,2.7123529411764755,-0.21588235294115882
1.6890000000000012,0.3699999999999445,10.68799999999992,-0.6099999999999889,-2.6650000000000027,2.7512499999999966,0.10250000000002081
1.7090000000000012,-0.5680000000000432,9.083999999999897,-0.6020000000000177,-2.6723529411764684,2.6494117647058744,0.4782352941176692
1.7290000000000012,-1.1660000000000144,7.367999999999915,-0.7879999999999934,-2.594999999999994,2.6,0.918750000000029
1.7490000000000012,-1.4900000000000289,5.963999999999933,-0.5639999999999792,-2.489999999999995,2.7400000000000047,1.370000000000025
1.7690000000000012,-1.9372727272727581,4.62727272727264,-0.39909090909091505,-2.399411764705878,2.8135294117647076,1.8223529411765005
1.7890000000000013,-2.502000000000035,3.217999999999912,-0.435999999999984,-2.308749999999991,2.8375000000000017,2.317500000000035
1.8090000000000013,-3.044000000000036,1.9579999999999187,-0.09999999999996668,-2.1694117647058735,2.8617647058823543,2.803529411764734
1.8290000000000013,-3.4840000000000293,0.6559999999999108,0.31200000000001465,-2.054999999999994,2.9106250000000036,3.2525000000000275
1.8490000000000013,-3.9280000000000252,-0.6240000000000826,0.498000000000012,-2.040000000000003,3.020000000000005,3.590000000000013
1.8690000000000013,-4.286000000000031,-1.8180000000000653,0.70000000000002,-2.0856250000000025,3.0612499999999923,3.773125000000005
1.8890000000000013,-4.652000000000008,-2.884000000000076,0.9520000000000147,-2.0976470588235268,2.909999999999986,3.83
1.9090000000000014,-4.707999999999992,-3.9660000000000704,1.23000000000002,-1.9976470588235178,2.686470588235277,3.8358823529411774
1.9290000000000014,-4.483999999999982,-4.9880000000000715,1.4080000000000052,-1.8023529411764563,2.4011764705882146,3.809411764705879
1.9490000000000014,-4.2179999999999715,-5.974000000000062,1.6200000000000268,-1.4399999999999646,2.029999999999968,3.6499999999999804
1.9690000000000014,-3.881999999999995,-6.898000000000058,1.976000000000024,-0.9035294117646648,1.524705882352896,3.3470588235293866
1.9890000000000014,-3.8219999999999947,-7.678000000000039,2.372000000000028,-0.3162499999999592,0.8662499999999526,2.991249999999976
2.0090000000000012,-3.6979999999999875,-8.274000000000038,2.6799999999999944,0.2782352941176809,0.2217647058823191,2.6158823529411537
2.0290000000000012,-3.473999999999985,-8.876000000000033,2.451999999999978,0.9106250000000404,-0.19125000000001985,2.1468749999999686
2.0490000000000013,-3.3840000000000083,-9.480000000000034,2.1099999999999883,1.540000000000036,-0.31000000000000394,1.6799999999999757
2.0690000000000013,-3.80200000000003,-9.88800000000001,1.9619999999999953,2.063750000000031,-0.378750000000009,1.3399999999999856
2.0890000000000013,-3.8760000000000265,-10.146000000000043,2.0600000000000174,2.4429411764706073,-0.4888235294117701,1.197647058823527
2.1090000000000013,-4.678000000000045,-10.389999999999983,2.182000000000007,2.6782352941176573,-0.5064705882352913,1.1917647058823542
2.1290000000000013,-5.288000000000044,-9.969999999999962,2.2419999999999938,2.778235294117651,-0.3752941176470473,1.2535294117647113
2.1490000000000014,-6.01666666666676,-9.35888888888882,1.903333333333284,2.7199999999999847,-0.1699999999999859,1.3900000000000123
2.1690000000000014,-7.382000000000137,-8.077999999999825,1.2439999999999654,2.465624999999974,0.043750000000016234,1.5781250000000135
2.1890000000000014,-8.369999999999933,-5.931999999999896,1.1380000000000363,2.098235294117619,0.26411764705883933,1.7494117647058929
2.2090000000000014,-6.980909090908983,-4.830909090909054,1.5709090909091101,1.474705882352882,0.49352941176472265,1.8258823529411774
2.2290000000000014,-5.169999999999887,-4.407272727272698,1.724545454545452,1.0281818181818043,0.5996969696969716,1.778787878787874
2.2490000000000014,-3.918999999999959,-3.684999999999917,1.7030000000000014,0.8099999999999546,0.63,1.6999999999999678
2.2690000000000015,-3.8700000000000787,-2.4866666666665456,1.7099999999999842,0.18499999999997835,0.6262499999999982,1.2374999999999747
2.2890000000000015,-5.028000000000069,-1.1399999999999246,1.4490000000000045,-0.0882352941176637,0.6017647058823512,0.878235294117619
2.3090000000000015,-5.895000000000068,-0.32399999999993656,1.371999999999991,-0.2705882352941291,0.560588235294113,0.4841176470587902
2.3290000000000015,-6.8200000000000305,0.6700000000000906,1.2989999999999895,-0.3768750000000073,0.46687499999999066,0.07999999999996671
2.3490000000000015,-7.064999999999977,1.4869999999999834,1.205000000000068,-0.4300000000000023,0.29999999999998667,-0.2700000000000173
2.3690000000000015,-6.801999999999945,1.961000000000056,1.7390000000000045,-0.4637500000000018,0.09812499999998467,-0.5200000000000145
2.3890000000000016,-6.136999999999984,2.983000000000107,1.9700000000000453,-0.4882352941176488,-0.07705882352941965,-0.6870588235294197
2.4090000000000016,-6.265000000000023,4.581000000000161,2.374000000000012,-0.5305555555555603,-0.10777777777777434,-0.74
2.4290000000000016,-5.979999999999924,6.358000000000069,2.756000000000018,-0.5916666666666714,-0.06333333333332988,-0.74
2.4490000000000016,-4.6419999999999,7.002000000000036,2.743999999999967,-0.7000000000000104,-0.050000000000008364,-0.7200000000000021
2.4690000000000016,-3.345999999999897,7.256000000000003,2.1659999999999577,-0.8150000000000073,-0.15437500000001173,-0.7568750000000081
2.4890000000000017,-2.1159999999999273,7.418000000000024,1.771999999999991,-0.9088235294117708,-0.30117647058824404,-0.891764705882366
2.5090000000000017,-1.6690000000000054,8.155000000000118,1.7720000000000073,-0.9676470588235322,-0.3952941176470645,-1.062352941176484
2.5290000000000017,-1.2559999999999125,9.140000000000036,1.8000000000000183,-0.9570588235294086,-0.4582352941176522,-1.2270588235294262
2.5490000000000017,0.03400000000016021,9.4,2.163000000000056,-0.8999999999999917,-0.520000000000001,-1.4100000000000177
2.5690000000000017,1.2920000000000256,9.683000000000057,2.4879999999999742,-0.8005882352941057,-0.528235294117646,-1.6082352941176643
2.5890000000000017,1.6450000000000637,10.322000000000044,2.1149999999999727,-0.6612499999999873,-0.527500000000002,-1.7887500000000127
2.6090000000000018,2.1309999999999945,10.845000000000065,1.81699999999998,-0.5270588235294031,-0.5635294117647097,-1.9170588235294195
2.629000000000002,1.9990000000000236,11.288999999999987,1.81600000000004,-0.4493749999999948,-0.6125000000000042,-2.015000000000008
2.649000000000002,2.3770000000000167,11.123000000000001,2.3830000000000564,-0.4199999999999958,-0.6299999999999969,-2.0800000000000023
2.669000000000002,2.4669999999999983,11.010999999999958,2.769999999999982,-0.3706249999999941,-0.5906249999999941,-2.101875000000001
2.689000000000002,2.3849999999999363,11.703000000000094,2.58699999999998,-0.30941176470587667,-0.525294117647052,-2.105882352941175
2.709000000000002,1.3359999999998944,12.267000000000017,2.271999999999971,-0.2623529411764674,-0.46647058823528986,-2.0647058823529347
2.729000000000002,0.271999999999898,11.976999999999926,1.8619999999999526,-0.25,-0.44187499999999896,-1.9749999999999917
2.749000000000002,-0.9600000000001172,10.847999999999836,1.0719999999998906,-0.26000000000000106,-0.43999999999999895,-1.8499999999999854
2.769000000000002,-1.6540000000000155,8.908999999999791,0.013999999999917911,-0.2737500000000024,-0.42249999999999527,-1.6818749999999822
2.789000000000002,-1.9210000000000527,7.099999999999882,-0.6880000000000508,-0.32294117647059734,-0.365294117647052,-1.411764705882312
2.809000000000002,-2.870000000000137,6.212999999999943,-0.9879999999999922,-0.3758823529411776,-0.3094117647058784,-1.1441176470588128
2.829000000000002,-4.431818181818325,5.517272727272655,-0.6472727272726738,-0.38764705882353045,-0.26823529411764335,-1.0323529411764605
2.849000000000002,-5.808000000000125,5.478000000000013,-0.07199999999995897,-0.3699999999999979,-0.019999999999990595,-0.5999999999999791
2.869000000000002,-7.330000000000161,4.843333333333258,-0.16333333333341246,-0.35090909090909145,0.07818181818182336,-0.36818181818179807
2.889000000000002,-8.446666666666722,3.983333333333207,-1.1633333333334381,-0.35696969696969755,0.13272727272727808,-0.1560606060605852
2.909000000000002,-8.829090909090926,2.4890909090907503,-1.7936363636363657,-0.34823529411764464,0.1894117647058884,0.06176470588237601
2.929000000000002,-8.77999999999999,0.8859999999998379,-1.5399999999999574,-0.3318749999999987,0.26687500000000924,0.28625000000002376
2.949000000000002,-8.58399999999998,-0.7960000000001791,-1.1979999999999829,-0.3299999999999987,0.3300000000000026,0.5100000000000195
2.969000000000002,-8.2219999999999,-2.410000000000192,-1.12,-0.3129411764705838,0.35176470588235403,0.688235294117665
2.989000000000002,-7.115999999999891,-3.6300000000000856,-1.262000000000017,-0.24249999999998753,0.36375000000000124,0.8762500000000187
3.009000000000002,-6.367999999999941,-4.274000000000055,-1.4680000000000148,-0.11529411764704547,0.38764705882353306,1.0700000000000205
3.029000000000002,-6.021999999999996,-4.7160000000000295,-1.4379999999999724,0.027500000000015817,0.38374999999999737,1.2618750000000198
3.049000000000002,-5.781999999999942,-5.24800000000009,-1.119999999999968,0.1700000000000209,0.3299999999999961,1.4400000000000248
3.069000000000002,-5.2959999999999665,-6.180000000000096,-0.8859999999999659,0.3731250000000335,0.30187500000000145,1.6768750000000363
3.089000000000002,-5.105999999999998,-6.9200000000000745,-0.4219999999999425,0.6670588235294453,0.30588235294117516,2.0035294117647444
3.109000000000002,-5.0340000000000025,-7.794000000000109,0.050000000000042635,0.949411764705909,0.22941176470586777,2.3388235294117976
3.1290000000000022,-5.1,-8.852000000000134,0.40200000000003,1.1375000000000157,-0.006875000000030301,2.5881250000000224
3.1490000000000022,-5.154000000000026,-9.958000000000109,0.6760000000000324,1.2300000000000169,-0.27000000000001045,2.6399999999999886
3.1690000000000023,-5.4960000000000555,-10.632000000000042,0.9760000000000324,1.408750000000038,-0.3406249999999927,2.521874999999978
3.1890000000000023,-5.916000000000021,-10.67399999999998,1.3020000000000416,1.7394117647059228,-0.2711764705882255,2.334117647058801
3.2090000000000023,-5.992000000000007,-10.485999999999963,1.6080000000000392,2.021764705882378,-0.23,2.169411764705867
3.2290000000000023,-6.106000000000021,-9.977999999999923,1.9180000000000161,2.1650000000000107,-0.2706250000000066,2.038749999999987
3.2490000000000023,-6.51400000000006,-9.237999999999923,1.8379999999999583,2.2100000000000013,-0.29999999999999477,1.9399999999999908
3.2690000000000023,-7.098000000000074,-8.455999999999882,1.618000000000016,2.22,-0.2468749999999898,1.8606249999999929
3.2890000000000024,-7.468000000000004,-7.455999999999905,1.9660000000000322,2.2076470588235253,-0.17764705882352522,1.7952941176470505
3.3090000000000024,-7.141999999999903,-6.7059999999999285,2.0719999999999956,2.16058823529411,-0.16588235294117795,1.7129411764705764
3.3290000000000024,-6.1279999999998775,-6.091999999999914,2.005999999999986,2.0993749999999918,-0.20250000000000637,1.6149999999999873
3.3490000000000024,-5.21199999999988,-5.245999999999917,1.7799999999999654,2.049999999999993,-0.25000000000000655,1.5199999999999896
3.3690000000000024,-4.257999999999947,-4.5759999999999055,1.3679999999999353,1.9868749999999897,-0.3075000000000058,1.4193749999999838
3.3890000000000025,-4.268000000000057,-3.4839999999998352,0.8059999999999331,1.8929411764705757,-0.34,1.268235294117626
3.4090000000000025,-4.900000000000116,-2.0959999999998042,0.37199999999995625,1.7752941176470427,-0.2988235294117544,1.079999999999975
3.4290000000000025,-5.964000000000157,-0.5479999999997991,0.08599999999997167,1.5999999999999746,-0.1156249999999697,0.7174999999999425
3.4490000000000025,-7.566363636363855,0.9981818181820025,-0.21181818181822276,1.4499999999999724,-0.00999999999999765,0.4799999999999773
3.4690000000000025,-9.6444444444447,2.801111111111357,-0.5844444444444724,1.2441176470587976,0.007647058823531646,0.30941176470586074
3.4890000000000025,-10.064999999999904,4.525000000000193,-0.1049999999998803,1.028749999999971,0.016249999999998474,0.1487499999999832
3.5090000000000026,-8.739090909090688,5.694545454545532,0.6354545454545932,0.7923529411764411,-0.0017647058823558916,0.027058823529398486
3.5290000000000026,-6.754999999999752,5.845000000000013,0.7049999999999654,0.5312499999999649,-0.018125000000001598,-0.05875000000000958
3.5490000000000026,-4.569999999999782,5.904999999999982,0.9100000000000426,0.259999999999964,-0.019999999999996864,-0.10000000000000628
3.5690000000000026,-3.459999999999856,6.060000000000027,1.0300000000000054,-0.011250000000038167,0.005625000000005204,-0.1493750000000087
3.5890000000000026,-2.494999999999896,6.275000000000046,1.065000000000008,-0.2764705882353267,0.04235294117647524,-0.2147058823529505
3.6090000000000027,-1.5499999999998721,6.700000000000064,1.3400000000000478,-0.511764705882381,0.08941176470588973,-0.2735294117647118
3.6290000000000027,-0.8549999999999387,7.235000000000078,1.5349999999999975,-0.7362500000000287,0.15062500000000797,-0.2981250000000016
3.6490000000000027,-0.5399999999999467,7.960000000000117,1.4600000000000053,-0.950000000000025,0.26000000000000784,-0.3100000000000047
3.6690000000000027,0.31000000000015454,8.675000000000056,1.750000000000048,-1.132500000000021,0.30249999999999305,-0.34750000000000697
3.6890000000000027,1.115000000000072,9.10500000000004,1.8149999999999866,-1.271176470588252,0.20823529411762218,-0.40882352941177635
3.7090000000000027,1.6900000000000586,9.139999999999995,1.709999999999984,-1.3829411764706026,-0.0035294117647391154,-0.5264705882353147
3.7290000000000028,1.9750000000000347,9.315000000000035,1.5099999999999734,-1.5041176470588407,-0.26588235294121215,-0.7100000000000264
3.7490000000000028,2.109999999999995,9.595000000000034,1.4049999999999814,-1.6200000000000174,-0.5200000000000236,-0.9300000000000205
3.769000000000003,2.0849999999999973,9.634999999999973,1.249999999999977,-1.750625000000019,-0.6868750000000157,-1.080625000000019
3.789000000000003,2.0750000000000086,9.394999999999968,0.9549999999999279,-1.8894117647059023,-0.7641176470588252,-1.194705882352951
3.809000000000003,2.0449999999999506,9.270000000000017,0.37499999999990474,-2.0129411764706036,-0.6994117647058615,-1.2358823529411782
3.829000000000003,1.094999999999824,9.880000000000116,-0.08500000000002597,-1.9687499999999811,-0.33312499999992695,-1.2562500000000036
3.849000000000003,0.14499999999991628,10.34000000000001,-0.04499999999996825,-1.5999999999999406,0.3200000000000893,-1.2900000000000047
3.869000000000003,-0.39500000000007796,10.064999999999916,-0.1300000000000635,-1.1731249999999567,0.9425000000000485,-1.327500000000007
3.889000000000003,-0.6549999999999856,8.749999999999712,-0.8300000000001271,-0.9411764705882236,1.1576470588235244,-1.3641176470588252
3.909000000000003,-0.4649999999999682,6.684999999999703,-1.7950000000001356,-0.9117647058823565,0.9811764705881884,-1.3582352941176437
3.929000000000003,-0.19500000000000867,5.134999999999882,-2.1549999999999683,-0.9525000000000075,0.5856249999999344,-1.3337499999999962
3.949000000000003,-0.7950000000001588,4.875000000000014,-1.589999999999919,-0.9700000000000036,0.14999999999993965,-1.3200000000000056
3.969000000000003,-2.210000000000231,4.969999999999994,-1.3199999999999885,-0.99,-0.23250000000004856,-1.357500000000007
3.989000000000003,-3.6750000000001877,4.829999999999972,-1.3950000000000318,-0.9858823529411748,-0.546470588235329,-1.4064705882353006
4.009000000000003,-4.900000000000174,4.6799999999999695,-1.6950000000000653,-0.950588235294109,-0.7288235294117821,-1.4476470588235346
4.0290000000000035,-5.845000000000111,4.269999999999872,-2.1300000000000643,-0.5968749999999119,-0.5424999999999398,-1.4356249999999935
4.049000000000003,-6.054999999999966,3.3049999999998105,-2.074999999999935,-0.39499999999997715,-0.3499999999999744,-1.3949999999999936
4.0690000000000035,-5.584444444444343,1.9099999999997395,-1.5033333333332248,-0.1968749999999107,-0.14249999999991758,-1.3112499999999405
4.089000000000003,-4.869999999999888,0.4249999999997669,-1.0399999999999565,0.14470588235295206,0.15,-1.0423529411764452
4.1090000000000035,-4.1399999999998816,-1.0800000000002363,-0.91,0.17090909090908774,0.1136363636363509,-0.8781818181817895
4.129000000000003,-3.70818181818178,-2.2436363636364973,-1.0981818181818361,0.15272727272726963,0.040909090909078585,-0.7145454545454267
4.149000000000004,-3.449999999999961,-3.1580000000001487,-1.049999999999961,0.1399999999999979,-0.04500000000001568,-0.5249999999999655
4.169000000000003,-3.335555555555559,-3.8122222222223345,-0.745555555555494,0.12818181818181648,-0.1309090909091012,-0.32454545454542116
4.189000000000004,-3.428000000000031,-4.39800000000011,-0.3819999999999101,0.11606060606060388,-0.20363636363637674,-0.08818181818177556
4.209000000000003,-3.568000000000024,-4.962000000000066,0.16000000000009063,0.10411764705882152,-0.22529411764705382,0.13588235294121243
4.229000000000004,-3.6800000000000197,-5.362000000000066,0.6280000000000703,0.09235294117646825,-0.19588235294117062,0.3476470588235715
4.249000000000003,-3.754000000000012,-5.684000000000042,0.9660000000000484,0.08000000000001149,-0.019999999999954023,0.6400000000000324
4.269000000000004,-3.6839999999999766,-5.986000000000062,1.386000000000082,0.14470588235295284,0.23882352941181137,0.8223529411765034
4.289000000000003,-3.621999999999991,-6.284000000000042,1.7520000000000513,0.22454545454547176,0.4981818181818571,1.0300000000000398
4.309000000000004,-3.698000000000031,-6.548000000000051,2.006000000000043,0.33969696969699137,0.7587878787879279,1.2966666666667168
4.329000000000003,-3.723999999999997,-6.860000000000045,2.2680000000000393,0.4036363636363697,0.8460606060606051,1.4727272727272938
4.349000000000004,-3.7239999999999767,-7.128000000000051,2.5400000000000587,0.43999999999999895,0.8399999999999676,1.5999999999999834
4.369000000000003,-3.6320000000000063,-7.251999999999991,2.7820000000000213,0.43411764705882255,0.6576470588234999,1.5058823529411614
4.389000000000004,-3.804000000000074,-6.965999999999906,2.7739999999999765,0.4375000000000047,0.3949999999999151,1.3499999999999432
4.409000000000003,-4.512000000000125,-6.403999999999912,2.4319999999999222,0.4647058823529462,0.09941176470585839,1.1676470588235184
4.429000000000004,-4.906000000000024,-5.977999999999914,2.1479999999999726,0.4941176470588294,-0.04176470588238099,1.1029411764705754
4.449000000000003,-5.228000000000078,-5.287999999999858,1.9119999999999393,0.5290909090909153,-0.09424242424242939,1.1045454545454578
4.469000000000003,-5.089999999999879,-4.635999999999942,1.6459999999999728,0.5736363636363765,-0.11090909090908234,1.1254545454545506
4.489000000000003,-3.993999999999794,-4.34999999999995,1.3999999999999664,0.664545454545471,-0.05030303030301937,1.1618181818181883
4.509000000000004,-2.713999999999742,-4.129999999999961,1.1319999999999297,0.8747058823530074,0.027058823529430693,1.18
4.5290000000000035,-1.587999999999875,-3.793999999999912,0.5679999999998752,1.0412121212121344,0.03636363636363034,1.1406060606060506
4.549000000000003,-1.2059999999999578,-3.0759999999998824,-0.1840000000001027,1.12,-6.269494727295038e-15,1.0799999999999914
4.5690000000000035,-1.2200000000000506,-2.151999999999821,-1.0460000000001721,1.12,-0.04705882352941939,1.0152941176470485
4.589000000000004,-1.6520000000001056,-0.9959999999997499,-1.850000000000117,1.110909090909085,-0.07272727272726803,0.955454545454536
4.6090000000000035,-2.322000000000125,0.24200000000019237,-2.386000000000088,1.080606060606055,-0.04848484848484392,0.9069696969696879
4.629000000000003,-3.0280000000001146,1.298000000000145,-2.6,1.0463636363636304,0.03484848484850391,0.8742424242424203
4.649000000000004,-3.71800000000009,2.0560000000001213,-2.4539999999999376,1.0099999999999625,0.15000000000002717,0.8499999999999979
4.669000000000004,-3.703999999999957,2.4420000000000663,-1.933999999999879,0.805454545454515,0.279090909090908,0.8354545454545398
4.689000000000004,-3.3933333333332585,2.7566666666667063,-1.2933333333332346,0.6418181818181523,0.27303030303030196,0.8051515151515097
4.709000000000003,-2.6533333333331774,2.920000000000033,-0.7666666666665726,0.4923529411764477,0.25823529411764307,0.7547058823529292
4.729000000000004,-1.8654545454543732,3.210909090909118,-0.2927272727272052,0.3570588235293849,0.23470588235293652,0.6841176470588095
4.749000000000004,-0.9859999999998637,3.456000000000077,-0.12599999999999148,0.2427272727272494,0.2106060606060554,0.5827272727272494
4.769000000000004,-0.41099999999990167,3.7960000000000655,-0.07899999999998908,0.1318181818181598,0.18636363636363196,0.46999999999997577
4.789000000000003,0.08666666666677886,4.183333333333395,-0.04999999999998915,0.010606060606042467,0.1621212121212085,0.3366666666666468
4.809000000000004,0.7600000000001093,4.5500000000000735,0.08200000000002186,-0.16764705882357245,0.13235294117646412,0.14647058823524894
4.829000000000004,1.155000000000064,4.940000000000085,0.08199999999998295,-0.32484848484850903,0.09636363636362873,-0.01878787878790425
4.849000000000004,1.3360000000000292,5.338000000000051,0.04,-0.4400000000000167,0.05999999999999895,-0.14000000000001672
4.869000000000003,1.50100000000001,5.530000000000033,0.08100000000001012,-0.5341176470588388,0.05411764705882258,-0.23411764705883878
4.889000000000004,1.36299999999996,5.799000000000062,0.28200000000005826,-0.6290909090909271,0.08090909090911004,-0.31454545454546357
4.909000000000004,1.1619999999999828,6.065000000000022,0.5880000000000597,-0.7260606060606253,0.18393939393941433,-0.36303030303031264
4.929000000000004,1.1729999999999963,6.045999999999992,0.7850000000000182,-0.842727272727296,0.2515151515151604,-0.42727272727274057
4.949000000000003,1.023999999999973,6.067000000000004,0.7319999999999864,-0.9700000000000313,0.2999999999999582,-0.5000000000000564
4.969000000000004,0.95,6.052999999999996,0.7510000000000109,-1.1272727272727363,0.06454545454541066,-0.8081818181818654
4.989000000000004,1.0220000000000256,5.927999999999974,0.7740000000000086,-1.1757575757575867,-0.1718181818182349,-1.0627272727273298
5.009000000000004,1.1800000000000426,5.745999999999949,0.7679999999999745,-1.214705882352947,-0.3694117647059143,-1.3194117647059342
5.0290000000000035,1.1609999999999763,5.553999999999974,0.43999999999993245,-1.2441176470588282,-0.5282352941176724,-1.5782352941176883
5.049000000000004,1.015999999999949,5.404999999999979,0.16699999999996162,-1.2015151515151399,-0.4872727272727099,-1.7900000000000382
5.069000000000004,0.6079999999998892,5.482000000000026,0.24000000000004265,-1.1399999999999848,-0.3772727272726779,-1.9654545454545536
5.089000000000004,-0.23200000000023877,5.6610000000000555,0.44000000000004263,-1.0733333333333204,-0.15909090909086676,-2.001818181818189
5.1090000000000035,-1.356000000000162,5.765999999999993,0.5760000000000269,-1.0752941176470718,0.09117647058828691,-1.9141176470587848
5.129000000000004,-1.9070000000000895,5.5319999999999405,0.8920000000000682,-1.139393939393952,0.16636363636362872,-1.7493939393939102
5.1490000000000045,-2.9060000000002897,5.587000000000047,0.913999999999966,-1.200000000000009,0.12999999999996997,-1.609999999999987
5.169000000000004,-4.13800000000023,5.684999999999978,0.8540000000000085,-1.2411764705882438,-0.005294117647086732,-1.5511764705882232
5.189000000000004,-4.849000000000058,5.248999999999889,1.0210000000000439,-1.27,-0.1163636363636465,-1.5227272727272807
5.209000000000004,-4.463999999999838,4.154999999999723,1.2320000000000255,-1.27,-0.17090909090910172,-1.5651515151515236
5.2290000000000045,-3.4509999999997567,2.612999999999655,1.15099999999997,-1.1897058823529139,-0.13647058823527594,-1.625882352941192
5.249000000000004,-2.5129999999998254,1.3599999999997867,1.2990000000000725,-1.06617647058821,-0.054117647058806645,-1.6964705882353086
5.269000000000004,-1.8819999999999126,0.5899999999998908,1.491000000000011,-0.8318181818181719,0.04363636363635593,-1.709090909090896
5.289000000000004,-1.456999999999919,0.1719999999999403,1.3499999999999575,-0.7772727272727167,0.0012121212121129904,-1.6363636363636223
5.309000000000005,-1.1388888888888204,0.08222222222221696,1.2733333333333492,-0.732352941176463,-0.06117647058825294,-1.5470588235293892
5.329000000000004,-0.9127272727272252,0.04272727272726876,1.3909090909091186,-0.6970588235294047,-0.14352941176472223,-1.4411764705882142
5.349000000000004,-0.8060000000000075,0.05200000000001491,1.6380000000000596,-0.5930303030302798,-0.18424242424243004,-1.32303030303028
5.369000000000004,-0.978000000000043,0.10600000000000781,2.2460000000001252,-0.46727272727269303,-0.21090909090909227,-1.1999999999999698
5.389000000000005,-1.622000000000157,0.2620000000000185,2.9540000000001756,-0.31575757575753965,-0.21696969696969842,-1.066666666666635
5.409000000000004,-2.3400000000001846,0.3200000000000231,3.5060000000001015,-0.11058823529406558,-0.23176470588235767,-0.8705882352940656
5.429000000000004,-3.144000000000142,0.42600000000002614,3.94200000000009,0.058787878787900955,-0.24,-0.6815151515151239
5.449000000000004,-3.500000000000023,0.3039999999999446,4.432000000000111,0.18000000000001568,-0.2399999999999987,-0.529999999999966
5.469000000000005,-3.4139999999999677,-0.02000000000009236,4.714000000000038,0.2505882352941353,-0.23411764705882204,-0.3770588235293735
5.489000000000004,-2.975999999999824,-0.472000000000134,4.772000000000019,0.31272727272728246,-0.22272727272726717,-0.21545454545450363
5.509000000000004,-2.2239999999998807,-0.9700000000000746,4.721999999999977,0.35515151515152354,-0.19848484848484368,-0.03363636363632766
5.529000000000004,-1.7699999999999076,-1.2520000000000646,4.5159999999999405,0.37,-0.1584848484848383,0.14818181818185638
5.549000000000005,-1.455999999999963,-1.329999999999977,4.297999999999958,0.3699999999999974,-0.1099999999999373,0.33000000000009927
5.569000000000004,-1.4740000000000137,-1.1479999999999584,4.177999999999981,0.3645454545454614,0.15545454545458381,0.7527272727273371
5.589000000000004,-1.4159999999999888,-1.0319999999999776,4.123999999999993,0.3948484848484907,0.325151515151548,1.0375757575758127
5.609000000000004,-1.558000000000051,-0.8299999999999539,4.037999999999982,0.4070588235294105,0.44529411764707394,1.3005882352941693
5.629000000000005,-1.818000000000074,-0.6739999999999677,3.9419999999999726,0.40117647058823386,0.5158823529411937,1.5417647058824115
5.6490000000000045,-1.990000000000023,-0.7480000000000508,3.849999999999977,0.33696969696968015,0.4863636363636247,1.6724242424242646
5.669000000000004,-2.166000000000047,-0.986000000000047,3.7179999999999844,0.2581818181818036,0.4236363636363434,1.7554545454545398
5.6890000000000045,-2.3700000000000463,-1.38800000000012,3.669999999999977,0.1793939393939217,0.31454545454543004,1.7251515151515082
5.709000000000005,-2.510000000000024,-2.024000000000158,3.6340000000000146,0.15176470588235874,0.13647058823523345,1.6158823529411301
5.7290000000000045,-2.6180000000000274,-2.880000000000208,3.599999999999977,0.27424242424246426,0.1169696969697204,1.4987878787878608
5.749000000000004,-2.676000000000008,-3.7920000000001717,3.273999999999914,0.4500000000000405,0.2200000000000444,1.4200000000000053
5.769000000000005,-2.9740000000001063,-4.402000000000111,2.7939999999998983,0.6323529411765115,0.420000000000045,1.443529411764711
5.789000000000005,-3.79000000000024,-4.740000000000071,2.367999999999909,0.7800000000000159,0.567272727272733,1.4836363636363823
5.809000000000005,-4.8380000000002354,-5.032000000000088,2.099999999999954,0.8466666666666822,0.5915151515151571,1.562424242424261
5.829000000000004,-5.650000000000136,-5.504000000000109,2.158000000000043,0.8857575757575809,0.5487878787878622,1.6018181818181858
5.849000000000005,-6.086000000000055,-6.230000000000184,2.173999999999968,0.9099999999999896,0.46999999999995556,1.619999999999961
5.869000000000005,-5.549999999999784,-6.904000000000134,1.7359999999998657,0.859999999999982,0.2872727272727043,1.4445454545454086
5.889000000000005,-4.263999999999667,-7.248000000000074,0.9859999999998246,0.7933333333333175,0.20242424242422222,1.2748484848484445
5.909000000000004,-2.9619999999997413,-7.59400000000006,0.3679999999998661,0.7129411764705681,0.13941176470587352,1.0958823529411361
5.929000000000005,-2.0319999999997873,-7.7300000000000235,-0.2040000000001062,0.6188235294117418,0.09823529411763705,0.9076470588234837
5.949000000000005,-1.264545454545307,-7.509999999999891,-0.4536363636364079,0.483636363636326,0.08515151515151359,0.753636363636326
5.969000000000005,-1.1066666666666831,-6.647777777777493,-0.6688888888889437,0.3381818181817847,0.08909090909092304,0.6145454545454309
5.989000000000004,-1.5130000000001105,-5.273999999999698,-0.7280000000000082,0.19272727272724005,0.14969696969698332,0.5115151515151284
6.009000000000005,-2.1210000000001443,-3.752999999999637,-0.69199999999999,-0.015294117647125266,0.28588235294122843,0.41294117647056516
6.029000000000005,-2.694000000000132,-2.373999999999676,-0.7280000000000101,-0.2321212121212599,0.4230303030303277,0.3406060606060452
6.049000000000005,-2.923000000000035,-1.3479999999997614,-0.780999999999995,-0.4200000000000457,0.5200000000000209,0.27999999999998304
6.069000000000004,-2.713999999999942,-0.5179999999998414,-0.6549999999999792,-0.625882352941219,0.614117647058843,0.2035294117646901
6.089000000000005,-2.3209999999998954,0.12100000000014427,-0.630999999999995,-0.8263636363636812,0.6963636363636494,0.11909090909088454
6.109000000000005,-1.8999999999998987,0.7680000000001621,-0.47199999999993925,-1.0142424242424763,0.7509090909091061,0.016060606060577493
6.129000000000005,-1.6159999999999206,1.3910000000001441,-0.2049999999999254,-1.2021212121212599,0.7896969696969774,-0.09878787878790964
6.1490000000000045,-1.3429999999999458,1.8110000000000794,-0.027999999999966607,-1.3900000000000705,0.8200000000000078,-0.22000000000006792
6.169000000000005,-0.9419999999998906,2.2000000000000997,0.2250000000000746,-1.6809090909091229,0.8481818181818154,-0.5018181818182152
6.189000000000005,-0.5649999999999241,2.5620000000000913,0.4600000000000506,-1.8203030303030676,0.8360606060606027,-0.6472727272727664
6.209000000000005,-0.26899999999990554,2.8960000000000696,0.6030000000000348,-1.9547058823529746,0.8241176470588205,-0.7905882352941541
6.2290000000000045,-0.020999999999954083,3.1770000000000542,0.6109999999999958,-2.084117647058855,0.8123529411764677,-0.9317647058823872
6.249000000000005,0.3630000000000846,3.33200000000004,0.62199999999999,-2.1972727272727552,0.81,-1.0569696969697282
6.2690000000000055,0.6250000000000879,3.59800000000007,0.703000000000041,-2.306363636363666,0.8327272727273137,-1.1609090909090924
6.289000000000005,1.0010000000000945,3.78200000000004,0.8350000000000248,-2.4154545454545717,0.9842424242424603,-1.1669696969696983
6.309000000000005,1.14,4.037000000000065,0.840999999999995,-2.6347058823530163,1.1894117647059412,-1.217058823529433
6.329000000000005,1.2980000000000598,4.425000000000075,0.9250000000000249,-2.8366666666667006,1.2169696969696724,-1.324848484848514
6.3490000000000055,1.4580000000000117,4.56500000000003,0.783999999999918,-2.9700000000000317,1.1199999999999484,-1.4400000000000455
6.369000000000005,1.3669999999999654,4.675000000000025,0.5299999999999503,-3.087647058823559,0.9258823529411279,-1.6105882352941605
6.389000000000005,1.0339999999999303,4.93000000000005,0.449000000000005,-3.202727272727298,0.73909090909087,-1.7700000000000307
6.409000000000005,0.8519999999999402,4.97800000000001,0.49800000000000993,-3.311818181818208,0.5693939393938983,-1.9033333333333655
6.429000000000006,0.5049999999999121,5.068000000000012,0.52,-3.2436363636363192,0.6360606060606587,-1.9972727272727469
6.449000000000005,0.11499999999987567,5.10400000000003,0.4259999999999701,-3.07999999999979,0.8300000000002852,-2.069999999999978
6.469000000000005,-0.9280000000003084,5.495000000000124,0.2439999999999801,-2.4136363636363694,1.7227272727272462,-1.9845454545454309
6.489000000000005,-1.6500000000000994,5.689000000000005,0.5010000000000945,-2.4378787878787946,1.6075757575757266,-1.8815151515151238
6.509000000000006,-1.9420000000001054,5.425999999999906,0.6429999999999825,-2.489393939393963,1.4136363636362832,-1.7572727272726845
6.529000000000005,-2.0689999999999547,4.855999999999818,0.5490000000000052,-2.5681818181818388,1.1409090909090194,-1.6118181818181436
6.549000000000005,-1.2189999999997563,3.6919999999996915,0.56,-2.569999999999997,1.0349999999999813,-1.4599999999999627
6.569000000000005,-0.13699999999971146,2.374999999999671,0.5709999999999948,-2.539374999999963,0.9943750000000442,-1.301874999999949
6.589000000000006,0.7900000000000587,1.3099999999998402,0.9400000000000905,-2.4397058823529325,1.071176470588211,-1.163529411764692
6.609000000000005,0.7699999999998188,0.829999999999952,1.1499999999999466,-2.4102941176470507,0.9888235294117416,-1.116470588235281
6.629000000000005,-0.06000000000037836,0.76000000000008,0.8199999999998561,-2.4039393939393956,0.8733333333332994,-1.107878787878791
6.649000000000005,-1.550000000000405,1.0900000000001013,0.2999999999999254,-2.4099999999999957,0.7399999999999511,-1.12000000000002
6.669000000000006,-3.030000000000379,1.4300000000000186,0.11000000000001865,-2.3933333333333286,0.5566666666666138,-1.1950000000000216
6.689000000000005,-3.9600000000000586,1.3099999999998668,0.23000000000005863,-2.3639534883720845,0.449302325581372,-1.2360465116279156
6.709000000000005,-4.099999999999994,0.7199999999997975,0.47000000000008524,-2.3313953488372015,0.3609302325581184,-1.2686046511627984
6.729000000000005,-3.9499999999998296,-0.09000000000028244,0.8200000000001012,-2.2712499999999802,0.23249999999996085,-1.2962500000000066
6.749000000000006,-3.269999999999745,-1.180000000000348,1.120000000000056,-2.2499999999999964,0.13999999999997623,-1.2699999999999898
6.7690000000000055,-2.4399999999998188,-2.270000000000229,1.2600000000000053,-2.2390909090909075,0.06272727272725961,-1.2309090909090745
6.789000000000005,-1.7899999999998242,-3.0400000000001386,1.25,-2.2330303030303016,0.014242424242412698,-1.1703030303030157
6.8090000000000055,-1.1599999999998933,-3.5100000000000637,1.199999999999936,-2.2123529411764613,-0.012941176470589757,-1.1194117647058717
6.829000000000006,-0.8199999999999564,-3.780000000000087,0.969999999999944,-2.1770588235294017,-0.018823529411766397,-1.0782352941176352
6.8490000000000055,-0.740000000000032,-4.000000000000021,0.84,-2.1360606060605942,-0.04424242424243273,-1.0506060606060539
6.869000000000005,-0.8900000000000373,-4.0900000000000585,0.8400000000000266,-2.0831249999999693,-0.079375000000017,-1.03
6.889000000000006,-1.1600000000001438,-4.189999999999974,0.9800000000000852,-1.9852941176470384,-0.12617647058824036,-1.0361764705882404
6.909000000000006,-1.680000000000143,-4.230000000000044,1.270000000000031,-1.9147058823529206,-0.14382352941176982,-1.05382352941177
6.929000000000006,-2.110000000000085,-4.390000000000053,1.299999999999984,-1.842727272727253,-0.17363636363637353,-1.079696969696978
6.949000000000005,-2.400000000000069,-4.610000000000059,1.2399999999999947,-1.769999999999978,-0.2100000000000141,-1.1100000000000063
6.969000000000006,-2.6200000000000587,-4.830000000000059,1.229999999999968,-1.687647058823505,-0.2629411764706039,-1.1335294117647128
6.989000000000006,-2.8300000000000374,-5.090000000000093,1.0299999999999068,-1.5954545454545086,-0.3036363636363675,-1.15
7.009000000000006,-2.950000000000043,-5.390000000000053,0.719999999999936,-1.4803030303029971,-0.31575757575757923,-1.15
7.029000000000005,-3.070000000000016,-5.630000000000032,0.49999999999995204,-1.2937499999999413,-0.30374999999999347,-1.084999999999974
7.049000000000006,-3.110000000000005,-5.759999999999989,0.30999999999995204,-1.1999999999999795,-0.2599999999999864,-0.9999999999999762
7.069000000000006,-3.200000000000224,-5.60999999999982,0.09999999999985079,-1.1336363636363502,-0.20181818181814365,-0.9127272727272365
7.089000000000006,-4.150000000000272,-4.959999999999883,-0.45000000000013857,-1.0912121212121093,-0.08060606060602635,-0.797575757575725
7.109000000000005,-4.930000000000058,-4.58999999999992,-0.8099999999999894,-1.0641176470588205,0.04176470588238489,-0.6752941176470253
7.129000000000006,-5.059999999999956,-4.209999999999832,-0.7099999999999564,-1.0523529411764672,0.16529411764709434,-0.5458823529411393
7.149000000000006,-4.75999999999972,-3.729999999999919,-0.5799999999999129,-1.0209090909090799,0.3257575757576271,-0.39393939393934624
7.169000000000006,-3.5899999999994714,-3.5499999999999874,-0.19999999999988188,-0.9506249999999286,0.4943750000000442,-0.194374999999881
7.189000000000005,-1.9599999999996482,-3.43999999999992,0.10000000000001599,-0.747058823529388,0.5876470588235205,0.14558823529415768
7.209000000000006,-0.8499999999998694,-3.01999999999977,0.09999999999993783,-0.6529411764705618,0.5523529411764607,0.30441176470592696
7.229000000000006,-0.5800000000000248,-2.219999999999683,-0.06000000000001865,-0.6239393939393959,0.5478787878787917,0.4112121212121461
7.249000000000006,-0.7700000000001797,-1.1599999999996475,-0.16000000000010361,-0.6300000000000019,0.56,0.4900000000000151
7.2690000000000055,-1.3840000000001933,-0.1259999999997499,-0.4580000000000455,-0.6360606060606078,0.56,0.538484848484862
7.289000000000006,-2.1463636363638985,0.7509090909093221,-0.56,-0.6461764705882406,0.5352941176470379,0.5802941176470675
7.309000000000006,-3.165000000000296,1.5770000000002433,-0.5029999999998883,-0.6638235294117705,0.4647058823529182,0.6097058823529508
7.329000000000006,-3.8910000000000626,2.246000000000091,0.07600000000026147,-0.710625000000019,0.42374999999999236,0.6443750000000115
7.3490000000000055,-3.917999999999875,2.4640000000000226,0.9590000000002217,-0.6949999999999915,0.4099999999999966,0.7000000000000169
7.369000000000006,-3.299999999999716,2.484999999999972,1.6710000000001761,-0.6709090909090929,0.3927272727272575,0.760000000000021
7.3890000000000065,-2.290999999999678,2.462000000000079,2.231000000000138,-0.676969696969699,0.3442424242424084,0.8266666666666884
7.409000000000006,-1.3369999999998126,2.6820000000000683,2.5450000000000284,-0.6951515151515241,0.28666666666664703,0.8660606060606096
7.429000000000006,-0.7759999999998636,2.969000000000108,2.5840000000000227,-0.7254545454545533,0.2199999999999825,0.8781818181818214
7.449000000000006,-0.30599999999992045,3.3530000000001308,2.6759999999999775,-0.7700000000000136,0.12499999999997113,0.9050000000000085
7.4690000000000065,-0.02199999999994742,3.820000000000197,2.647999999999987,-0.8325000000000475,0.02499999999996836,0.931875000000004
7.489000000000006,0.034000000000022734,4.493000000000188,2.6310000000000056,-0.9238235294117595,-0.015294117647037895,0.9255882352941054
7.509000000000006,0.05500000000002842,5.153000000000131,2.6489999999999942,-0.9061764705882304,0.05529411764707865,0.8844117647058708
7.529000000000006,0.16699999999998055,5.574000000000155,2.537999999999922,-0.773939393939336,0.2730303030303917,0.7990909090908764
7.549000000000007,0.2510000000000723,5.989000000000125,2.3739999999999606,-0.5799999999999773,0.5700000000000283,0.6899999999999623
7.569000000000006,0.3310000000000065,6.395000000000097,2.169999999999935,-0.507272727272705,0.6609090909091186,0.5687878787878418
7.589000000000006,0.40299999999996017,6.648000000000102,1.9909999999999488,-0.4764705882353081,0.6726470588234893,0.4673529411764514
7.609000000000006,0.1879999999999222,6.947000000000045,1.8339999999999612,-0.5235294117647212,0.5373529411764266,0.4026470588235084
7.629000000000007,0.021000000000072298,7.060999999999941,1.7330000000000196,-0.6862500000000786,0.28687499999989075,0.29874999999995633
7.649000000000006,0.43200000000027233,6.723999999999767,1.8310000000000066,-0.8150000000000347,0.13999999999996343,0.2399999999999854
7.669000000000006,1.3230000000001876,5.927999999999875,1.572999999999676,-0.9127272727272777,0.048181818181833154,0.193636363636352
7.689000000000006,1.7079999999997926,5.692000000000142,0.5129999999996953,-0.9309090909090966,0.10272727272728982,0.15121212121210792
7.709000000000007,0.941999999999816,6.260000000000131,-0.19200000000007886,-0.9127272727272542,0.23303030303037292,0.09363636363633898
7.729000000000006,0.3859999999997795,6.609000000000123,-0.4530000000000843,-0.8581818181818014,0.4390909090909723,0.02090909090906859
7.749000000000006,-0.13799999999998863,6.758999999999824,-0.6990000000000511,-0.8750000000000084,0.5150000000000153,-0.06500000000002548
7.769000000000006,0.2790000000002563,5.800999999999546,-0.8240000000000263,-0.9262500000000554,0.5281249999999328,-0.16250000000004747
7.789000000000007,0.8789999999999277,4.552999999999757,-0.8860000000000394,-1.0626470588235515,0.3570588235293797,-0.28470588235296523
7.809000000000006,0.3019999999996845,4.0539999999998955,-0.9779999999999869,-1.1273529411764915,0.2629411764705576,-0.3552941176470818
7.829000000000006,-0.7380000000003297,3.7679999999999314,-0.9059999999999773,-1.1381818181818126,0.23,-0.42333333333335327
7.849000000000006,-1.810000000000263,3.482999999999888,-0.8830000000000198,-1.1199999999999812,0.23000000000000567,-0.4900000000000207
7.869000000000007,-2.6145454545457105,3.0899999999998626,-0.9027272727273165,-1.0593939393939182,0.24818181818182455,-0.55666666666669
7.8890000000000065,-3.3018181818182564,2.550909090908854,-1.0490909090909404,-1.0097058823529315,0.24970588235293142,-0.6164705882353098
7.909000000000006,-3.441999999999976,1.7739999999997706,-1.0459999999998975,-0.9802941176470503,0.22029411764705029,-0.6635294117647196
7.9290000000000065,-3.1959999999998177,0.8679999999996557,-0.601999999999838,-0.9456249999999885,0.16937499999998093,-0.7206250000000191
7.949000000000007,-2.5759999999998127,-0.21200000000042257,-0.2779999999999931,-0.945000000000002,0.07999999999996865,-0.7850000000000216
7.9690000000000065,-2.245999999999919,-0.9780000000000945,-0.3599999999999325,-0.9481818181818142,-0.008181818181835578,-0.8654545454545995
7.989000000000006,-2.0259999999999576,-1.5860000000001087,-0.19600000000001813,-0.9360606060606023,-0.06272727272728983,-1.0351515151515684
8.009000000000007,-1.897999999999953,-2.0260000000002187,-0.3020000000000469,-0.8966666666666411,-0.07484848484847323,-1.2260606060606876
8.029000000000007,-1.802000000000045,-2.596000000000209,-0.43600000000002237,-0.8299999999999765,-0.0445454545454439,-1.4381818181818926
8.049000000000007,-2.01000000000006,-3.0940000000001633,-0.3979999999999336,-0.7949999999999908,-0.019999999999992687,-1.6000000000000476
8.069000000000006,-2.2440000000000726,-3.630000000000151,-0.17199999999991544,-0.7756250000000102,0.018750000000034,-1.7468750000000306
8.089000000000008,-2.542000000000164,-4.076000000000141,0.1780000000001876,-0.8041176470588277,0.1247058823529659,-1.8055882352941033
8.109000000000007,-2.834000000000052,-4.512000000000194,0.6040000000001268,-0.8158823529411807,0.19529411764708426,-1.7644117647058675
8.129000000000007,-3.0060000000000486,-5.032000000000157,0.8920000000000664,-0.8081818181818116,0.21212121212120777,-1.6948484848484542
8.149000000000006,-3.2020000000000666,-5.510000000000121,1.0940000000000725,-0.7899999999999979,0.1999999999999812,-1.609999999999977
8.169000000000008,-3.4040000000000936,-5.8680000000000705,1.2760000000000236,-0.7841176470588211,0.14705882352939048,-1.5452941176470327
8.189000000000007,-3.650000000000078,-5.953999999999977,1.2979999999999923,-0.7599999999999753,0.08272727272723897,-1.503636363636368
8.209000000000007,-3.808000000000024,-5.871999999999976,1.235999999999988,-0.6933333333333089,-0.008181818181851458,-1.5157575757575803
8.229000000000006,-3.87,-5.781999999999946,1.2400000000000302,-0.5724999999999476,-0.1537500000000612,-1.6256250000000567
8.249000000000008,-3.920000000000117,-5.519999999999805,1.3479999999999923,-0.4899999999999718,-0.2100000000000141,-1.6950000000000212
8.269000000000007,-4.470000000000312,-4.989999999999805,1.1139999999998593,-0.4236363636363482,-0.24363636363637245,-1.7327272727272551
8.289000000000007,-4.965999999999988,-4.593999999999891,0.9060000000000181,-0.381212121212106,-0.2678787878787966,-1.6842424242424068
8.309000000000006,-4.883999999999952,-4.135999999999838,1.0160000000000484,-0.3482352941176392,-0.2594117647058686,-1.5923529411764252
8.329000000000008,-4.501999999999617,-3.717999999999953,1.132000000000047,-0.3247058823529322,-0.21823529411763135,-1.4570588235293602
8.349000000000007,-3.2639999999994296,-3.6520000000000077,1.2920000000000469,-0.2909090909090775,-0.11303030303025834,-1.2748484848484134
8.369000000000007,-1.7819999999995833,-3.665999999999988,1.3379999999999639,-0.23374999999993687,0.0012500000000270628,-1.0368749999998241
8.389000000000006,-0.5979999999998128,-3.533999999999891,1.109999999999879,-0.09529411764703541,0.03970588235293142,-0.6417647058822787
8.409000000000008,-0.20399999999997653,-3.0419999999997342,0.6739999999998202,-0.024705882352914446,0.010294117647047685,-0.4182352941175624
8.429000000000007,-0.40200000000024233,-2.2559999999996325,0.18799999999979677,0.05515151515154576,-0.019696969696980628,-0.2296969696969085
8.449000000000007,-1.3180000000005148,-1.1299999999994776,-0.2400000000000746,0.14000000000002927,-0.050000000000008364,-0.05999999999996029
8.469000000000007,-2.6880000000004167,0.24800000000035632,-0.3540000000000121,0.22235294117649643,-0.07352941176471325,0.05176470588238799
8.489000000000006,-4.048000000000296,1.3100000000002416,-0.37599999999995776,0.29454545454546827,-0.09727272727273412,0.15545454545456944
8.509000000000007,-4.702000000000008,1.9580000000001485,-0.12599999999978895,0.3430303030303208,-0.1215151515151604,0.24030303030306138
8.529000000000007,-4.351111111110769,2.2566666666667694,0.5233333333336156,0.3843750000000131,-0.14625000000000873,0.3512500000000437
8.549000000000007,-3.494999999999745,2.397999999999971,1.112000000000102,0.36999999999999267,-0.1349999999999945,0.42000000000001825
8.569000000000008,-2.51999999999949,2.665000000000255,1.404000000000204,0.34454545454544133,-0.10727272727269643,0.4836363636363966
8.589000000000008,-1.4979999999998252,2.910000000000073,1.8020000000000291,0.3081818181818051,-0.02242424242421205,0.5745454545454871
8.609000000000007,-0.9999999999997816,3.2300000000001456,1.8680000000000438,0.2960606060606103,0.07151515151518785,0.7048484848485447
8.629000000000007,-0.4759999999998689,3.603000000000153,2.0080000000000435,0.3081818181818224,0.1745454545454903,0.8745454545455135
8.649000000000006,-0.16899999999996146,4.11300000000017,2.0909999999999833,0.34000000000001096,0.25500000000002376,1.1250000000000824
8.669000000000008,-0.06899999999994902,4.731000000000197,2.0690000000000217,0.3831250000000316,0.31249999999998196,1.4400000000002167
8.689000000000007,0.07500000000010924,5.2600000000001454,2.178000000000044,0.4605882352941382,0.25117647058820647,1.889705882353001
8.709000000000007,0.27599999999994174,5.68900000000024,2.179999999999927,0.5194117647059036,0.16882352941173503,2.0602941176471203
8.729000000000008,0.3820000000001748,6.218000000000116,2.1060000000000145,0.5912121212121539,0.08878787878784614,2.084545454545432
8.749000000000008,0.661000000000051,6.617000000000138,2.071999999999956,0.6700000000000585,0.00999999999999164,2.0299999999999327
8.769000000000007,0.7819999999999563,6.991000000000124,1.9939999999999853,0.8347058823530014,-0.013529411764714486,1.8417647058822841
8.789000000000007,0.5749999999999635,7.231000000000051,1.9580000000000437,1.04000000000011,-0.01874999999998626,1.6049999999998716
8.809000000000006,0.8210000000001823,7.105999999999879,2.1990000000000878,1.2282352941176726,0.005882352941180404,1.4123529411764588
8.829000000000008,1.100000000000073,6.9669999999999925,2.1419999999998836,1.3047058823529705,0.017647058823533898,1.3770588235293983
8.849000000000007,1.4530000000001528,6.7799999999999265,1.7079999999997524,1.3393939393939485,-0.009090909090922496,1.423333333333358
8.869000000000007,1.4989999999997305,6.830000000000219,0.9429999999997161,1.3554545454545346,-0.05181818181821045,1.4854545454545587
8.889000000000008,0.5279999999996249,7.528000000000222,0.39399999999989765,1.3251515151515016,-0.1306060606060958,1.5218181818181982
8.909000000000008,-0.2490000000003132,7.815000000000036,0.15799999999989806,1.3009090909090835,-0.22151515151519424,1.5006060606060279
8.929000000000007,-0.9650000000000364,7.655999999999723,-0.10300000000000728,1.2827272727272663,-0.3245454545454912,1.4218181818181537
8.949000000000007,-0.5829999999996431,6.495999999999432,-0.15800000000004372,1.3099999999999894,-0.3799999999999742,1.1599999999999526
8.969000000000007,0.406000000000216,4.776999999999453,-0.5930000000002768,1.2796969696969591,-0.30727272727270183,1.02666666666662
8.989000000000008,0.6789999999998761,3.627999999999825,-1.1330000000000071,1.2229411764705438,-0.22499999999995796,0.9276470588235145
9.009000000000007,0.011999999999664973,3.3529999999999345,-0.9939999999999126,1.1170588235293717,-0.12499999999996211,0.8923529411764572
9.029000000000007,-1.1470000000005025,3.2229999999999346,-0.9500000000000729,0.9815151515150969,-0.03090909090905812,0.9036363636363768
9.049000000000008,-2.4390000000005707,3.0029999999999184,-1.1730000000000995,0.82999999999993,0.060000000000016145,0.940000000000016
9.069000000000008,-3.5880000000003354,2.8119999999998835,-1.3260000000000147,0.6724242424241818,0.09636363636365036,0.9763636363636503
9.089000000000008,-4.106999999999993,2.250999999999687,-1.2319999999998834,0.47117647058813644,0.12411764705882765,0.9670588235293789
9.109000000000007,-3.8689999999998035,1.2849999999995994,-0.8259999999997961,0.2711764705881929,0.09764705882350609,0.8435294117646508
9.129000000000007,-3.261999999999738,0.13899999999958484,-0.32099999999983253,0.15352941176466225,0.03294117647056424,0.690588235294061
9.149000000000008,-2.4689999999997307,-0.9700000000003641,0.015000000000036415,0.02818181818176542,-0.02848484848487361,0.47090909090899297
9.169000000000008,-1.9239999999998398,-1.7900000000002185,0.003000000000007283,-0.10000000000004844,-0.0790909090909069,0.23090909090899625
9.189000000000007,-1.4433333333331992,-2.3566666666668246,-0.0700000000001421,-0.23333333333338102,-0.07303030303030086,-0.02969696969706298
9.209000000000009,-1.2166666666665384,-2.7466666666669233,-0.4400000000002072,-0.3735294117647681,-0.04647058823527421,-0.25705882352949394
9.229000000000008,-1.1020000000000256,-3.2760000000002045,-0.8120000000000682,-0.5205882352941738,0.0005882352941355834,-0.45117647058830934
9.249000000000008,-1.1654545454545968,-3.7600000000001614,-0.7554545454544354,-0.7700000000000377,0.060000000000004175,-0.6600000000000147
9.269000000000007,-1.3980000000001147,-4.174000000000108,-0.5179999999999461,-0.8758823529412152,0.07176470588235724,-0.7011764705882504
9.289000000000007,-1.6360000000000945,-4.478000000000081,-0.32999999999989876,-0.9772727272727596,0.10363636363639163,-0.733636363636368
9.309000000000008,-1.9460000000001192,-4.700000000000085,-0.08199999999994032,-1.0681818181818532,0.18242424242427274,-0.7457575757575804
9.329000000000008,-2.284000000000125,-4.898000000000094,-0.03,-1.1354545454545653,0.2296969696969806,-0.8012121212121497
9.349000000000007,-2.574000000000074,-5.110000000000068,-0.04400000000000675,-1.1899999999999957,0.2599999999999591,-0.8800000000000624
9.369000000000009,-2.764000000000094,-5.294000000000094,-0.007999999999974422,-1.1778787878787824,0.14484848484843432,-1.055757575757653
9.389000000000008,-2.8880000000000168,-5.464000000000051,0.024000000000008525,-1.1370588235293704,-0.04117647058837469,-1.3676470588237772
9.409000000000008,-2.956000000000034,-5.5440000000000085,-0.012000000000025579,-1.038484848484806,-0.22121212121213882,-1.8136363636364992
9.429000000000007,-3.046000000000027,-5.4479999999999125,-0.00799999999997975,-0.9354545454545089,-0.2636363636363787,-2.140909090909207
9.449000000000007,-3.136000000000061,-5.121999999999852,-0.0020000000000202495,-0.8399999999999666,-0.21499999999997702,-2.3450000000000646
9.469000000000008,-3.5800000000002985,-4.5699999999997445,-0.18800000000014494,-0.7536363636363448,-0.1481818181817832,-2.494545454545438
9.489000000000008,-4.01,-4.127999999999889,-0.31399999999992323,-0.7112121212121049,-0.06939393939390907,-2.4581818181818043
9.509000000000007,-3.877999999999946,-3.819999999999865,-0.07399999999993925,-0.6723529411764578,0.02000000000003605,-2.339999999999928
9.529000000000009,-3.6459999999997783,-3.4599999999999147,0.04000000000004263,-0.6370588235293956,0.12000000000004599,-2.139999999999908
9.549000000000008,-2.7759999999995224,-3.3759999999999915,0.21000000000008529,-0.5572727272726876,0.11818181818180629,-1.7945454545452881
9.569000000000008,-1.6699999999994883,-3.3179999999999743,0.36400000000005117,-0.5092592592592479,-0.009259259259324831,-1.555555555555487
9.589000000000008,-0.6039999999997367,-3.1339999999998716,0.40799999999997977,-0.45911764705879266,-0.12617647058824147,-1.44
9.609000000000007,-0.10999999999996625,-2.5739999999997365,0.23399999999990548,-0.3708823529411447,-0.14382352941177107,-1.44
9.629000000000008,-0.2840000000002217,-1.7199999999995736,-0.11000000000017053,-0.2572727272726701,-0.15,-1.4715151515151732
9.649000000000008,-1.062000000000452,-0.643999999999497,-0.47000000000012787,-0.12999999999999193,-0.15000000000004038,-1.5199999999999947
9.669000000000008,-2.2380000000005236,0.520000000000469,-0.6940000000000469,-0.11181818181817482,-0.24090909090912588,-1.5078787878787832
9.689000000000009,-3.5720000000004943,1.6040000000003922,-0.5919999999998551,-0.09588235294117131,-0.3041176470588287,-1.4258823529410836
9.709000000000009,-4.342000000000196,2.2780000000001874,-0.18399999999983802,-0.0869696969696943,-0.2675757575757201,-1.2290909090908289
9.729000000000008,-4.571999999999898,2.6060000000000767,0.2660000000002899,-0.08090909090908827,-0.18272727272723574,-1.047272727272648
9.749000000000008,-3.99599999999968,2.6419999999999844,0.9840000000002813,-0.08500000000000235,-0.1199999999999765,-0.8299999999999107
9.769000000000007,-2.9499999999995947,2.6140000000000065,1.6680000000001822,-0.08909090909090689,-0.06818181818181378,-0.6036363636362756
9.789000000000009,-1.7355555555550488,2.658888888888907,2.1033333333334436,-0.08303030303030032,-0.05606060606060065,-0.3612121212120129
9.809000000000008,-0.8211111111107611,2.7755555555556293,2.2811111111111755,-0.07696969696969447,-0.043939393939388914,-0.13696969696961156
9.829000000000008,-0.0822222222219367,2.9822222222223513,2.38,-0.07090909090908876,-0.03181818181817751,0.06909090909098231
9.849000000000009,0.4250000000002052,3.3050000000001662,2.3450000000000095,-0.029999999999994614,0.010000000000005383,0.3700000000000592
9.869000000000009,0.6800000000000639,3.740000000000208,2.37,-0.01787878787878256,0.022121212121217437,0.5033333333333918
9.889000000000008,0.800000000000032,4.295000000000248,2.365000000000008,-0.024411764705899675,0.05676470588238511,0.6311764705882847
9.909000000000008,0.87,4.865000000000216,2.4450000000000403,-0.06558823529413325,0.13323529411767604,0.7488235294118093
9.929000000000007,0.880000000000064,5.300000000000113,2.5950000000000557,-0.111515151515169,0.223030303030338,0.8609090909091303
9.949000000000009,0.949999999999984,5.540000000000096,2.644999999999976,-0.16000000000001346,0.32000000000002154,0.9700000000000512
9.969000000000008,0.889999999999952,5.710000000000048,2.604999999999992,-0.1903030303030436,0.3684848484848698,1.0851515151515656
9.989000000000008,0.679999999999936,5.8549999999999915,2.534999999999992,-0.21411764705882827,0.4247058823529696,1.2505882352942217
10.00900000000001,0.6350000000000098,5.7899999999999805,2.610000000000078,-0.15939393939388588,0.4993939393939742,1.4618181818182538
10.029000000000009,0.6099999999999467,5.719999999999965,2.7600000000000176,-0.03818181818176533,0.5781818181818525,1.6254545454546168
10.049000000000008,0.6150000000001359,5.479999999999793,2.519999999999808,0.1550000000000823,0.5349999999999742,1.780000000000061
10.069000000000008,0.88,5.004999999999896,1.8399999999996801,0.3445454545454898,0.4499999999999273,1.9136363636363725
10.089000000000008,0.9500000000000959,4.794999999999928,1.0599999999996963,0.4415151515151862,0.24999999999992842,1.9378787878787964
10.109000000000009,0.7799999999996092,4.885000000000222,0.2249999999995826,0.5506060606061141,0.0954545454544973,1.8803030303029686
10.129000000000008,-0.4450000000004716,5.5250000000002,-0.41000000000012793,0.6718181818182346,-0.013636363636411186,1.7409090909090301
10.149000000000008,-1.3050000000003439,5.740000000000032,-0.6200000000000799,1.170000000000094,-0.020000000000032297,1.4299999999999704
10.16900000000001,-2.1300000000002153,5.704999999999834,-0.8300000000000392,1.3821212121213127,-0.09272727272730719,1.3633333333333018
10.189000000000009,-1.9499999999996802,4.849999999999431,-0.9050000000000267,1.56735294117653,-0.15029411764707173,1.3302941176470717
10.209000000000009,-1.0199999999996163,3.4949999999994326,-0.834999999999944,1.7026470588235902,-0.1797058823529544,1.3597058823529544
10.229000000000008,0.11000000000049559,2.0049999999994164,-0.6249999999998961,1.8051515151515503,-0.17030303030301774,1.421212121212154
10.249000000000008,0.860000000000016,0.8749999999997202,-0.43999999999996803,1.8899999999999912,-0.14000000000001725,1.5
10.269000000000009,0.3199999999995115,0.4999999999999414,-0.555000000000127,1.865757575757565,-0.18848484848486977,1.5
10.289000000000009,-0.8650000000005835,0.470000000000016,-0.9650000000002319,1.7882352941175697,-0.24882352941180083,1.4299999999999122
10.309000000000008,-2.3000000000005114,0.530000000000016,-1.435000000000104,1.660606060606028,-0.2475757575757224,1.251212121212056
10.32900000000001,-3.460000000000547,0.5099999999999805,-1.5250000000000097,1.581818181818147,-0.16272727272723503,1.0936363636362938
10.349000000000009,-4.190000000000156,0.3449999999998925,-1.269999999999746,1.4599999999999427,-0.07999999999996343,0.9749999999999504
10.369000000000009,-3.964999999999672,-0.13500000000029577,-0.6849999999998002,1.3181818181817224,-0.002727272727250804,0.8718181818181572
10.389000000000008,-2.9349999999995284,-0.9450000000003597,-0.35499999999991205,1.1060606060605114,0.04575757575759742,0.817272727272703
10.409000000000008,-1.7849999999995925,-1.7900000000002718,-0.16999999999995205,0.8727272727271672,0.10333333333336098,0.7718181818181667
10.42900000000001,-0.8949999999997167,-2.3150000000002833,-0.02999999999998046,0.6181818181817051,0.1700000000000296,0.7354545454545293
10.449000000000009,-0.4499999999998081,-2.770000000000176,-0.08500000000002399,0.13999999999988966,0.24000000000000538,0.6099999999999327
10.469000000000008,-0.1472727272726806,-3.1363636363637455,-0.08,-0.10848484848495749,0.25212121212121746,0.458484848484782
10.48900000000001,-0.17363636363643292,-3.3954545454546494,-0.14272727272732472,-0.3400000000001019,0.2620588235294148,0.28588235294106856
10.50900000000001,-0.4900000000002309,-3.5960000000000556,-0.22199999999997228,-0.5400000000000935,0.267941176470591,0.07411764705872448
10.529000000000009,-1.1360000000003325,-3.679999999999954,-0.0819999999999261,-0.7281818181818999,0.2739393939393967,-0.14181818181827988
10.549000000000008,-1.5860000000000898,-3.7280000000000655,0.13000000000008172,-0.9100000000000539,0.27999999999999464,-0.36000000000007804
10.569000000000008,-1.898000000000097,-3.8700000000000747,0.2720000000000522,-1.0312121212121679,0.2678787878787832,-0.5357575757576434
10.58900000000001,-1.9580000000000277,-4.110000000000093,0.43200000000006467,-1.163529411764773,0.24352941176468523,-0.7241176470589165
10.609000000000009,-2.0460000000000553,-4.292000000000065,0.5220000000000184,-1.2612121212121399,0.19272727272724866,-0.85121212121214
10.629000000000008,-2.007999999999889,-4.510000000000138,0.5460000000000093,-1.3036363636363821,0.13818181818179442,-0.8936363636363822
10.64900000000001,-1.8980000000000277,-4.690000000000047,0.4619999999999261,-1.3200000000000058,0.09499999999997988,-0.9150000000000087
10.66900000000001,-1.8479999999999353,-4.7360000000000095,0.40399999999999076,-1.33,0.05545454545453175,-0.9318181818181873
10.689000000000009,-1.721999999999926,-4.627999999999935,0.2939999999999446,-1.33,0.025151515151501616,-0.9439393939393993
10.709000000000009,-1.7160000000000555,-4.367999999999843,0.21399999999999075,-1.3451515151515285,0.03424242424244565,-0.95
10.729000000000008,-1.928000000000097,-3.9459999999998208,0.21600000000000746,-1.3754545454545586,0.08272727272729387,-0.95
10.74900000000001,-2.1800000000001387,-3.4519999999997415,0.22199999999997228,-1.5300000000000322,0.25000000000002154,-1.010000000000043
10.769000000000009,-2.7780000000003975,-2.713999999999575,0.06399999999985222,-1.6027272727273045,0.2984848484848698,-1.1069696969697396
10.789000000000009,-3.6920000000003417,-1.875999999999686,-0.3680000000002125,-1.6541176470588284,0.30529411764702913,-1.2420588235294983
10.80900000000001,-3.9519999999999262,-1.4519999999998798,-0.44799999999988915,-1.665882352941182,0.23470588235290818,-1.4479411764706844
10.82900000000001,-3.633999999999852,-1.2019999999998798,-0.007999999999750596,-1.6148484848484468,0.17848484848482668,-1.67363636363647
10.849000000000009,-3.1959999999997324,-0.9579999999999353,0.5000000000002309,-1.5299999999999354,0.1300000000000027,-1.910000000000051
10.869000000000009,-2.6619999999997415,-0.7819999999999261,0.8780000000001662,-1.3845454545453908,0.13606060606060874,-2.0251515151515656
10.889000000000008,-2.085999999999763,-0.5879999999999019,1.192000000000139,-1.1994117647057687,0.16882352941180084,-2.0505882352940557
10.90900000000001,-1.5079999999997504,-0.3919999999999261,1.6980000000002586,-1.030606060606021,0.21,-1.8709090909089812
10.92900000000001,-1.0079999999997968,-0.3219999999999723,2.2380000000002127,-0.9518181818181468,0.21,-1.652727272727176
10.949000000000009,-0.6519999999998799,-0.18599999999991684,2.678000000000166,-0.9199999999999895,0.15499999999997127,-1.464999999999919
10.96900000000001,-0.6660000000001094,0.06600000000020889,2.9240000000000896,-0.8909090909090587,0.08090909090902308,-1.303636363636341
10.98900000000001,-1.2500000000004157,0.6740000000003141,3.244000000000222,-0.8303030303030017,-0.04636363636369667,-1.2612121212121012
11.00900000000001,-2.083636363636627,1.2163636363638255,3.7890909090911147,-0.7545454545454144,-0.1584848484848913,-1.2975757575758085
11.029000000000009,-2.580000000000207,1.4533333333334122,4.223333333333471,-0.6636363636363241,-0.2554545454545878,-1.4127272727273228
11.049000000000008,-2.4579999999998203,1.4479999999999427,4.428000000000066,-0.469999999999965,-0.31000000000000805,-1.7000000000000242
11.06900000000001,-2.1899999999998996,1.329999999999933,4.46,-0.39121212121208393,-0.3281818181818268,-1.7545454545454804
11.08900000000001,-2.0249999999999564,1.2219999999999651,4.498000000000035,-0.3297058823529283,-0.3461764705882431,-1.7488235294117132
11.109000000000009,-2.0700000000000296,1.2666666666667061,4.726666666666825,-0.3002941176470456,-0.36382352941177265,-1.6311764705881826
11.12900000000001,-2.0369999999999058,1.344000000000021,5.106000000000189,-0.27818181818180837,-0.350303030303014,-1.4442424242423035
11.14900000000001,-1.6929999999997798,1.418000000000042,5.277000000000011,-0.2599999999999667,-0.31999999999992673,-1.2199999999997069
11.16900000000001,-1.2459999999998084,1.538000000000035,5.101999999999878,-0.19823529411761726,-0.20058823529409378,-0.7282352941175159
11.189000000000009,-0.8959999999998955,1.739000000000148,4.8629999999999045,-0.139411764705855,-0.153529411764684,-0.469411764705762
11.209000000000009,-0.8119999999999652,2.1640000000001915,4.752999999999991,-0.07666666666663724,-0.11484848484847147,-0.2218181818180775
11.22900000000001,-0.7529999999999896,2.6040000000002306,4.721999999999958,-0.009999999999965009,-0.08454545454543864,0.014545454545578596
11.24900000000001,-0.7079999999999478,2.948000000000122,4.569999999999913,0.05000000000002874,-0.06499999999999138,0.20500000000008906
11.269000000000009,-0.5959999999999825,3.1800000000000868,4.31799999999986,0.1018181818181873,-0.05090909090909365,0.3790909090909666
11.28900000000001,-0.575999999999979,3.4030000000000946,3.973999999999811,0.11393939393940043,-0.056969696969700216,0.5063636363637045
11.30900000000001,-0.6210000000000314,3.549000000000073,3.587999999999832,0.12625000000000652,-0.03499999999997391,0.6325000000000652
11.32900000000001,-0.5989999999999722,3.5929999999999906,3.2679999999998524,0.13,0.021176470588263874,0.6905882352941319
11.349000000000009,-0.4769999999999217,3.5319999999999654,2.8729999999998173,0.1300000000000054,0.08000000000002154,0.7200000000000268
11.369000000000009,-0.30799999999994776,3.407999999999948,2.343999999999756,0.14212121212121745,0.12848484848486977,0.7806060606060872
11.38900000000001,-0.18899999999996855,3.3089999999999686,1.8379999999997274,0.16696969696972228,0.174848484848507,0.8730303030303821
11.40900000000001,-0.0839999999999261,3.186999999999917,1.279999999999723,0.21545454545457052,0.2172727272727492,1.0245454545455328
11.42900000000001,0.09600000000006961,3.0169999999999217,0.651999999999704,0.2547058823529583,0.21352941176469445,1.21823529411775
11.44900000000001,0.3200000000001048,2.8309999999999267,-0.018000000000356342,0.2900000000000133,0.18999999999994005,1.4300000000001931
11.46900000000001,0.39,2.667999999999937,-0.6110000000002411,0.31705882352942966,0.08941176470585553,1.7294117647059062
11.48900000000001,0.26099999999984297,2.6240000000000183,-0.9000000000000924,0.35235294117648697,0.0364705882352695,1.776470588235316
11.50900000000001,-0.23300000000025245,2.7440000000000175,-0.9680000000000348,0.40333333333336274,0.003939393939388589,1.748484848484803
11.529000000000009,-1.0410000000002873,2.9360000000000697,-1.3220000000001393,0.47000000000002906,-0.008181818181823468,1.6454545454545004
11.54900000000001,-1.3860000000001886,2.978000000000042,-1.458000000000042,0.5675757575758111,0.0209090909091098,1.5166666666665973
11.56900000000001,-1.398999999999864,2.8729999999998848,-1.4529999999999894,0.662941176470621,0.06294117647062103,1.4005882352940937
11.58900000000001,-0.8529999999996432,2.304999999999608,-1.5460000000000698,0.7276470588235595,0.1276470588235595,1.353529411764684
11.60900000000001,-0.0129999999995703,1.3929999999995704,-1.7040000000000208,0.76,0.14749999999998697,1.367500000000039
11.62900000000001,0.7690000000003878,0.5929999999995703,-1.5359999999998744,0.7476470588235202,0.08235294117642758,1.4023529411764797
11.64900000000001,1.3690000000002829,-0.12800000000035633,-1.3199999999998953,0.7300000000000161,-8.720297211600899e-14,1.4199999999999515
11.66900000000001,1.62,-0.5610000000001132,-1.1269999999999216,0.7603030303030447,-0.16363636363644116,1.329090909090866
11.689000000000009,1.2436363636361416,-0.5399999999999096,-0.9645454545453805,0.8075757575757917,-0.31242424242429495,1.2148484848484167
11.70900000000001,0.36363636363579993,-0.16545454545431998,-0.8654545454545266,0.8863636363636771,-0.4336363636364262,1.0572727272726459
11.72900000000001,-0.9266666666673379,0.2377777777779903,-0.84,0.963529411764743,-0.44529411764704163,0.902941176470514
11.74900000000001,-1.8360000000003307,0.3619999999999652,-0.8370000000000086,1.0400000000000222,-0.4099999999998723,0.7499999999999611
11.76900000000001,-2.3020000000000924,0.12199999999978364,-0.7879999999999588,1.062352941176425,-0.15882352941170993,0.6941176470588601
11.78900000000001,-2.2099999999999005,-0.5200000000003482,-0.6959999999999701,0.974117647058777,-0.05294117647053237,0.7647058823529784
11.80900000000001,-1.7059999999996718,-1.278000000000408,-0.47799999999986076,0.8512121212120419,0.030303030303060807,0.8515151515152034
11.82900000000001,-1.1439999999997315,-2.0100000000003484,-0.3299999999999503,0.6936363636362937,0.09090909090911783,0.9545454545455003
11.849000000000009,-0.6459999999998038,-2.644000000000239,-0.3780000000000512,0.5206060606059849,0.13090909090910657,1.0060606060606243
11.86900000000001,-0.45599999999997015,-2.9720000000000897,-0.46400000000002983,0.34823529411756493,0.16117647058823834,1.0211764705881867
11.88900000000001,-0.5360000000000696,-3.01,-0.3939999999999801,0.18941176470579854,0.16705882352941487,0.9270588235293621
11.90900000000001,-0.6560000000000696,-3.01800000000001,-0.35199999999999004,-0.01500000000013045,0.14499999999997393,0.6487499999997587
11.929000000000011,-0.898000000000129,-3.0260000000000233,-0.2959999999999648,-0.14764705882357676,0.11352941176469236,0.34117647058809664
11.94900000000001,-1.2060000000001692,-3.02800000000001,-0.2019999999999403,-0.230000000000042,0.08999999999998708,0.09999999999988374
11.96900000000001,-1.4060000000000696,-3.0700000000000496,-0.05599999999992043,-0.30878787878792036,0.06575757575756297,-0.11818181818193327
11.98900000000001,-1.5020000000000397,-3.2420000000000893,0.12200000000008955,-0.385454545454582,0.05212121212121517,-0.30666666666673376
12.00900000000001,-1.4639999999999302,-3.484000000000129,0.26000000000004975,-0.45818181818185044,0.058181818181820874,-0.44000000000005923
12.02900000000001,-1.4840000000000297,-3.6740000000000794,0.3220000000000398,-0.521176470588266,0.080588235294133,-0.5129411764706129
12.04900000000001,-1.5,-3.8340000000000796,0.3560000000000199,-0.5800000000000599,0.11000000000006661,-0.5599999999999734
12.06900000000001,-1.5860000000000698,-3.89,0.44000000000004974,-0.682941176470621,0.22529411764709759,-0.5152941176470469
12.089000000000011,-1.7420000000001055,-3.855999999999965,0.5240000000000352,-0.7476470588235653,0.3017647058823953,-0.4917647058823399
12.10900000000001,-1.8740000000000796,-3.7199999999999007,0.6580000000000598,-0.7981818181818374,0.3187878787878563,-0.5072727272727562
12.12900000000001,-2.3760000000003183,-3.2319999999996916,0.8360000000001193,-0.8345454545454736,0.2763636363636141,-0.5618181818182104
12.14900000000001,-2.8160000000001193,-2.693999999999781,1.0820000000000896,-0.8296969696969634,0.1257575757574876,-0.7039393939394758
12.16900000000001,-2.6799999999998505,-2.58,0.9799999999999005,-0.8047058823529024,-0.03941176470595688,-0.8735294117648161
12.18900000000001,-2.4299999999999486,-2.5679999999999588,0.89,-0.7282352941176047,-0.18647058823537557,-1.0911764705883558
12.20900000000001,-2.37799999999996,-2.4419999999999407,1.0340000000000795,-0.5212499999998239,-0.2912500000000326,-1.4250000000002347
12.22900000000001,-2.36800000000001,-2.45400000000003,1.05800000000001,-0.3417647058822986,-0.3058823529411736,-1.6382352941177014
12.249000000000011,-2.4920000000001052,-2.335999999999906,1.1500000000000585,-0.22999999999999032,-0.30000000000000643,-1.7500000000000064
12.26900000000001,-2.4759999999999174,-2.1919999999999384,1.3620000000001442,-0.21181818181817225,-0.3121212121212185,-1.7621212121212184
12.28900000000001,-2.44600000000002,-1.9759999999998707,1.6940000000001791,-0.20424242424243058,-0.2987878787878471,-1.746666666666632
12.30900000000001,-2.54200000000004,-1.7359999999998708,2.2820000000003384,-0.21636363636364264,-0.23818181818178685,-1.6799999999999655
12.32900000000001,-2.3966666666666034,-1.5311111111110058,3.141111111111574,-0.2241176470588264,-0.1252941176469931,-1.585882352941125
12.34900000000001,-2.7700000000003375,-1.2255555555553805,3.7166666666669292,-0.22999999999998003,0.010000000000159872,-1.4799999999998668
12.36900000000001,-3.2740000000002287,-1.18,4.060000000000199,-0.2,0.2582352941176684,-1.2564705882352334
12.38900000000001,-3.3249999999999527,-1.2840000000000564,4.586000000000226,-0.2,0.2994117647059041,-1.1388235294117026
12.409000000000011,-3.1629999999998546,-1.4870000000001455,5.009000000000235,-0.19696969696969338,0.30484848484846694,-1.0345454545454007
12.429000000000011,-2.7166666666663666,-1.6711111111112111,5.303333333333521,-0.19090909090908767,0.27454545454543844,-0.9436363636363152
12.44900000000001,-2.4179999999999104,-1.77,5.351999999999977,-0.1436363636363353,0.1927272727272255,-0.8990909090908902
12.46900000000001,-2.5320000000001692,-1.5489999999998212,5.331999999999981,-0.08823529411761726,0.10470588235290242,-0.87
12.48900000000001,-3.101000000000179,-0.9959999999997552,5.483000000000066,-0.029411764705855006,0.028235294117611484,-0.87
12.509000000000011,-3.329000000000123,-0.5689999999997875,5.389999999999888,0.04375000000004566,-0.0037499999999934773,-0.8574999999999869
12.52900000000001,-3.3269999999999214,-0.3369999999999217,5.142999999999854,0.08235294117647982,0.045294117647092624,-0.7964705882352542
12.54900000000001,-3.318000000000115,-0.12699999999983694,4.71399999999977,0.10000000000001616,0.11000000000002584,-0.7199999999999193
12.569000000000011,-3.5079999999999103,0.14400000000006713,4.563999999999955,0.13030303030304735,0.15848484848487576,-0.5684848484847632
12.589000000000011,-2.90499999999972,0.12800000000002237,4.447999999999911,0.1627272727272917,0.19424242424243057,-0.40636363636354145
12.60900000000001,-2.3729999999996307,0.2,4.316999999999921,0.19909090909092786,0.20636363636364263,-0.22454545454536062
12.62900000000001,-1.8679999999998274,0.3010000000000863,4.1099999999999035,0.25941176470591926,0.2223529411764798,-0.05470588235285513
12.64900000000001,-1.7069999999999341,0.5920000000001695,4.001999999999981,0.3300000000001266,0.2400000000000133,0.11000000000015987
12.669000000000011,-1.6709999999999887,1.0660000000002687,3.869999999999888,0.543529411764776,0.2564705882352836,0.3747058823530147
12.68900000000001,-1.6309999999999887,1.5270000000002575,3.4819999999997537,0.6611764705883004,0.23882352941175494,0.4982352941177155
12.70900000000001,-1.4509999999998944,1.8740000000001533,3.0949999999998563,0.7866666666667373,0.21787878787877504,0.6175757575758186
12.729000000000012,-1.2789999999998993,2.221000000000213,2.9529999999999665,0.9200000000000818,0.19363636363634876,0.7327272727273434
12.749000000000011,-1.050999999999877,2.5350000000001676,2.883999999999955,1.0687878787879639,0.15909090909088863,0.8375757575758156
12.76900000000001,-0.8399999999998881,2.88300000000019,2.76799999999991,1.21117647058829,0.11823529411761664,0.9317647058823834
12.78900000000001,-0.4789999999997874,3.118000000000134,2.6099999999998884,1.3170588235294678,0.059411764705851314,0.9905882352941487
12.80900000000001,0.03100000000027306,3.301000000000085,2.3179999999998304,1.488750000000124,0.023749999999993478,1.0637500000000457
12.829000000000011,0.5260000000002686,3.46200000000009,1.8349999999997202,1.6423529411765383,0.03235294117648073,1.1105882352941345
12.84900000000001,0.9100000000002239,3.625000000000056,1.4389999999997873,1.7600000000000484,0.05000000000001292,1.1400000000000483
12.86900000000001,1.2260000000001567,3.790000000000112,1.2439999999999551,1.8509090909091388,0.07424242424243703,1.230909090909139
12.889000000000012,1.4400000000001119,3.935000000000056,1.193999999999955,1.9312121212121582,0.09,1.3430303030303956
12.909000000000011,1.535000000000056,3.9690000000000114,1.0469999999999218,1.9918181818182183,0.09,1.4945454545455463
12.929000000000011,1.5309999999999888,3.9339999999999553,0.8519999999998656,2.0141176470588267,-0.0005882352941920244,1.6058823529412305
12.94900000000001,1.634000000000067,3.692999999999855,0.49899999999978734,2.0200000000000133,-0.1300000000001199,1.6999999999999467
12.96900000000001,1.8670000000001223,3.3099999999998118,0.16499999999985876,2.0517647058823827,-0.3158823529411914,1.5917647058822815
12.989000000000011,1.9627272727272418,2.951818181818048,-0.23818181818206483,2.1105882352941503,-0.34529411764707507,1.4505882352940394
13.009000000000011,1.0199999999991085,3.2000000000003297,-0.5400000000000097,2.1642424242424503,-0.34484848484846875,1.30727272727265
13.02900000000001,-0.7190000000010185,3.8460000000003802,-0.45099999999987694,2.212727272727298,-0.31454545454543864,1.1618181818181055
13.049000000000012,-2.15272727272792,4.078181818181839,-0.2081818181817257,2.250909090909113,-0.2533333333332928,1.103939393939368
13.069000000000011,-2.7299999999998508,3.599999999999467,-0.3000000000001705,2.284705882352955,-0.1917647058823284,1.0841176470588656
13.089000000000011,-2.389999999999723,2.5199999999993925,-0.6900000000002131,2.30823529411766,-0.15058823529409485,1.1547058823529803
13.10900000000001,-1.7599999999996376,1.349999999999414,-0.97,2.3387500000000196,-0.16125000000003262,1.3212500000001368
13.12900000000001,-1.1299999999997228,0.3399999999995417,-0.8799999999999467,2.370588235294133,-0.23352941176474584,1.4576470588235724
13.149000000000012,-0.6499999999997886,-0.5000000000003482,-0.8499999999999751,2.40000000000003,-0.3100000000000603,1.5399999999999925
13.169000000000011,-0.4200000000001812,-0.9500000000000532,-0.8500000000001172,2.448484848484876,-0.4069696969697515,1.5278787878787812
13.18900000000001,-0.9500000000004156,-0.8599999999997762,-1.100000000000128,2.494848484848507,-0.484848484848507,1.490303030302986
13.209000000000012,-1.660000000000348,-0.45999999999982594,-1.2600000000000995,2.537272727272753,-0.527272727272753,1.405454545454494
13.229000000000012,-2.150000000000149,-0.30000000000008703,-1.4300000000000745,2.5788235294117885,-0.5441176470588269,1.3223529411764232
13.249000000000011,-2.399999999999936,-0.4200000000001705,-1.5099999999999787,2.6199999999999934,-0.5500000000000267,1.2399999999999733
13.26900000000001,-2.059999999999691,-0.9200000000003944,-1.5500000000000747,2.6064705882352848,-0.5923529411764766,1.2058823529411917
13.28900000000001,-1.3599999999996164,-1.7400000000004263,-1.6100000000000534,2.5888235294117554,-0.6041176470588298,1.2352941176470744
13.309000000000012,-0.7599999999996891,-2.4600000000004103,-1.7000000000000746,2.5739393939393866,-0.6160606060606132,1.2712121212121463
13.329000000000011,-0.3099999999998188,-3.1000000000003305,-1.8100000000000747,2.5618181818181753,-0.6281818181818246,1.3136363636363864
13.34900000000001,-0.03999999999994671,-3.690000000000309,-1.9400000000000426,2.56,-0.6557575757575915,1.3457575757575917
13.369000000000012,-0.010000000000223821,-4.230000000000237,-1.9899999999999876,2.5611764705882387,-0.6941176470588664,1.37
13.389000000000012,-0.500000000000286,-4.600000000000211,-1.9399999999998632,2.567058823529415,-0.7647058823529848,1.37
13.409000000000011,-0.9600000000002238,-4.880000000000053,-1.679999999999808,2.5449999999999693,-0.850000000000061,1.3449999999999696
13.429000000000011,-1.3100000000001173,-4.990000000000032,-1.3299999999998722,2.5052941176470385,-0.8841176470588269,1.3135294117646925
13.44900000000001,-1.4700000000001172,-5.039999999999947,-1.1199999999999575,2.469999999999955,-0.8899999999999968,1.2899999999999903
13.469000000000012,-1.6800000000001118,-4.929999999999913,-1.0199999999999627,2.385151515151463,-0.8839393939393902,1.2718181818181706
13.489000000000011,-1.9000000000000852,-4.739999999999894,-0.9399999999999147,2.2896969696969016,-0.8736363636363529,1.2536363636363528
13.509000000000011,-1.9899999999999787,-4.549999999999936,-0.7899999999999254,2.1745454545453935,-0.8554545454545357,1.2354545454545358
13.529000000000012,-1.9299999999999502,-4.4299999999999,-0.6399999999999378,1.9835294117645692,-0.8335294117646914,1.1805882352940744
13.549000000000012,-1.8299999999998882,-4.279999999999888,-0.5299999999999379,1.8572727272726608,-0.8557575757575941,1.1184848484848116
13.569000000000011,-1.6699999999999786,-4.079999999999851,-0.45000000000001067,1.7499999999999405,-0.885882352941194,1.0570588235293732
13.589000000000011,-1.6700000000000745,-3.749999999999808,-0.46,1.6499999999999446,-0.9152941176470751,0.9923529411764347
13.60900000000001,-1.810000000000032,-3.37999999999984,-0.4699999999999893,1.5696969696969376,-0.9209090909090814,0.9206060606060188
13.629000000000012,-1.8481818181817966,-3.1036363636362876,-0.42545454545449113,1.509090909090872,-0.9027272727272616,0.8418181818181334
13.649000000000012,-1.83,-2.9749999999999406,-0.3009999999998929,1.4639393939393681,-0.9257575757575942,0.7681818181817739
13.669000000000011,-1.8500000000001895,-2.8499999999998105,-0.1600000000000829,1.4111764705881802,-0.9829411764706846,0.6747058823528379
13.689000000000012,-2.3600000000003454,-2.4599999999997513,-0.4200000000001934,1.3224242424241943,-1.0963636363636475,0.5218181818181152
13.709000000000012,-2.6627272727273055,-2.2036363636362877,-0.59,1.243636363636316,-1.1145454545454656,0.41272727272720666
13.729000000000012,-2.882000000000143,-2.027999999999857,-0.6189999999999881,1.1582352941175964,-1.0870588235293848,0.30999999999994254
13.749000000000011,-2.958999999999869,-1.86,-0.5159999999998334,1.0699999999999354,-1.039999999999958,0.20999999999995156
13.76900000000001,-2.625999999999757,-1.6749999999998482,0.025000000000354385,0.9487878787878149,-0.9612121212120797,0.11909090909086113
13.789000000000012,-2.193999999999691,-1.4369999999998453,0.47,0.8190909090908203,-0.886666666666626,0.036666666666625936
13.809000000000012,-1.7379999999998572,-1.0789999999996311,0.3959999999999524,0.6736363636362755,-0.8199999999999597,-0.03000000000004037
13.829000000000011,-1.581000000000012,-0.3659999999994763,0.3640000000000476,0.4241176470586653,-0.6764705882351991,-0.09941176470592034
13.849000000000013,-1.6610000000001308,0.5280000000005712,0.41100000000001186,0.27696969696962326,-0.49030303030291605,-0.11515151515151884
13.869000000000012,-1.8590000000001072,1.4330000000005116,0.4230000000000357,0.1623529411764171,-0.31294117647050623,-0.12941176470591087
13.889000000000012,-2.026999999999964,2.2720000000003813,0.4269999999999643,0.07411764705876914,-0.177647058823446,-0.17647058823532313
13.909000000000011,-1.8799999999997619,2.839000000000226,0.3689999999999881,-0.0033333333333728093,-0.10393939393938677,-0.263636363636439
13.929000000000011,-1.3639999999996355,3.1220000000001216,0.40600000000006076,-0.07000000000003552,-0.09181818181817536,-0.3909090909091587
13.949000000000012,-0.6459999999995953,3.300999999999893,0.49100000000001187,-0.10575757575759419,-0.07454545454544348,-0.538787878787971
13.969000000000012,0.06700000000044036,3.2210000000001306,0.49,-0.12294117647056685,-0.024705882352834226,-0.7188235294119429
13.989000000000011,0.7030000000001546,3.2749999999998214,0.4319999999999048,-0.07878787878784291,0.11333333333337281,-0.9503030303030985
14.009000000000013,0.8890000000001215,3.2190000000001215,0.347999999999973,-0.018181818181780496,0.18000000000004146,-1.0654545454546172
14.029000000000012,1.0389999999999882,3.388000000000095,0.34,0.05352941176475263,0.14235294117642025,-1.1411764705882712
14.049000000000012,1.0190000000001072,3.6070000000000833,0.38400000000004764,0.13000000000005277,0.05999999999991333,-1.2000000000000264
14.069000000000011,1.2260000000000715,3.763000000000155,0.44700000000008333,0.21484848484853258,-0.07939393939401782,-1.2424242424242662
14.089000000000011,1.3390000000001057,3.999000000000106,0.5990000000001054,0.31878787878795156,-0.18272727272729172,-1.2784848484848612
14.109000000000012,1.5180000000000953,4.1650000000000595,0.7640000000000476,0.4581818181819026,-0.21909090909093112,-1.3027272727272874
14.129000000000012,1.6830000000000356,4.256000000000071,0.7759999999999524,0.6482352941177766,-0.23,-1.2852941176470374
14.149000000000012,1.7279999999999762,4.354000000000047,0.6639999999999286,0.7057575757575942,-0.23515151515151883,-1.2387878787878492
14.169000000000013,1.6529999999999054,4.433000000000041,0.5639999999999189,0.7323529411764786,-0.2341176470588034,-1.1835294117646495
14.189000000000012,1.5209999999998929,4.461000000000012,0.4559999999999524,0.7441176470588311,-0.20470588235292228,-1.1011764705881824
14.209000000000012,1.3779999999999761,4.454999999999941,0.3959999999999524,0.7469696969696932,-0.16878787878785254,-1.0115151515150915
14.229000000000012,1.3379999999999763,4.3429999999999165,0.2789999999998691,0.7409090909090872,-0.1263636363636103,-0.914545454545395
14.249000000000011,1.2719999999999048,4.21499999999994,0.07799999999985718,0.74,-0.10454545454544431,-0.8330303030302587
14.269000000000013,0.9699999999996713,4.123999999999961,-0.18400000000015776,0.74,-0.09470588235295543,-0.7488235294117006
14.289000000000012,0.4733333333330175,4.063333333333254,-0.35555555555562135,0.7442424242424316,-0.11848484848486329,-0.6630303030302734
14.309000000000012,-0.048888888889231,3.9055555555553845,-0.41111111111112425,0.7563636363636437,-0.1427272727272874,-0.6145454545454252
14.329000000000013,-0.4980000000002498,3.5959999999997763,-0.43799999999998684,0.7641176470588275,-0.15411764705882744,-0.5588235294117256
14.349000000000013,-1.0900000000008543,3.3380000000000525,-0.4300000000000657,0.77,-0.16000000000000378,-0.49999999999994726
14.369000000000012,-2.534444444445326,3.483333333333373,-0.4177777777775146,0.77,-0.1660606060606098,-0.41515151515146287
14.389000000000012,-3.5820000000002956,3.3399999999997725,0.07600000000026147,0.7678787878787842,-0.17424242424243166,-0.32181818181811517
14.409000000000011,-4.007999999999875,2.8399999999994887,0.3800000000001137,0.7618181818181782,-0.1863636363636437,-0.21272727272720665
14.429000000000013,-3.1719999999989614,1.6139999999989747,0.6980000000002498,0.7188235294117278,-0.18176470588234556,-0.023529411764565716
14.449000000000012,-1.5999999999991688,0.13599999999920703,0.9580000000000511,0.6842424242424058,-0.12848484848481162,0.10272727272733907
14.469000000000012,-0.4239999999994543,-0.9860000000004321,0.9899999999999431,0.6529411764705673,-0.06823529411761202,0.21235294117653716
14.489000000000013,0.18,-1.4880000000000526,0.7919999999997502,0.6176470588235067,-0.009411764705844552,0.32411764705889534
14.509000000000013,0.009999999999671369,-1.4699999999998685,0.39399999999969765,0.5848484848484661,0.047272727272761036,0.43757575757582884
14.529000000000012,-0.5540000000004732,-1.2879999999998593,-0.006000000000166268,0.554545454545436,0.1018181818182153,0.5527272727273433
14.549000000000012,-1.438000000000614,-1.0499999999998864,-0.19800000000004547,0.5551515151515188,0.15636363636366954,0.662727272727339
14.569000000000011,-2.4440000000004773,-0.8119999999998977,-0.09399999999979536,0.5647058823529549,0.2188235294118198,0.7782352941177296
14.589000000000013,-3.042000000000079,-0.8880000000002497,0.2900000000002629,0.5715151515151367,0.2821212121212158,0.8912121212121582
14.609000000000012,-2.991999999999821,-1.2360000000002942,0.6220000000001407,0.5472727272727126,0.2881818181818218,0.9518181818182185
14.629000000000012,-2.523999999999568,-1.790000000000341,0.8320000000000681,0.5152941176470373,0.28588235294117287,1.0276470588235798
14.649000000000013,-1.7539999999995664,-2.4460000000004336,0.8599999999998685,0.4800000000000301,0.2800000000000689,1.110000000000069
14.669000000000013,-1.0519999999996188,-3.0660000000003023,0.6599999999998686,0.5224242424242701,0.3769696969697601,1.20696969696976
14.689000000000012,-0.7059999999999079,-3.4420000000002102,0.4219999999998817,0.6051515151516115,0.4654545454545899,1.3209090909091799
14.709000000000012,-0.5699999999999431,-3.738000000000159,0.2399999999998295,0.7627272727273682,0.5381818181818623,1.4663636363637245
14.729000000000012,-0.5080000000000455,-4.0220000000001255,-0.024000000000079583,0.9335294117648137,0.40352941176456925,1.707647058823702
14.749000000000013,-0.6260000000001051,-4.186000000000039,-0.06599999999997372,0.9909090909091146,0.2515151515150607,1.7757575757575954
14.769000000000013,-0.8120000000001446,-4.17399999999996,-0.0059999999999079835,1.0505882352942104,0.12823529411761142,1.783529411764656
14.789000000000012,-1.108000000000273,-4.075999999999977,0.13400000000007958,1.2035294117648,0.0694117647058461,1.7011764705881844
14.809000000000013,-1.5680000000002499,-4.035999999999974,0.20200000000001314,1.3860606060607505,0.009696969696928428,1.5872727272726281
14.829000000000013,-1.8860000000001051,-4.018000000000052,0.25200000000001316,1.59818181818195,-0.05090909090912859,1.4418181818180913
14.849000000000013,-1.9720000000000788,-4.152000000000078,0.22199999999988168,1.8000000000001215,-0.12696969696974492,1.3478787878787362
14.869000000000012,-2.0840000000000796,-4.247999999999989,0.007999999999874944,2.0305882352943314,-0.19235294117647772,1.296470588235344
14.889000000000012,-2.212000000000068,-4.23,-0.21000000000017052,2.2896969696970215,-0.2,1.3924242424243165
14.909000000000013,-2.2755555555555262,-4.217777777777763,-0.45000000000013024,2.3745454545455136,-0.2,1.5136363636364478
14.929000000000013,-2.1427272727271567,-4.234545454545431,-0.6290909090909903,2.387647058823518,-0.24529411764710177,1.5994117647059292
14.949000000000012,-1.930999999999836,-4.163999999999975,-0.6579999999999496,2.369999999999974,-0.3100000000000565,1.6699999999999622
14.969000000000014,-1.7250000000000694,-4.052999999999737,-0.621000000000097,2.3275757575757274,-0.40090909090915505,1.6093939393938967
14.989000000000013,-2.1610000000004663,-3.5269999999996093,-0.9160000000002775,2.276666666666621,-0.47696969696973,1.5042424242422963
15.009000000000013,-2.735000000000189,-3.0249999999998107,-1.1639999999999746,2.2099999999999587,-0.5254545454545756,1.3163636363635196
15.029000000000012,-3.124000000000353,-2.6839999999997226,-1.0779999999999497,2.115882352941112,-0.5317647058823458,0.9552941176467928
15.049000000000012,-3.410999999999836,-2.373999999999975,-0.9099999999997478,2.0278787878787363,-0.5351515151515188,0.7818181818181045
15.069000000000013,-2.727999999999319,-2.5030000000001387,-0.3949999999996847,1.9284848484847412,-0.5351515151514987,0.6703030303029973
15.089000000000013,-1.762999999999508,-2.481999999999798,-0.007999999999823426,1.7709090909089928,-0.5109090909090759,0.6218181818181516
15.109000000000012,-1.2419999999999243,-2.0969999999996087,0.17600000000002525,1.6094117647057833,-0.4611764705881929,0.6097058823529518
15.129000000000014,-1.269000000000187,-1.4649999999994965,0.21300000000001437,1.4447058823528258,-0.3905882352940682,0.627352941176483
15.149000000000013,-1.6450000000003153,-0.7319999999995459,0.1869999999999874,1.2448484848483412,-0.3130303030302481,0.6403030303030388
15.169000000000013,-2.1810000000003407,-0.010999999999583801,0.2310000000000883,0.9882352941173379,-0.2382352941176074,0.6405882352940859
15.189000000000012,-2.721000000000214,0.7020000000004288,0.3730000000001388,0.6136363636362303,-0.18939393939392088,0.5824242424241943
15.209000000000012,-2.8519999999999244,1.2730000000002648,0.6480000000002017,0.39545454545441333,-0.15909090909089074,0.5036363636363159
15.229000000000013,-2.6179999999996975,1.6230000000001388,1.0290000000002901,0.1899999999998622,-0.12030303030300107,0.40363636363628846
15.249000000000013,-2.080999999999584,1.8470000000001134,1.4500000000002522,-0.010294117647199195,-0.0791176470588115,0.2932352941175548
15.269000000000013,-1.3959999999995207,1.9830000000000125,1.7870000000001136,-0.21617647058836706,-0.06147058823528283,0.15794117647050165
15.289000000000014,-0.7449999999996403,2.048000000000086,1.8669999999999858,-0.4157575757577072,-0.05212121212121636,0.023333333333240037
15.309000000000013,-0.2739999999996952,2.221000000000097,1.85,-0.6036363636364941,-0.05818181818182239,-0.11000000000009258
15.329000000000013,0.09600000000015135,2.4120000000001767,1.8830000000000124,-0.8494117647060521,-0.035294117647036695,-0.30647058823543427
15.349000000000013,0.3160000000001514,2.6620000000001767,1.874999999999937,-0.9775757575758203,-0.03,-0.4275757575758203
15.369000000000012,0.5400000000001262,2.9480000000002016,1.7779999999999496,-1.0752941176471051,-0.037058823529433155,-0.5276470588235829
15.389000000000014,0.6880000000000832,3.314000000000249,1.821000000000097,-1.1517647058824068,-0.07235294117649547,-0.6158823529412387
15.409000000000013,0.8680000000000757,3.6320000000001764,1.9820000000000504,-1.229393939393993,-0.09303030303030715,-0.6993939393939931
15.429000000000013,1.0010000000000883,3.881000000000088,1.9229999999998866,-1.3081818181818672,-0.09909090909091287,-0.7781818181818672
15.449000000000014,1.139000000000043,4.0110000000001005,1.734999999999784,-1.361212121212155,-0.10515151515151938,-0.8827272727273487
15.469000000000014,1.1639999999999722,4.190000000000139,1.54,-1.4047058823529575,-0.09352941176464866,-1.0264705882354903
15.489000000000013,1.0989999999999118,4.273000000000012,1.440999999999836,-1.4136363636363511,-0.02515151515148626,-1.2672727272728386
15.509000000000013,0.9849999999999369,4.27,1.0999999999997476,-1.395454545454534,0.017272727272753655,-1.4309090909091926
15.529000000000012,0.9019999999999243,4.19799999999995,0.7639999999998487,-1.39,0.0464705882353085,-1.5582352941177153
15.549000000000014,0.8054545454544944,4.1009090909089885,0.536363636363483,-1.3899999999999784,0.07000000000006891,-1.6700000000000301
15.569000000000013,0.7466666666666956,3.9199999999998263,0.33666666666652195,-1.3596969696969499,0.16696969696976013,-1.71242424242427
15.589000000000013,0.8690000000001639,3.6039999999997225,0.042999999999760376,-1.3081818181817626,0.23848484848486332,-1.7293939393939208
15.609000000000014,1.2260000000002633,3.1039999999996675,-0.38200000000031864,-1.2172727272726642,0.2627272727272896,-1.699090909090888
15.629000000000014,1.4119999999999722,2.75799999999982,-0.8900000000003464,-1.0664705882351706,0.17117647058813645,-1.6241176470587577
15.649000000000013,0.8279999999990579,2.8200000000003467,-1.2260000000000555,-0.9678787878787287,0.09333333333328686,-1.6048484848484807
15.669000000000013,-0.4960000000005784,3.2760000000001184,-1.0779999999997634,-0.8818181818181199,0.024242424242370594,-1.6048484848485014
15.689000000000012,-1.124000000000314,3.32,-0.8259999999999276,-0.7909090909090344,-0.05454545454550353,-1.629090909090924
15.709000000000014,-1.5100000000000693,3.2399999999999305,-0.6719999999997645,-0.7176470588234889,-0.1126470588235578,-1.6529411764706043
15.729000000000013,-1.5219999999998337,2.9979999999996814,-0.43999999999986145,-0.6588235294117235,-0.15382352941179353,-1.6764705882353106
15.749000000000013,-1.0219999999995135,2.3719999999995136,-0.20999999999986854,-0.516470588235246,-0.14029411764706284,-1.6144117647058063
15.769000000000014,-0.25399999999945966,1.655999999999432,-0.01999999999986144,-0.44588235294112505,-0.14617647058823957,-1.502647058823448
15.789000000000014,0.22800000000009701,0.9839999999996675,0.09200000000004156,-0.3893939393939182,-0.15848484848486544,-1.3748484848483744
15.809000000000013,0.08799999999961204,0.6699999999999307,0.08599999999991687,-0.35909090909088803,-0.18272727272728956,-1.2172727272726178
15.829000000000013,-0.4880000000003549,0.6139999999999474,-0.014000000000078875,-0.32030303030300267,-0.15606060606057448,-1.059696969696867
15.849000000000013,-1.0140000000002536,0.5739999999999517,-0.2160000000001691,-0.27588235294112745,-0.10617647058818974,-0.9020588235293172
15.869000000000014,-1.3860000000002632,0.51,-0.42400000000008314,-0.19352941176464866,-0.02970588235288804,-0.7432352941175367
15.889000000000014,-1.6520000000000414,0.441999999999903,-0.41799999999995846,-0.08749999999989592,0.02875000000001735,-0.5218749999997658
15.909000000000013,-1.6979999999999584,0.331999999999903,-0.37599999999984757,0.005882352941207571,0.02058823529409432,-0.27617647058812256
15.929000000000014,-1.3499999999996535,-0.032000000000318676,-0.121999999999903,0.05294117647062155,-0.01470588235296616,-0.10558823529399691
15.949000000000014,-0.8819999999996951,-0.5180000000003742,-0.04799999999995843,0.10121212121215502,-0.05090909090911626,0.053939393939503796
15.969000000000014,-0.5159999999999169,-1.0080000000002356,-0.030000000000069277,0.14848484848487783,-0.08484848484850162,0.20545454545463349
15.989000000000013,-0.4739999999999446,-1.2460000000001248,-0.08400000000001386,0.19090909090912003,-0.10909090909092573,0.3327272727273601
16.009000000000015,-0.43799999999995526,-1.448000000000179,-0.16600000000005968,0.2197058823529544,-0.12323529411765147,0.4417647058824235
16.029000000000014,-0.42000000000007465,-1.678000000000179,-0.3120000000001194,0.23735294117648306,-0.1291176470588277,0.5358823529412431
16.049000000000014,-0.5080000000000255,-1.9080000000001536,-0.42400000000001276,0.2629411764706334,0.0150000000000768,0.6558823529412668
16.069000000000013,-0.6200000000000639,-2.1520000000001662,-0.40199999999997443,0.3217647058823926,0.11500000000006738,0.7735294117647852
16.089000000000016,-0.6920000000001307,-2.3980000000001964,-0.34599999999998365,0.38121212121217013,0.19272727272730208,0.9178787878789445
16.109000000000016,-0.8940000000001798,-2.6080000000001964,-0.28399999999993464,0.4418181818182337,0.2290909090909402,1.1118181818183477
16.129000000000016,-1.1440000000002388,-2.8800000000002237,-0.2940000000000895,0.4345454545454244,0.19333333333327807,1.2930303030304486
16.149000000000015,-1.3820000000000447,-3.1820000000002686,-0.4300000000000746,0.39647058823523956,0.12235294117635233,1.4617647058823802
16.169000000000015,-1.4280000000001043,-3.504000000000164,-0.5240000000000895,0.32588235294112117,-0.030588235294237487,1.4970588235294393
16.189000000000014,-1.582000000000045,-3.726000000000134,-0.6240000000000149,0.25374999999994424,-0.19125000000013018,1.4849999999999257
16.209000000000014,-1.6077777777778461,-3.912222222222308,-0.62,0.2879411764706734,-0.1826470588234199,1.4302941176470465
16.229000000000013,-1.5809090909090664,-4.037272727272801,-0.6054545454545331,0.4114705882353806,-0.023823529411653527,1.412647058823517
16.249000000000017,-1.544999999999984,-4.074999999999984,-0.61,0.5278787878788833,0.20090909090928685,1.440909090909121
16.269000000000016,-1.530000000000064,-4.069999999999968,-0.584999999999984,0.62,0.39363636363637805,1.483333333333386
16.289000000000016,-1.7000000000000959,-3.964999999999952,-0.5199999999999041,0.62,0.41181818181819707,1.550000000000056
16.309000000000015,-1.830000000000128,-3.879999999999904,-0.429999999999968,0.6135294117646963,0.3520588235293117,1.583235294117652
16.329000000000015,-1.9550000000000143,-3.789999999999943,-0.38999999999994317,0.6017647058823445,0.22852941176461744,1.5891176470588277
16.349000000000014,-1.8849999999999005,-3.6799999999998865,-0.2649999999998721,0.6223529411765067,-0.10941176470602693,1.4129411764704798
16.369000000000014,-1.8500000000001138,-3.42499999999973,-0.19000000000005685,0.669411764705914,-0.2976470588236563,1.2717647058822577
16.389000000000014,-2.1950000000002703,-2.9899999999997156,-0.3700000000001421,0.7254545454545912,-0.4327272727272956,1.137575757575681
16.409000000000017,-2.6050000000004636,-2.6999999999998403,-0.5400000000001599,0.7981818181818804,-0.4690909090909402,1.0163636363635327
16.429000000000016,-3.2550000000004315,-2.399999999999744,-0.665000000000016,0.9133333333334439,-0.2933333333331123,0.9503030303029951
16.449000000000016,-3.3499999999997443,-2.390000000000192,-0.5199999999997762,1.0394117647058734,-0.03176470588222559,0.9108823529411901
16.469000000000015,-2.8399999999993923,-2.5700000000001277,-0.13499999999960033,1.0276470588235203,0.13294117647071726,0.9285294117647197
16.489000000000015,-1.9249999999993321,-2.5749999999998723,0.30000000000019894,0.9149999999997769,0.2181249999999535,0.9531250000000279
16.509000000000015,-1.1199999999995454,-2.31499999999973,0.4800000000000284,0.6829411764704666,0.15117647058818662,0.9538235294117444
16.529000000000014,-0.7850000000000142,-1.7699999999995168,0.41999999999982945,0.5064705882351705,0.08058823529406824,0.9244117647058618
16.549000000000017,-1.0250000000002308,-1.039999999999325,0.13499999999984014,0.36151515151503594,0.023636363636318422,0.8375757575756773
16.569000000000017,-1.2400000000001599,-0.2699999999993925,0.10000000000006395,0.2354545454544879,-0.011515151515117944,0.7260606060604717
16.589000000000016,-1.4400000000001598,0.48500000000055954,0.07999999999993605,0.16272727272721166,0.03090909090912654,0.5563636363634938
16.609000000000016,-1.434999999999824,1.0200000000003198,0.015000000000015987,0.10411764705878543,0.08558823529417005,0.38294117647044534
16.629000000000016,-1.370000000000032,1.3550000000001439,0.06000000000006395,0.05705882352937808,0.15029411764710515,0.20647058823516778
16.649000000000015,-1.449999999999968,1.510000000000128,0.22500000000027182,-0.09470588235301394,0.17852941176468312,-0.033529411764760465
16.669000000000015,-1.159999999999716,1.5950000000000428,0.6300000000002274,-0.18882352941183844,0.14911764705880048,-0.10411764705887884
16.689000000000018,-0.754999999999627,1.589999999999929,0.920000000000142,-0.2690909090909608,0.1130303030302571,-0.1669696969697429
16.709000000000017,-0.3249999999996625,1.489999999999929,0.9599999999999289,-0.3236363636364121,0.06454545454541148,-0.21545454545458853
16.729000000000017,-0.1649999999998881,1.4850000000000159,0.839999999999968,-0.34,0.05,-0.2724242424242927
16.749000000000017,0.005000000000079937,1.6450000000003038,0.955000000000144,-0.3408823529411901,0.0479411764705564,-0.33588235294126745
16.769000000000016,0.11500000000007994,2.0650000000002717,1.0950000000000801,-0.3585294117647197,0.006764705882320671,-0.4535294117647981
16.789000000000016,0.22500000000011192,2.405000000000304,1.12,-0.37875000000002057,-0.11625000000022594,-0.6656250000003183
16.809000000000015,0.4100000000001563,2.74600000000025,1.1680000000000468,-0.3867647058823482,-0.31764705882364375,-0.966176470588421
16.829000000000015,0.5200000000000853,3.0400000000001706,1.1800000000000284,-0.3808823529411723,-0.45882352941186577,-1.195588235294282
16.849000000000014,0.6280000000000405,3.3000000000002023,1.2180000000000404,-0.364545454545441,-0.4903030303030393,-1.4154545454547076
16.869000000000018,0.8020000000002047,3.510000000000085,1.2760000000000171,-0.3548484848485078,-0.4684848484846992,-1.6081818181819043
16.889000000000017,0.9760000000001023,3.6160000000001022,1.1579999999998805,-0.37909090909093063,-0.3109090909089509,-1.6990909090909898
16.909000000000017,1.0480000000000511,3.7200000000000855,1.0239999999998977,-0.45147058823539105,-0.14941176470573952,-1.7108823529411306
16.929000000000016,1.0860000000000172,3.772000000000034,0.9559999999999318,-0.5632352941177451,0.015294117647203342,-1.6579411764705416
16.949000000000016,1.1520000000000312,3.7019999999999533,0.861999999999875,-0.8450000000000772,0.26264705882357037,-1.4264705882352395
16.969000000000015,1.0299999999998437,3.7260000000000155,0.6379999999998124,-0.9450000000000783,0.31558823529415914,-1.3558823529411212
16.989000000000015,0.97,3.6579999999998907,0.4299999999998437,-1.0163636363636503,0.33939393939391604,-1.3227272727273007
17.009000000000018,0.9779999999999659,3.559999999999915,0.24999999999982947,-1.0345454545454706,0.30909090909088216,-1.3590909090909415
17.029000000000018,0.9379999999999659,3.4579999999998807,0.03999999999982948,-1.0060606060605621,0.2278787878786947,-1.446363636363735
17.049000000000017,0.8599999999999147,3.2979999999998806,-0.17800000000013644,-0.9549999999999054,0.12647058823522736,-1.5564705882354166
17.069000000000017,0.6059999999995908,3.167999999999966,-0.3620000000002046,-0.8549999999999148,0.05588235294111635,-1.6858823529412867
17.089000000000016,-0.45400000000117663,3.4600000000004263,-0.5860000000001023,-0.6849999999997536,-0.016250000000061618,-1.7962500000000616
17.109000000000016,-1.1800000000001563,3.619999999999922,-0.4619999999997968,-0.49176470588226723,-0.08235294117651823,-1.774999999999919
17.129000000000016,-1.2420000000000313,3.337999999999734,-0.3780000000000469,-0.3858823529411007,-0.14117647058827737,-1.6749999999999283
17.149000000000015,-1.1759999999998592,2.899999999999531,-0.38799999999996876,-0.32363636363632314,-0.18090909090911791,-1.5054545454544104
17.169000000000015,-0.7339999999995154,2.271999999999484,-0.1719999999997968,-0.2630303030302377,-0.20757575757574823,-1.3175757575755944
17.189000000000018,0.08600000000078445,1.4079999999991983,0.056000000000102315,-0.17818181818174283,-0.1954545454545347,-1.1054545454543572
17.209000000000017,0.8280000000005627,0.6119999999994372,-0.026000000000102323,-0.07852941176460897,-0.17705882352939137,-0.9032352941174787
17.229000000000017,1.3160000000002727,0.115999999999676,-0.07600000000001705,0.033235294117745146,-0.15352941176468524,-0.7091176470586532
17.249000000000017,1.3059999999996759,-0.003999999999897683,-0.07600000000001705,0.21470588235301394,-0.17147058823531688,-0.40264705882341567
17.269000000000016,0.5519999999991715,0.2880000000003595,-0.22800000000020323,0.30882352941183844,-0.20088235294119952,-0.25558823529400243
17.289000000000016,-0.5300000000007816,0.7800000000003127,-0.34400000000006253,0.3975757575758182,-0.24121212121216787,-0.10909090909079713
17.309000000000015,-1.5100000000007816,1.1780000000002815,-0.35199999999995313,0.47636363636369233,-0.3018181818182249,0.03636363636373971
17.32900000000002,-2.272000000000422,1.2419999999998466,-0.2539999999998849,0.516969696969719,-0.3412121212121486,0.16909090909102417
17.349000000000018,-2.4780000000000513,0.995999999999676,-0.1579999999999659,0.5385294117646781,-0.36676470588229176,0.29411764705890137
17.369000000000018,-2.2559999999995908,0.4879999999994543,-0.11999999999991473,0.5091176470587985,-0.30205882352935665,0.3764705882353642
17.389000000000017,-1.637999999999369,-0.21000000000059685,-0.011999999999863571,0.4812499999999794,-0.12437499999968166,0.5087500000001849
17.409000000000017,-0.9059999999994203,-0.8620000000005457,0.10600000000001705,0.49911764705886946,0.12117647058834755,0.7264705882354777
17.429000000000016,-0.37399999999964184,-1.3260000000002727,0.013999999999897678,0.5520588235294583,0.25058823529423124,0.9382352941178329
17.449000000000016,-0.03799999999981242,-1.5520000000001095,-0.02,0.5393939393939193,0.24939393939391932,1.1812121212123272
17.469000000000015,0.06399999999998437,-1.6540000000000625,-0.08800000000012505,0.4921212121211048,0.20212121212110484,1.4066666666667693
17.489000000000015,0.03666666666663509,-1.686666666666635,-0.16999999999995263,0.35272727272717364,0.06272727272717368,1.5400000000000948
17.509000000000018,-0.2266666666671009,-1.519999999999763,0.006666666666804828,0.20264705882339165,-0.05823529411773888,1.6
17.529000000000018,-0.6730000000003442,-1.306999999999837,0.07800000000007248,0.04382352941162532,-0.16411764705891646,1.6
17.549000000000017,-1.0080000000002387,-1.212999999999983,0.2670000000001876,0.08352941176477263,0.09117647058844668,1.4867647058822917
17.569000000000017,-1.2750000000002557,-1.3640000000002046,0.392999999999983,0.15411764705888364,0.31470588235313157,1.4220588235293565
17.589000000000016,-1.4610000000000511,-1.6250000000002558,0.3740000000000341,0.19575757575756597,0.4727272727273021,1.388484848484868
17.609000000000016,-1.5600000000001706,-1.9760000000003068,0.34899999999994885,0.18363636363635327,0.5090909090909402,1.4127272727272935
17.629000000000016,-1.7220000000000875,-2.3940000000003203,0.23499999999992718,0.15878787878785366,0.43939393939384397,1.4496969696970048
17.64900000000002,-1.7119999999999276,-2.776000000000326,0.24100000000005437,0.13,0.319411764705681,1.487941176470549
17.66900000000002,-1.6519999999999275,-3.1640000000003985,0.1609999999998732,0.13,0.10764705882332587,1.4467647058823132
17.689000000000018,-1.7010000000000542,-3.4400000000001816,0.011999999999927527,0.18250000000013822,-0.16125000000034556,1.3456249999998042
17.709000000000017,-1.6649999999999148,-3.5890000000001194,0.07900000000011938,0.3341176470589562,-0.2879411764705219,1.185294117646957
17.729000000000017,-1.6650000000000853,-3.6850000000000853,0.14700000000001706,0.487058823529546,-0.21147058823522702,1.0676470588234261
17.749000000000017,-1.7730000000001536,-3.771000000000051,0.15,0.6181818181819236,-0.05575757575743506,1.0087878787878386
17.769000000000016,-1.871999999999932,-3.8760000000001362,0.14100000000005114,0.7141176470588004,0.08705882352943943,0.9805882352941592
17.789000000000016,-1.8110000000000437,-4.072000000000087,0.12499999999992717,0.6847058823529178,0.12235294117649863,1.033529411764748
17.809000000000015,-1.8270000000000146,-4.2590000000001025,0.003999999999883472,0.6074999999999038,0.12333333333330768,1.110000000000077
17.82900000000002,-1.8350000000000906,-4.281999999999927,-0.11600000000014496,0.4887999999999047,0.09279999999997801,1.187200000000022
17.849000000000018,-2.145000000000272,-4.069999999999819,-0.4400000000003624,0.3879411764705493,0.06941176470587124,1.2058823529410985
17.869000000000018,-2.4830000000003443,-3.838999999999764,-0.7570000000001993,0.3467647058823179,0.05764705882351939,1.1235294117646357
17.889000000000017,-2.934000000000375,-3.4669999999996763,-0.8840000000000341,0.30727272727269794,0.041515151515131944,1.0084848484847067
17.909000000000017,-3.085999999999966,-3.2139999999998636,-0.8889999999999488,0.2709090909090598,0.017272727272706526,0.8327272727271223
17.929000000000016,-2.9419999999997613,-2.9769999999998467,-0.8379999999998976,0.23941176470585868,-0.010588235294141312,0.6482352941174956
17.949000000000016,-2.3679999999994754,-2.8039999999998835,-0.6659999999998252,0.20999999999990804,-0.04000000000002508,0.459999999999766
17.96900000000002,-1.5939999999993115,-2.653999999999855,-0.42699999999983695,0.09363636363632527,-0.06636363636361445,0.16272727272716858
17.98900000000002,-1.0969999999996558,-2.2989999999995834,-0.35599999999996373,0.05121212121208079,-0.04212121212118902,0.04757575757564786
18.009000000000018,-0.7959999999997825,-1.7499999999994564,-0.3850000000000906,0.023939393939382457,-0.008787878787838592,-0.04939393939401404
18.029000000000018,-0.6169999999998369,-1.1809999999995109,-0.4329999999999819,0.011818181818171056,0.03363636363640132,-0.12818181818188817
18.049000000000017,-0.49700000000001704,-0.6919999999995907,-0.2659999999997954,-0.0050000000000156725,0.024999999999984326,-0.19500000000005746
18.069000000000017,-0.8110000000003923,-0.23299999999964188,-0.0289999999997783,-0.030000000000059212,0.009090909090903708,-0.2600000000000592
18.089000000000016,-1.3390909090913212,0.17727272727309193,0.3700000000003488,-0.09666666666672193,0.003030303030298006,-0.32666666666672195
18.109000000000016,-1.6460000000001365,0.5650000000002557,0.9030000000004945,-0.2123529411766031,0.01764705882355781,-0.47176470588253283
18.129000000000016,-1.7350000000000727,0.7460000000001166,1.4030000000002767,-0.2936363636363917,0.022121212121202792,-0.6563636363637624
18.14900000000002,-1.9260000000001343,0.8840000000000575,1.7980000000004028,-0.32999999999998386,0.00999999999992464,-0.8200000000001991
18.16900000000002,-1.668888888888426,0.8977777777777989,2.3566666666673615,-0.3118181818181648,-0.07484848484856434,-1.0442424242426342
18.189000000000018,-1.3354545454543394,0.9290909090909725,2.723636363636459,-0.28515151515147497,-0.15545454545461435,-1.2727272727274965
18.209000000000017,-1.1077777777776163,1.0188888888889898,2.6344444444442225,-0.24272727272723504,-0.22818181818188277,-1.509090909091119
18.229000000000017,-0.9639999999998905,1.2260000000001876,2.5640000000000467,-0.21764705882351393,-0.22529411764702784,-1.6829411764707174
18.249000000000017,-0.8919999999999844,1.5140000000002813,2.6600000000000783,-0.2000000000000209,-0.18999999999975967,-1.83
18.269000000000016,-0.7659999999998749,1.7800000000001563,2.764000000000047,-0.22727272727277034,0.05636363636373326,-1.8099999999998817
18.28900000000002,-0.7419999999999808,2.108000000000307,2.816000000000038,-0.27575757575762455,0.16545454545465527,-1.6766666666665326
18.30900000000002,-0.7119999999999808,2.3540000000002492,2.779999999999904,-0.33529411764712813,0.2435294117647521,-1.5364705882351497
18.32900000000002,-0.7380000000000184,2.650000000000277,2.7820000000000737,-0.4058823529412465,0.29058823529416433,-1.3894117647057365
18.349000000000018,-0.8000000000000924,2.95400000000024,2.8720000000000736,-0.4490909090909435,0.3145454545454718,-1.2921212121211318
18.369000000000018,-0.7659999999999446,3.1360000000001294,2.9019999999999815,-0.47454545454542224,0.3272727272727111,-1.226363636363674
18.389000000000017,-0.6299999999998153,3.236000000000037,2.8039999999998706,-0.43818181818178803,0.30909090909089404,-1.2687878787879139
