time,ax,ay,az,aT
0.0290,0.1430,0.0460,-0.3110,0.345
0.0290,0.1380,-0.0940,-0.6200,0.642
0.0300,0.0660,-0.1400,-0.6860,0.703
0.0330,0.0370,-0.0670,-0.5960,0.601
0.0420,-0.0100,-0.1380,-0.3280,0.356
0.0530,0.0740,-0.2100,-0.0560,0.230
0.0610,0.1290,-0.2910,0.0750,0.327
0.0720,0.0900,-0.3240,0.0970,0.350
0.0820,0.0600,-0.2320,-0.0100,0.240
0.0940,0.0250,-0.0830,-0.2620,0.276
0.1010,-0.0090,-0.0050,-0.4780,0.478
0.1140,-0.0990,0.0410,-0.4950,0.506
0.1230,-0.2420,0.0460,-0.3610,0.437
0.1320,-0.3760,0.1710,-0.0880,0.422
0.1430,-0.4270,0.2220,0.0760,0.487
0.1510,-0.3350,0.1780,0.1900,0.424
0.1620,-0.1200,-0.0740,0.3700,0.396
0.1720,-0.2820,-0.3880,0.3500,0.594
0.1810,-0.1890,-0.2970,0.2650,0.441
0.1910,0.0070,-0.0050,0.1450,0.145
0.2160,-0.0160,0.0710,0.0310,0.079
0.2170,0.0430,-0.0450,-0.0610,0.087
0.2220,0.0990,-0.1960,-0.0690,0.230
0.2320,0.1670,-0.3040,0.0570,0.352
0.2420,0.2640,-0.3480,0.1050,0.449
0.2520,0.3460,-0.3300,-0.0140,0.478
0.2620,0.4680,-0.2300,-0.2470,0.577
0.2720,0.5510,-0.1430,-0.6340,0.852
0.2820,0.5640,-0.1990,-0.9470,1.120
0.2930,0.9810,-0.6540,-1.0750,1.596
0.3020,0.7100,-1.3330,-0.7590,1.690
0.3160,0.3080,-1.2770,-0.0770,1.316
0.3220,0.7690,-0.8430,0.2120,1.161
0.3320,1.3240,-0.8370,-0.6290,1.688
0.3440,1.2700,-1.1290,-1.3200,2.152
0.3520,0.8610,-1.5050,-0.9290,1.967
0.3620,0.6710,-1.4600,0.0750,1.609
0.3740,0.3560,-1.7140,0.8990,1.968
0.3820,0.3070,-1.5050,1.5100,2.154
0.3920,0.4690,-1.4840,1.5960,2.229
0.4030,0.5270,-1.6080,1.3910,2.190
0.4140,0.7040,-1.6970,1.2100,2.200
0.4230,0.9940,-1.6910,0.8580,2.141
0.4320,1.0680,-1.7020,0.5520,2.084
0.4430,1.0780,-1.7170,0.4660,2.080
0.4520,1.2700,-1.5840,0.3850,2.066
0.4620,1.3770,-1.1280,0.1930,1.790
0.4730,0.9540,-0.8280,-0.1960,1.278
0.4820,0.3380,-0.8320,-0.8360,1.227
0.4920,0.2430,-0.7200,-1.2090,1.428
0.5030,0.4950,0.1650,-1.6340,1.715
0.5160,-0.0270,1.5300,-1.9710,2.495
0.5230,-3.5060,3.6720,-1.6650,5.343
0.5320,-7.6260,5.8860,-1.1540,9.702
0.5430,-6.7470,3.2560,-0.0010,7.492
0.5530,-1.9900,1.0700,-0.2840,2.277
0.5620,1.4380,0.6740,-0.0630,1.589
0.5720,1.8620,0.0550,0.9070,2.072
0.5830,1.7800,-1.0340,1.5400,2.571
0.5920,2.3010,-2.0420,2.6440,4.056
0.6020,2.9230,-1.3310,3.1960,4.531
0.6120,1.9350,-0.9430,3.0120,3.702
0.6230,0.4510,-1.7630,2.0360,2.731
0.6310,0.4750,-2.9190,0.9630,3.110
0.6420,1.5600,-2.3500,0.9810,2.986
0.6520,1.7640,-1.5590,1.3800,2.729
0.6620,1.8170,-1.6120,0.2970,2.447
0.6740,2.2410,-1.7870,-1.7490,3.358
0.6830,1.3440,-1.4280,-2.1460,2.907
0.6920,0.9480,-1.1590,-2.6140,3.012
0.7030,1.3670,-1.1960,-2.4530,3.052
0.7150,1.9280,-1.2370,-2.6300,3.488
0.7250,2.1870,-1.8670,-1.8930,3.443
0.7320,2.1020,-2.7220,-0.9760,3.575
0.7430,1.1990,-2.5020,0.3370,2.795
0.7520,0.5860,-2.0460,1.2980,2.493
0.7620,0.3360,-1.7390,1.7180,2.467
0.7730,-0.1010,-1.4090,1.6430,2.167
0.7820,-1.9760,-0.5170,1.0930,2.317
0.7970,-4.5510,0.9370,0.1790,4.650
0.8020,-3.5790,1.0530,-0.5630,3.773
0.8120,-2.5850,0.6220,-1.2810,2.951
0.8230,-1.6340,0.7790,-1.4160,2.298
0.8320,-0.7890,1.1300,-1.5580,2.080
0.8420,0.1160,1.0590,-1.5700,1.897
0.8530,0.3560,0.9710,-1.2840,1.649
0.8620,0.1550,0.4650,-0.8580,0.988
0.8720,0.1770,-0.3740,-0.7000,0.813
0.8820,-0.3260,-0.8890,-1.2850,1.596
0.8930,-0.5680,-0.1160,-2.9610,3.017
0.9020,-1.3590,-0.1400,-4.2650,4.478
0.9130,-1.9870,-0.6190,-4.4370,4.901
0.9220,-1.4970,-0.5170,-3.8360,4.150
0.9320,-0.6120,-0.2190,-2.5960,2.676
0.9430,-0.3040,0.7940,-1.0190,1.327
0.9520,-0.1110,1.4600,0.3620,1.508
0.9620,0.0030,0.7580,0.4880,0.902
0.9720,0.2490,-0.2610,-0.4250,0.557
0.9820,-0.1060,-0.6110,-1.0840,1.249
0.9930,-0.2510,-1.1640,-0.6800,1.371
1.0030,-0.5290,-2.3950,0.2920,2.470
1.0120,-0.7540,-3.3430,0.5540,3.471
1.0230,-1.3670,-3.0960,0.5210,3.424
1.0310,-2.4860,-1.9910,0.8940,3.308
1.0410,-2.1250,-0.8410,0.7870,2.417
1.0530,-1.9340,-0.3410,0.3570,1.996
1.0620,-2.5870,-0.3480,-0.4130,2.643
1.0720,-3.4550,-0.2190,-0.0410,3.462
1.0830,-3.4360,0.4730,-0.8930,3.582
1.0920,-3.1250,1.1580,-1.9210,3.847
1.1130,-3.2370,1.2970,-1.8210,3.934
1.1130,-2.4090,0.8860,-1.3500,2.900
1.1270,-2.8170,0.3410,-0.5250,2.886
1.1320,-1.8010,0.4180,-0.6170,1.949
1.1420,-1.3800,1.5460,-0.9620,2.285
1.1510,-2.1040,2.8640,-1.5800,3.889
1.1630,-1.8600,1.4400,-1.4940,2.787
1.1720,0.5030,-1.9660,0.0190,2.029
1.1820,0.6470,-2.0950,3.5250,4.151
1.1920,0.0260,-0.5200,1.6990,1.777
1.2080,1.0300,0.4510,0.4810,1.223
1.2110,-1.5010,1.3250,0.9490,2.216
1.2240,-0.7860,2.2660,1.0830,2.632
1.2310,0.0870,3.3050,0.6810,3.376
1.2430,0.8870,3.5760,-0.4180,3.708
1.2540,1.5580,3.6010,-0.8390,4.012
1.2630,1.9310,4.3990,-1.4460,5.017
1.2710,2.4280,4.7070,-2.2140,5.740
1.2830,2.4160,4.3770,-2.4560,5.570
1.2930,2.1030,1.6620,-1.9730,3.328
1.3020,0.2870,-0.6800,-0.8270,1.108
1.3110,-2.1850,-1.4770,0.5970,2.704
1.3230,-3.4010,-1.6800,1.5000,4.079
1.3320,-3.3980,-1.5930,1.2830,3.966
1.3420,-2.9480,-1.4210,0.5750,3.323
1.3540,-2.2800,-1.3720,0.4200,2.694
1.3620,-1.2940,-1.3100,0.5200,1.913
1.3710,-0.4410,-0.9040,0.5980,1.170
1.3830,-0.0620,-0.5810,0.6930,0.906
1.3910,0.1250,-1.3840,0.2680,1.415
1.4090,-0.2830,-2.7050,-1.4120,3.064
1.4110,-1.5360,-3.0760,-0.9680,3.572
1.4230,-3.6820,-2.4320,0.5580,4.448
1.4310,-4.6210,-2.4580,1.2730,5.387
1.4430,-4.3510,-2.8380,1.4560,5.395
1.4510,-3.5910,-2.9800,1.4210,4.878
1.4610,-2.3210,-2.9790,1.1470,3.947
1.4710,-0.7460,-2.9920,0.5870,3.139
1.4820,0.3800,-2.8940,0.7370,3.010
1.4920,1.3580,-2.6220,0.5370,3.001
1.5030,1.5380,-2.6750,-0.0390,3.086
1.5110,0.9560,-3.0790,-0.7190,3.303
1.5220,-0.0710,-3.0320,-0.9980,3.193
1.5310,-1.2590,-2.5430,-0.9610,2.996
1.5410,-1.9790,-1.9340,-1.0230,2.950
1.5540,-1.9210,-1.4150,-1.1650,2.655
1.5630,-1.1600,-1.3040,-1.1350,2.082
1.5710,-0.1110,-1.6140,-0.8360,1.821
1.5840,0.8750,-1.5840,-0.7260,1.950
1.5950,1.4090,-1.3390,-0.7740,2.092
1.6070,1.5870,-1.1680,-0.6480,2.074
1.6130,1.5120,-1.0950,-0.6100,1.964
1.6270,1.2100,-1.1650,-0.4330,1.735
1.6430,0.7690,-1.0550,-0.0440,1.306
1.6440,0.2960,-0.6610,0.4560,0.856
1.6530,-0.0570,-0.2150,1.1040,1.126
1.6610,0.4540,0.8140,1.5920,1.845
1.6710,0.6750,1.7620,1.5390,2.435
1.6840,0.0820,2.3540,1.4940,2.789
1.7130,-0.3860,2.6930,1.4940,3.104
1.7150,-0.2760,2.3240,1.4390,2.747
1.7150,-0.0570,1.3320,1.0980,1.727
1.7270,-0.3010,0.2980,0.5760,0.715
1.7490,-0.4440,-0.5980,0.2460,0.784
1.7500,-0.1600,-1.3890,-0.0660,1.400
1.7520,0.8490,-2.2640,-0.4050,2.452
1.7710,2.9130,-3.3120,-0.6500,4.458
1.7720,3.7450,-3.4290,-0.7680,5.135
1.7810,1.7630,-1.6000,-0.6550,2.469
1.7900,-2.1760,-0.9540,-1.0730,2.607
1.8020,-1.2130,-1.2940,-4.0570,4.428
1.8110,2.4570,-2.1060,-9.4180,9.958
1.8210,1.4960,-5.6820,-8.2950,10.165
1.8320,0.7550,-4.3280,-3.3540,5.527
1.8420,-4.1210,0.3030,2.9680,5.088
1.8520,-8.1680,2.0980,6.9080,10.901
1.8600,-8.2070,-0.0670,7.3770,11.035
1.8710,-6.0620,-3.2540,6.4860,9.455
1.8810,-4.1000,-4.7590,4.7620,7.883
1.8920,-3.3520,-4.3600,3.5080,6.523
1.9010,-2.7130,-4.7280,2.9790,6.212
1.9110,-1.4610,-5.9140,3.0730,6.823
1.9210,1.1930,-5.2040,3.6070,6.443
1.9320,3.6790,-4.6650,3.4570,6.874
1.9410,4.6020,-4.8000,3.1300,7.350
1.9520,5.0800,-4.4780,3.6040,7.671
1.9600,4.9940,-2.9970,3.9040,7.012
1.9720,4.1510,0.9360,3.0760,5.251
1.9820,3.6960,2.3300,2.4860,5.027
2.0010,2.4650,2.4210,2.2920,4.146
2.0120,3.2810,2.4360,1.8040,4.467
2.0130,4.7320,0.5580,1.4080,4.968
2.0280,7.2110,0.4090,1.4660,7.370
2.0330,7.7770,2.1270,3.4190,8.758
2.0440,5.2030,3.5910,5.8390,8.606
2.0520,2.5350,4.3930,6.8310,8.508
2.0690,1.1210,3.6590,7.2040,8.157
2.0710,0.5560,2.3840,7.4500,7.842
2.0820,0.2880,0.9300,7.3460,7.410
2.0950,-0.3330,-0.0390,6.7170,6.725
2.1040,-1.3270,-0.2300,5.0230,5.200
2.1110,-2.2090,-0.2750,2.5300,3.370
2.1200,-2.3890,-0.5900,-0.7170,2.563
2.1310,-0.6850,-2.2570,-4.8520,5.395
2.1400,1.0940,-3.1520,-7.1560,7.896
2.1510,1.7180,-2.1020,-7.3090,7.797
2.1640,1.5820,-0.9580,-6.7320,6.981
2.1700,1.2750,0.1760,-6.1320,6.266
2.1810,0.8660,0.6050,-5.7400,5.836
2.1910,0.3970,0.5400,-4.7290,4.776
2.2020,-0.2050,0.7830,-3.9510,4.033
2.2100,-0.3660,0.9290,-3.2350,3.386
2.2210,0.4500,0.5590,-2.8580,2.947
2.2300,1.4590,0.2330,-3.7430,4.024
2.2420,2.3830,1.0970,-2.9790,3.969
2.2530,1.4860,2.2620,-2.1990,3.487
2.2620,-0.1610,3.2360,1.2950,3.489
2.2700,0.5990,3.0030,-0.7660,3.157
2.2800,1.0940,2.1510,-0.2510,2.426
2.2900,1.3050,2.6090,-0.8790,3.047
2.3010,1.5570,2.2650,-1.6650,3.214
2.3100,1.5320,2.4140,-1.3300,3.153
2.3200,1.1370,2.6330,-0.7400,2.962
2.3290,0.6470,2.9110,0.4600,3.017
2.3410,0.6260,4.6600,-6.2730,7.840
2.3500,2.5700,2.0080,-5.5820,6.465
2.3600,4.9700,0.8520,-7.9560,9.419
2.3700,5.6190,0.9910,-7.8050,9.668
2.3800,5.3730,1.3360,-7.8420,9.600
2.3900,4.3750,1.2870,-7.8980,9.120
2.4000,3.5340,0.9140,-7.7070,8.528
2.4100,2.9340,0.3400,-7.0620,7.655
2.4220,2.0110,-0.4880,-6.2210,6.556
2.4310,0.8690,-1.2890,-5.4020,5.621
2.4400,0.9940,-1.7670,-5.0140,5.408
2.4530,1.7000,-2.3870,-4.5790,5.436
2.4600,2.0190,-3.1240,-4.5000,5.838
2.4700,1.9500,-4.1890,-4.7070,6.596
2.4810,1.8830,-5.1540,-5.0770,7.476
2.4900,2.7100,-5.8810,-4.8110,8.067
2.5000,2.7600,-5.9900,-4.0530,7.741
2.5100,3.5020,-6.3770,-2.3680,7.651
2.5200,4.2820,-7.3250,-0.7760,8.520
2.5310,4.1950,-7.8950,-0.3980,8.949
2.5400,3.2940,-7.8420,0.7530,8.539
2.5500,2.2200,-7.4960,2.2290,8.129
2.5630,1.9540,-7.2240,2.6710,7.946
2.5710,2.8580,-7.2820,1.9480,8.062
2.5820,3.9160,-7.3840,0.9980,8.418
2.5900,4.0020,-7.2450,0.5000,8.292
2.6020,3.4330,-6.2680,0.7530,7.186
2.6110,2.8170,-4.8390,1.0390,5.695
2.6200,3.1250,-5.2070,1.0870,6.169
2.6310,3.4290,-5.6210,1.2900,6.710
2.6430,2.8290,-4.9850,1.3920,5.898
2.6520,2.8490,-4.4470,2.3760,5.791
2.6610,3.3450,-4.3560,2.6250,6.087
2.6700,4.0470,-4.2750,2.4210,6.365
2.6810,4.4810,-4.0770,2.0450,6.394
2.6920,4.2670,-3.7750,1.5080,5.893
2.7010,3.7650,-3.2860,1.3910,5.187
2.7110,3.4700,-3.2970,1.2300,4.942
2.7210,3.3300,-3.3460,1.5040,4.954
2.7310,3.3780,-3.2880,2.2240,5.212
2.7400,3.6530,-3.2720,3.2010,5.856
2.7500,3.6580,-3.2650,4.1800,6.443
2.7600,3.7330,-3.1130,5.5140,7.351
2.7700,3.8170,-2.6350,6.8950,8.310
2.7810,4.6190,-1.8800,7.0350,8.623
2.7900,5.3450,-1.8040,7.0520,9.031
2.8010,5.3830,-1.7030,6.9870,8.983
2.8100,4.9930,-1.2100,7.0460,8.720
2.8200,4.7810,-0.7270,7.1250,8.611
2.8300,4.8850,-0.5470,7.0410,8.587
2.8400,4.9810,-0.7200,6.8150,8.472
2.8490,4.8940,-0.8770,6.7160,8.356
2.8590,4.4200,-0.9060,6.6170,8.009
2.8690,3.7990,-0.9130,6.5420,7.620
2.8800,3.4200,-0.9320,6.3220,7.248
2.8900,3.1270,-0.6540,6.0840,6.872
2.9000,3.0360,-0.1850,5.8490,6.593
2.9100,3.0820,-0.0060,5.5840,6.378
2.9200,3.1350,-0.0920,5.2670,6.130
2.9320,3.3210,-0.2340,5.1120,6.101
2.9400,3.6640,-0.2100,5.0380,6.233
2.9500,3.9750,-0.3340,5.0560,6.440
2.9600,3.9370,-0.6000,4.6660,6.134
2.9700,3.5240,-0.4100,4.6740,5.868
2.9800,3.2090,0.3560,5.2160,6.134
2.9890,3.1830,0.8660,5.6110,6.509
3.0000,2.9190,1.1680,6.3330,7.070
3.0110,1.7500,1.9670,7.6700,8.109
3.0220,1.7800,2.5170,8.0930,8.660
3.0310,1.3160,2.3660,8.8040,9.211
3.0400,0.8470,2.3360,9.1330,9.465
3.0500,0.6590,2.5550,9.5940,9.950
3.0600,0.3540,3.4730,10.2720,10.849
3.0700,0.5980,4.3160,11.0530,11.881
3.0790,1.0190,5.2890,11.4000,12.608
3.0900,0.9430,5.8130,11.0090,12.485
3.1000,-0.2960,6.1060,10.7590,12.374
3.1100,-1.9450,6.5630,10.7080,12.709
3.1200,-3.6830,6.6220,10.5850,13.018
3.1290,-5.2910,6.1110,10.3660,13.145
3.1410,-6.0030,5.3700,10.2160,13.009
3.1500,-6.0010,4.9290,10.1000,12.740
3.1600,-5.1320,4.7650,10.1140,12.302
3.1710,-2.8300,4.6550,10.2050,11.568
3.1810,1.0680,4.0140,9.8330,10.674
3.1890,5.5830,3.1030,9.2790,11.265
3.2000,9.7650,2.2350,9.2440,13.631
3.2100,13.7460,1.6610,9.7520,16.936
3.2190,18.2690,0.8430,9.8720,20.783
3.2290,23.5390,-0.0440,9.2950,25.308
3.2390,27.8410,-0.7240,7.5900,28.866
3.2500,31.6320,-1.8570,6.3660,32.320
3.2600,35.8260,-4.1430,6.2530,36.603
3.2700,38.1510,-7.6350,5.8240,39.341
3.2800,39.7630,-13.0600,4.6140,42.106
3.2910,41.3590,-19.3580,2.3960,45.728
3.3000,42.9780,-25.9050,-0.8090,50.188
3.3100,45.2580,-31.9520,-3.9180,55.539
3.3200,47.1090,-37.4110,-6.8620,60.547
3.3300,48.8010,-41.7830,-9.2300,64.904
3.3400,47.3700,-43.9810,-10.7650,65.530
3.3490,42.5930,-43.5160,-10.8230,61.846
3.3590,35.1620,-40.9480,-10.2800,54.943
3.3690,27.8260,-36.2190,-9.0250,46.557
3.3790,24.6430,-30.7730,-7.1140,40.061
3.3890,23.1700,-27.2570,-3.6270,35.958
3.3990,22.0010,-24.5070,1.9980,32.994
3.4100,20.4380,-21.8850,7.3040,30.822
3.4190,17.7390,-19.8560,9.2600,28.190
3.4300,13.4700,-19.2260,8.0230,24.808
3.4390,6.7650,-18.0340,5.3380,19.987
3.4500,-0.5160,-17.5380,0.9850,17.573
3.4600,-8.3800,-18.6370,-5.0960,21.060
3.4700,-17.1240,-20.1040,-11.6240,28.853
3.4800,-22.6840,-20.4990,-14.4930,33.835
3.4890,-25.2990,-19.3670,-13.0910,34.446
3.4990,-23.7660,-18.4010,-10.9630,31.994
3.5100,-19.1830,-19.2850,-9.3690,28.769
3.5190,-16.4190,-20.0400,-7.2060,26.891
3.5290,-15.6920,-20.0520,-4.3950,25.839
3.5390,-16.0170,-19.1980,-2.0330,25.085
3.5490,-16.2040,-18.1200,-0.2390,24.310
3.5600,-16.4320,-17.0220,0.8910,23.676
3.5690,-16.2030,-15.9450,1.1460,22.762
3.5800,-15.0420,-14.8050,0.9000,21.125
3.5890,-13.3400,-13.4510,0.1530,18.945
3.5990,-11.0660,-12.4630,-0.7930,16.686
3.6090,-8.9030,-11.8900,-2.0790,14.999
3.6200,-6.8320,-11.4470,-3.2060,13.711
3.6290,-4.6440,-11.1300,-3.8380,12.656
3.6390,-3.5100,-11.0990,-4.3480,12.426
3.6490,-3.6150,-11.0900,-4.4050,12.468
3.6590,-4.5190,-10.7580,-3.9170,12.308
3.6680,-5.2840,-10.2530,-3.2220,11.976
3.6780,-5.2730,-10.0130,-2.9020,11.683
3.6880,-4.8970,-10.0070,-2.7920,11.485
3.6980,-4.5010,-10.1730,-2.5910,11.422
3.7090,-4.0710,-10.2050,-2.3230,11.230
3.7190,-3.4200,-10.1600,-1.9710,10.900
3.7290,-2.7320,-10.2350,-1.5540,10.707
3.7390,-2.5560,-10.1810,-1.0190,10.546
3.7490,-2.8150,-10.1630,-0.4600,10.556
3.7590,-3.3570,-10.1610,-0.0070,10.701
3.7690,-4.4290,-10.1960,0.2660,11.120
3.7790,-5.5650,-10.0500,0.4140,11.495
3.7890,-6.6600,-9.9440,0.4120,11.975
3.7990,-7.6070,-9.9310,0.0110,12.510
3.8090,-8.1110,-10.0640,-0.6670,12.943
3.8190,-7.8640,-10.2330,-1.3470,12.976
3.8290,-7.5990,-10.0580,-2.2300,12.802
3.8390,-7.3320,-9.9990,-3.2020,12.806
3.8490,-7.2610,-9.8350,-4.1040,12.895
3.8590,-7.4310,-9.7520,-4.7030,13.132
3.8690,-7.8390,-9.8860,-4.8750,13.526
3.8790,-8.2370,-9.8040,-4.5130,13.577
3.8890,-8.1280,-9.7700,-3.9510,13.309
3.8990,-8.0210,-9.8170,-3.1180,13.055
3.9090,-8.1140,-9.3090,-2.1440,12.534
3.9190,-7.7550,-8.1850,-1.0720,11.326
3.9290,-6.6380,-6.6110,-0.3070,9.374
3.9390,-4.3400,-5.5230,-0.3270,7.032
3.9490,-0.9500,-4.9470,-0.3340,5.048
3.9590,2.5670,-2.5460,1.0140,3.755
3.9690,7.8900,1.3090,3.1320,8.589
3.9800,15.3560,2.9070,3.0170,15.917
3.9890,21.6710,2.5640,0.6980,21.833
3.9990,24.8220,0.3550,-2.6930,24.970
4.0090,25.6890,-1.4140,-7.1720,26.709
4.0180,24.3660,-2.9660,-11.7390,27.209
4.0280,22.8490,-2.6930,-14.6490,27.275
4.0390,22.2810,-1.0150,-15.3070,27.051
4.0490,22.3390,-0.8010,-13.8430,26.293
4.0590,21.8590,-2.1630,-10.5480,24.367
4.0690,20.1700,-3.9370,-5.4400,21.258
4.0780,17.5280,-4.2910,-0.1280,18.046
4.0890,15.4510,-3.4110,4.3560,16.412
4.0990,14.2720,-1.8400,6.5350,15.804
4.1090,14.2440,-0.8520,5.4810,15.286
4.1190,14.8410,-1.3610,2.3320,15.085
4.1280,14.2180,-2.4830,-1.4600,14.507
4.1390,12.8400,-3.0710,-4.5680,13.970
4.1480,11.5100,-2.8480,-6.3410,13.446
4.1590,10.1830,-1.8520,-6.8230,12.397
4.1690,8.7900,-0.9380,-6.5550,11.005
4.1780,7.5480,-0.2050,-5.7900,9.515
4.1890,6.4800,0.7380,-4.0690,7.687
4.1990,5.7000,1.4200,-1.8620,6.162
4.2090,5.2100,2.0060,0.1750,5.586
4.2180,4.6100,2.5530,1.7930,5.566
6.6520,3.7880,3.0740,3.1160,5.789
6.6530,2.9430,3.8270,4.1980,6.398
6.6540,2.2950,4.5950,4.9570,7.138
6.6540,1.8880,0.9910,1.4610,2.585
6.6550,0.2820,1.1120,1.4040,1.813
6.6550,-0.9120,1.5050,1.3070,2.192
6.6560,-1.9430,2.1440,0.7910,3.000
6.6560,-2.5730,2.6840,0.2180,3.724
6.6570,-2.8840,3.1350,-0.2600,4.268
6.6580,-3.0060,3.4830,-0.5910,4.639
6.6580,-2.9700,3.5880,-0.7240,4.714
6.6590,-2.7980,3.4590,-0.6930,4.503
6.6660,-2.5770,3.3220,-0.5230,4.237
6.6770,-2.4850,3.2940,-0.1960,4.131
6.6860,-2.5590,3.2340,0.2310,4.130
6.6960,-2.7280,3.0710,0.6200,4.154
6.7070,-2.8480,2.9690,0.9610,4.225
6.7170,-2.8670,2.9780,1.0800,4.273
6.7260,-2.9430,2.9920,0.9080,4.294
6.7370,-2.9150,2.8970,0.6120,4.155
6.7470,-2.7220,2.7010,0.2690,3.844
6.7570,-2.4660,2.3350,-0.0900,3.397
6.7670,-2.2030,1.8780,-0.5280,2.943
6.7770,-1.5530,1.2430,-0.9260,2.194
6.7870,-0.6750,0.6990,-1.3200,1.639
6.7970,0.6570,0.2540,-1.4250,1.590
6.8070,0.2930,-0.2510,-1.5080,1.557
6.8170,-0.2630,-0.6120,-1.7090,1.834
6.8270,-0.6230,-0.8810,-1.9820,2.257
6.8370,-0.8050,-1.1290,-2.2850,2.673
6.8460,-0.5820,-1.7820,-2.6100,3.213
6.8560,-0.4250,-2.6410,-2.9240,3.963
6.8670,-0.7810,-3.1920,-3.0300,4.470
6.8760,-1.3510,-3.4250,-2.7640,4.604
6.8870,-1.7900,-3.4970,-2.2390,4.522
6.8970,-2.0950,-3.4170,-1.5770,4.307
6.9080,-2.2760,-3.3450,-0.8240,4.129
6.9170,-2.4990,-3.1610,0.0340,4.030
6.9280,-2.7370,-2.8290,0.9050,4.039
6.9370,-2.7920,-2.3890,1.7360,4.064
8.4820,-2.6480,-2.0270,2.3740,4.093
8.4840,-2.5630,-1.9400,3.3000,4.607
8.4850,-2.4030,-1.6600,4.1860,5.104
8.4850,-1.9910,-1.0840,4.3540,4.909
8.4860,7.6100,-5.5130,3.7790,10.128
8.4860,5.7080,-3.2070,3.4170,7.385
8.4870,2.6690,-0.5220,2.7480,3.866
8.4870,-1.3670,2.5470,2.7470,3.988
8.4880,-4.2280,5.0560,3.4550,7.442
8.4880,-8.6120,8.8350,4.2590,13.052
8.4890,-13.2300,12.5100,5.8360,19.120
8.4900,-17.5510,15.6100,7.0150,24.514
8.4900,-18.8020,15.8950,7.3980,25.708
8.4940,-16.3500,13.2200,6.2080,21.923
8.5040,-12.2850,9.5800,3.5170,15.971
8.5160,-8.8310,6.6700,0.6460,11.086
8.5240,-6.7510,4.6760,-1.7490,8.396
8.5350,-5.9720,3.2270,-3.4990,7.637
8.5440,-6.3630,2.5510,-4.3170,8.101
8.5540,-7.3580,2.7650,-3.9310,8.789
8.5640,-8.4570,3.3120,-2.4540,9.408
8.5760,-9.2860,3.9760,-0.5380,10.116
8.5840,-9.8280,4.2870,1.0830,10.777
8.5940,-9.7140,3.9390,1.8350,10.642
8.6040,-8.8170,3.3140,1.9770,9.624
8.6150,-7.3500,2.8110,2.0860,8.141
8.6240,-5.9200,2.5680,2.4920,6.917
8.6340,-5.0160,2.5970,3.1830,6.484
8.6450,-4.8980,2.9840,4.0290,7.009
8.6540,-5.4380,3.6540,4.7270,8.079
8.6640,-6.3620,4.2700,4.7960,9.039
8.6740,-7.4440,4.3810,3.9910,9.515
8.6850,-8.2690,4.1430,2.7780,9.657
8.6950,-8.9570,3.9040,1.7810,9.932
8.7040,-9.5880,3.8300,1.2330,10.398
8.7140,-10.2100,3.9390,0.9840,10.988
8.7240,-10.7390,4.0700,0.7160,11.507
8.7350,-11.0460,4.0790,0.2920,11.779
8.7440,-11.0650,4.0750,-0.1960,11.793
8.7550,-10.8360,4.1220,-0.6790,11.613
8.7640,-10.7460,4.5700,-0.9380,11.715
8.7750,-10.8400,5.3330,-0.8770,12.113
8.7840,-11.2080,6.3730,-0.5060,12.903
8.7940,-11.6520,7.4230,0.1530,13.816
8.8040,-11.9230,8.5790,1.0590,14.727
8.8140,-11.1730,9.2980,2.0600,14.681
8.8240,-9.7760,8.9640,1.9260,13.403
8.8340,-7.6580,7.9440,0.7200,11.058
8.8440,-5.4510,6.2300,-0.9940,8.338
8.8540,-3.6460,3.7130,-3.0950,6.055
8.8640,-2.9090,1.2880,-4.8520,5.802
8.8740,-2.6850,-0.0760,-5.0640,5.732
8.8840,-1.2230,-1.5920,-4.2240,4.677
8.8940,2.5280,-5.3920,-3.9670,7.156
8.9040,7.2840,-10.0880,-4.6450,13.282
8.9150,12.2740,-13.7300,-4.7120,19.010
8.9240,15.8110,-16.2120,-4.0380,23.003
8.9350,17.1590,-17.8900,-2.7230,24.938
8.9440,17.0260,-20.1030,-2.0660,26.425
8.9550,15.4580,-20.4500,-2.0310,25.715
8.9640,11.4720,-17.7160,-0.9470,21.127
8.9750,6.7340,-13.6820,1.5250,15.325
8.9840,3.4880,-10.1660,4.5100,11.656
8.9950,3.4790,-6.5310,10.9790,13.240
9.0040,7.2920,-4.6510,14.1750,16.605
9.0140,12.6650,-5.7490,10.6820,17.537
9.0240,16.0400,-7.3660,5.2720,18.421
9.0350,15.8350,-8.0870,3.7410,18.170
9.0440,13.0150,-8.2420,3.8200,15.872
9.0550,9.7360,-7.5710,3.6160,12.852
9.0640,7.9480,-5.9920,3.2890,10.483
9.0750,7.2000,-4.2990,2.7410,8.822
9.0840,6.7930,-3.2810,1.0890,7.622
9.0950,6.3680,-2.3790,-0.7590,6.840
9.1040,5.5170,-1.2260,-2.1800,6.057
9.1140,4.1440,0.0280,-3.1430,5.201
9.1230,2.5680,1.1770,-3.6710,4.632
9.1340,1.1640,1.8970,-4.0580,4.628
9.1440,0.0750,2.3270,-4.3420,4.927
9.1540,-0.6540,2.5940,-4.4890,5.226
9.1650,-1.2130,2.9240,-4.4870,5.491
9.1740,-1.7400,3.2130,-4.3680,5.695
9.1840,-2.2880,3.4810,-4.2230,5.932
9.1940,-2.8420,3.6990,-4.0690,6.190
9.2040,-3.3460,3.8610,-3.9260,6.443
9.2130,-3.7350,3.9770,-3.7050,6.595
9.2240,-3.9220,3.8860,-3.2810,6.422
9.2330,-4.0090,3.8970,-2.6870,6.203
9.2440,-3.9670,3.8510,-2.0120,5.883
9.2540,-3.8530,3.6370,-1.4830,5.502
9.2640,-3.7070,3.1370,-1.1310,4.986
9.2750,-3.3090,2.4750,-0.9440,4.239
9.2840,-2.4930,1.8490,-0.8300,3.213
9.2940,-1.7360,1.3870,-0.7450,2.344
9.3030,-1.2190,0.8090,-0.6960,1.620
9.3140,-0.8250,0.0150,-0.7190,1.094
9.3240,-0.5000,-0.9910,-0.8660,1.408
9.3340,-0.2910,-2.1120,-1.0880,2.394
9.3440,-0.3880,-3.4870,-1.2910,3.739
9.3540,-0.6440,-4.7130,-1.3550,4.946
9.3640,-1.0250,-5.1420,-0.9720,5.333
9.3750,-1.6300,-4.8960,-0.2790,5.168
9.3840,-2.0690,-4.3850,0.5150,4.876
9.3940,-2.2000,-4.0020,1.2120,4.725
9.4040,-2.0540,-3.7890,1.7030,4.634
9.4140,-1.6060,-3.6500,1.9370,4.433
9.4250,-1.0600,-3.5490,2.0410,4.229
9.4340,-0.7050,-3.3470,2.0960,4.012
9.4440,-0.7000,-3.1740,2.2410,3.948
9.4540,-0.9840,-2.7900,2.2580,3.722
9.4640,-1.3390,-2.2840,1.9350,3.279
9.4730,-1.6650,-2.1910,1.4360,3.104
9.4840,-1.9600,-2.2800,0.6790,3.082
9.4940,-2.2640,-2.5380,-0.1990,3.407
9.5030,-2.7210,-2.8350,-0.9090,4.033
9.5130,-3.2340,-3.0510,-1.3360,4.642
9.5230,-3.7720,-3.0150,-1.5990,5.087
9.5340,-4.3860,-2.7270,-1.6780,5.430
9.5440,-4.8970,-2.4170,-1.6810,5.714
9.5540,-5.1490,-2.1660,-1.6590,5.827
9.5630,-5.0560,-2.1070,-1.8060,5.768
9.5740,-4.6530,-2.2660,-2.0000,5.548
9.5830,-3.7640,-2.4420,-2.0940,4.951
9.5960,-2.4680,-3.2350,-2.2550,4.652
9.6050,-1.2910,-4.3450,-2.3970,5.128
9.6130,-0.5760,-5.0470,-2.2910,5.572
9.6230,-0.4230,-4.9410,-1.7700,5.265
9.6360,-0.6040,-4.0830,-1.0020,4.247
9.6430,-0.7380,-3.1430,-0.3510,3.248
9.6540,-0.3420,-2.3310,0.0980,2.358
9.6630,0.5970,-1.7650,0.3320,1.893
9.6750,1.8700,-1.3050,0.4800,2.330
9.6850,3.0570,-1.1840,0.7460,3.362
9.6940,3.7020,-0.6210,1.3900,4.003
9.7030,3.8680,0.4600,2.0490,4.401
9.7160,3.5720,1.5060,2.6320,4.686
9.7240,2.9350,2.3190,3.0990,4.858
9.7360,2.2020,2.9680,3.3770,5.006
9.7450,1.4930,3.4160,3.5120,5.122
9.7550,0.9540,3.6390,3.6120,5.215
9.7630,0.6220,3.6570,3.7310,5.261
9.7730,0.5000,3.5730,3.8460,5.273
9.7840,0.4280,3.3660,3.9120,5.179
9.7930,0.5220,3.0210,3.8880,4.951
9.8030,0.8070,2.6030,3.9180,4.773
9.8140,1.0610,2.2030,3.9520,4.647
9.8240,1.2910,1.9300,4.0270,4.648
9.8340,1.5960,1.7280,4.1500,4.770
9.8440,1.8980,1.4940,4.2050,4.849
9.8540,2.2430,1.2590,4.1990,4.924
9.8900,2.5840,1.0250,4.0980,4.952
9.8930,2.9810,0.7750,3.9160,4.982
9.8960,3.3850,0.5020,3.7720,5.093
9.8980,3.6860,0.2450,3.6150,5.169
9.9030,3.9060,0.0850,3.5070,5.250
9.9140,4.0570,0.0780,3.4700,5.339
9.9230,4.1350,0.1340,3.5160,5.429
9.9340,4.0060,0.1920,3.5100,5.330
9.9430,3.7020,0.2480,3.3980,5.031
9.9540,3.2340,0.3230,3.1860,4.551
9.9640,2.6380,0.4250,2.8400,3.899
9.9730,1.9810,0.6150,2.5150,3.260
9.9830,1.3840,0.7960,2.2010,2.719
9.9940,0.8600,0.8920,1.8390,2.217
10.0040,0.4480,0.9210,1.5000,1.816
10.0140,0.1260,0.9000,1.2300,1.529
10.0250,-0.1190,0.8660,1.0100,1.336
10.0350,-0.3260,0.7940,0.8620,1.216
10.0430,-0.5050,0.7210,0.8070,1.194
10.0540,-0.7400,0.6600,0.8980,1.338
10.0630,-0.9040,0.6380,1.0540,1.528
10.0750,-0.9090,0.6050,1.3270,1.718
10.0850,-0.8140,0.5090,1.5440,1.818
10.0940,-0.6300,0.4120,1.7380,1.894
10.1050,-0.3220,0.2710,1.9110,1.957
10.1150,-0.0210,0.1130,2.0580,2.061
10.1240,0.2330,0.0140,2.1420,2.155
10.1330,0.5100,-0.0570,2.1290,2.190
10.1440,0.6920,-0.1240,2.0490,2.166
10.1530,0.9100,-0.2010,1.9370,2.150
10.1640,1.1520,-0.2750,1.8690,2.213
10.1740,1.3220,-0.3610,1.7530,2.225
10.1840,1.4640,-0.3750,1.6380,2.229
10.1930,1.5230,-0.3070,1.4650,2.135
10.2050,1.4540,-0.2410,1.2370,1.924
10.2130,1.3710,-0.2340,0.9460,1.682
10.2240,1.3250,-0.1940,0.6460,1.487
10.2360,1.2740,-0.1450,0.3070,1.318
10.2430,1.2100,-0.1120,-0.0320,1.216
10.2530,1.0850,-0.1040,-0.3320,1.139
10.2650,0.9080,-0.0840,-0.5720,1.076
10.2740,0.6680,0.0520,-0.7380,0.997
10.2840,0.3960,0.1800,-0.8180,0.926
10.2940,0.1100,0.1470,-0.8600,0.879
10.3050,-0.1040,0.1310,-0.8310,0.848
10.3160,-0.3000,0.2540,-0.7350,0.834
10.3220,-0.4810,0.3580,-0.5970,0.846
10.3360,-0.6220,0.3190,-0.4620,0.838
10.3450,-0.7030,0.0970,-0.4210,0.825
10.3530,-0.6800,-0.0660,-0.4300,0.807
10.3640,-0.5760,-0.0080,-0.4660,0.741
10.3750,-0.4780,0.0780,-0.5440,0.728
10.3830,-0.3660,0.0910,-0.6090,0.716
10.3940,-0.2770,0.0660,-0.6020,0.666
10.4100,-0.2400,0.0210,-0.5000,0.555
10.4140,-0.2620,-0.0370,-0.3610,0.448
10.4240,-0.3040,-0.1080,-0.1770,0.368
10.4330,-0.2620,0.0170,0.0680,0.271
10.4430,-0.1650,0.1480,0.3220,0.391
10.4530,0.0190,0.0750,0.4720,0.478
10.4650,0.3300,-0.0960,0.5170,0.621
10.4740,0.6280,-0.2090,0.5680,0.872
10.4840,0.8230,-0.1540,0.6460,1.058
10.4950,0.9200,-0.0720,0.7200,1.170
10.5040,0.9700,-0.0430,0.8530,1.292
10.5150,0.9940,0.0450,1.0580,1.452
10.5230,0.9400,0.2290,1.2360,1.570
10.5330,0.8340,0.4770,1.3390,1.648
10.5430,0.7400,0.6370,1.3310,1.651
10.5530,0.7640,0.5750,1.0990,1.457
10.5630,1.1730,-0.0560,0.4980,1.276
10.5750,1.8630,-1.3480,-0.4370,2.341
10.5840,2.6740,-2.7360,-1.4640,4.096
10.5950,3.1790,-3.8410,-2.1970,5.448
10.6030,2.9270,-3.9960,-2.4180,5.512
10.6140,1.7830,-3.1420,-1.7800,4.027
10.6230,0.4360,-2.1290,-0.5830,2.250
10.6340,-0.5580,-1.3450,0.3990,1.510
10.6440,-1.1660,-0.7400,1.0120,1.712
10.6530,-1.5040,-0.2660,1.4150,2.082
10.6640,-1.4920,-0.0330,1.6360,2.214
10.6720,-1.2490,0.0520,1.7180,2.125
10.6820,-0.9740,0.0950,1.7600,2.014
10.6950,-0.7230,0.1970,1.8110,1.960
10.7020,-0.5070,0.4320,1.8730,1.988
10.7140,-0.1970,0.6160,1.9130,2.019
10.7220,0.1580,0.7170,1.8280,1.970
10.7340,0.5560,0.7850,1.6300,1.893
10.7420,0.8870,0.6720,1.2950,1.707
10.7520,1.1570,0.3140,0.7420,1.410
10.7630,1.2700,-0.0350,0.1140,1.276
10.7730,1.1620,-0.3440,-0.4860,1.306
10.7840,0.7570,-0.4840,-0.9990,1.344
10.7920,0.0920,-0.4850,-1.4510,1.533
10.8020,-0.5880,-0.3400,-1.8160,1.939
10.8140,-1.1790,-0.1390,-2.1090,2.420
10.8220,-1.6540,0.0150,-2.4210,2.932
10.8320,-1.9770,0.0910,-2.6790,3.331
10.8430,-2.1780,0.1880,-2.8390,3.583
10.8520,-2.2410,0.2750,-2.8310,3.621
10.8650,-2.1680,0.3310,-2.6840,3.466
10.8750,-1.9850,0.3880,-2.3580,3.107
10.8820,-1.7930,0.3720,-1.9160,2.650
10.8940,-1.6650,0.2980,-1.3840,2.186
10.9020,-1.6690,0.2290,-0.9360,1.927
10.9140,-1.6910,0.2050,-0.4910,1.773
10.9220,-1.8440,0.1680,-0.0830,1.853
10.9330,-2.0310,0.0770,0.2510,2.048
10.9420,-2.2220,0.0000,0.5280,2.284
10.9530,-2.2780,-0.0500,0.7790,2.408
10.9630,-2.1120,-0.0590,1.0070,2.341
10.9750,-1.7740,-0.0500,1.1250,2.101
10.9820,-1.2940,-0.0720,1.1980,1.765
10.9950,-0.6880,-0.0700,1.2070,1.391
11.0030,-0.1680,-0.0260,1.1690,1.181
11.0140,0.1450,0.0720,1.1320,1.144
11.0220,0.3730,0.1370,1.0770,1.148
11.0320,0.5820,0.1330,0.9650,1.135
11.0420,0.7040,0.0660,0.7870,1.058
11.0540,0.7760,-0.0850,0.5160,0.936
11.0620,0.6960,-0.2010,0.1710,0.744
11.0720,0.4930,-0.2690,-0.1560,0.583
11.0820,0.3510,-0.3170,-0.4720,0.668
11.0940,0.3010,-0.3650,-0.7230,0.864
11.1020,0.3760,-0.5720,-0.8890,1.122
11.1130,0.6690,-0.8660,-0.8610,1.392
11.1220,0.8340,-1.0690,-0.6940,1.523
11.1330,0.7180,-0.9990,-0.4380,1.306
11.1430,0.3750,-0.6660,-0.1680,0.783
11.1520,-0.0300,-0.2560,0.0740,0.268
11.1620,-0.4630,0.0990,0.0140,0.474
11.1730,-0.8410,0.3330,-0.2760,0.946
11.1840,-1.2260,0.4690,-0.6470,1.463
11.1950,-1.5890,0.6420,-0.8400,1.909
11.2020,-1.9740,0.8020,-0.8340,2.288
11.2120,-2.2800,0.9140,-0.6290,2.536
11.2220,-2.4270,1.0520,-0.2360,2.656
11.2320,-2.4430,1.2610,0.1250,2.752
11.2420,-2.5430,1.5720,0.5010,3.031
11.2520,-2.7360,2.0560,0.8910,3.536
11.2620,-3.0050,2.7440,1.2590,4.260
11.2730,-3.4740,3.7220,1.4110,5.283
11.2810,-4.0190,4.6950,1.6280,6.391
11.2920,-4.5740,5.5030,1.5700,7.326
11.3020,-5.2140,5.8450,1.1500,7.917
11.3120,-5.9000,5.5530,0.5810,8.123
11.3220,-6.3910,4.9000,-0.2410,8.057
11.3340,-6.8080,4.3380,-0.8750,8.120
11.3420,-7.2360,4.0070,-1.0610,8.339
11.3540,-7.5940,3.6330,-0.9220,8.469
11.3630,-7.4790,3.1290,-0.5910,8.129
11.3720,-7.2530,2.8780,-0.2420,7.807
11.3820,-5.9930,2.3940,0.1410,6.455
11.3930,-4.1020,1.0730,0.0680,4.241
11.4030,-2.3950,-0.9280,-0.5080,2.618
11.4130,-1.8750,-2.9750,-1.9830,4.037
11.4220,-1.5420,-4.3060,-2.9860,5.462
11.4330,0.1980,-5.9590,-2.3990,6.427
11.4420,2.3200,-7.0920,-1.9700,7.717
11.4520,6.2980,-9.0070,-0.5170,11.003
11.4630,10.7380,-10.4980,1.1710,15.063
11.4720,14.1630,-11.0540,1.8200,18.058
11.4820,16.8760,-11.0650,1.5830,20.242
11.4940,19.1390,-11.1290,1.5420,22.193
11.5040,20.2530,-11.5110,2.1180,23.392
11.5140,20.1060,-12.0150,2.4770,23.553
11.5280,19.4520,-12.7970,1.6590,23.343
11.5330,18.9580,-13.8390,-0.3940,23.475
11.5420,18.2840,-14.3840,-2.8430,23.437
11.5550,17.5700,-14.8120,-4.9760,23.513
11.5620,16.4960,-15.0130,-5.7200,23.027
11.5760,15.2570,-15.1630,-4.7990,22.039
11.5820,13.1020,-15.3040,-2.9300,20.358
11.5920,9.9920,-14.7320,-0.6010,17.811
11.6020,6.5670,-13.4880,1.8910,15.120
11.6140,3.7640,-11.8670,4.1230,13.115
11.6230,2.3600,-10.0080,5.6450,11.730
11.6330,2.5490,-8.1820,6.2410,10.602
11.6440,3.4170,-6.4260,5.9090,9.375
11.6550,4.2250,-4.8880,5.1430,8.258
11.6630,4.5690,-3.0420,4.4560,7.070
11.6720,2.7020,-0.3300,3.8890,4.747
11.6820,-0.4290,3.4270,4.0970,5.359
11.6930,-4.3430,8.2750,5.0510,10.623
11.7040,-8.8640,13.4630,6.4390,17.358
11.7140,-12.9940,17.1550,7.3660,22.746
11.7230,-15.3200,17.6650,6.9670,24.399
11.7320,-14.0670,14.1350,4.6010,20.466
11.7420,-10.4650,9.4160,0.9250,14.108
11.7540,-7.6270,6.0190,-2.3990,10.008
11.7630,-5.9090,3.9820,-4.2090,8.276
11.7730,-5.2750,3.3220,-4.2950,7.570
11.7830,-5.0320,3.5450,-2.8560,6.786
11.7920,-5.1910,3.8240,-0.6080,6.476
11.8020,-5.8750,3.7840,1.4270,7.132
11.8130,-6.6300,3.2770,3.1380,8.034
11.8240,-7.3710,2.5850,4.5800,9.055
11.8320,-7.7160,2.0010,5.8320,9.877
11.8430,-7.8400,1.9750,6.8630,10.605
11.8560,-7.9770,2.4200,7.3020,11.082
11.8620,-7.9610,2.8600,7.1270,11.061
11.8740,-8.0940,3.3190,6.5010,10.899
11.8810,-8.4300,3.8480,5.7410,10.901
11.8920,-8.8910,4.4280,4.9320,11.090
11.9040,-9.3190,4.9010,3.9730,11.254
11.9140,-9.7130,5.1690,2.9070,11.380
11.9220,-9.8390,5.0510,2.0200,11.243
11.9340,-9.8300,4.8280,1.5720,11.064
11.9440,-9.8200,4.7870,1.4790,11.024
11.9520,-9.6030,4.9220,1.4850,10.893
11.9640,-9.2820,5.0100,1.3710,10.637
11.9740,-8.9950,5.0000,0.9730,10.337
11.9820,-8.6680,4.9100,0.3330,9.968
11.9910,-8.3210,4.8310,-0.1920,9.624
12.0020,-8.0630,5.0560,-0.4470,9.528
12.0120,-7.9330,5.5560,-0.4000,9.693
12.0240,-7.8400,6.0870,-0.1380,9.927
12.0310,-7.6820,6.5000,0.1220,10.064
12.0420,-7.5470,6.7160,0.3070,10.107
12.0520,-7.4900,6.7430,0.4800,10.090
12.0620,-7.6650,6.7170,0.7520,10.219
12.0740,-7.8890,6.5250,0.9780,10.284
12.0830,-7.8380,6.0890,1.2350,10.002
12.0930,-7.5720,5.4110,1.4090,9.413
12.1030,-7.1720,4.7470,1.5220,8.734
12.1110,-6.7520,3.8830,1.6090,7.953
12.1240,-6.0030,2.4630,1.5750,6.677
12.1320,-3.7580,-1.4010,1.0590,4.148
12.1420,0.2230,-7.3860,-0.8020,7.433
12.1560,6.1700,-14.0980,-3.7020,15.828
12.1630,13.3040,-19.0240,-6.4130,24.084
12.1720,18.5920,-18.6160,-6.0270,26.992
12.1810,20.5660,-16.9500,-3.0140,26.821
12.1930,22.2570,-18.6550,-2.2430,29.128
12.2030,22.9080,-19.4030,-3.9980,30.286
12.2120,19.8250,-17.4040,-4.1150,26.699
12.2230,13.4880,-13.7170,-1.8560,19.327
12.2310,8.1550,-11.3960,0.3380,14.017
12.2440,5.1750,-10.3550,1.9080,11.732
12.2540,4.5580,-9.8100,3.0750,11.246
12.2620,5.4280,-8.7820,3.8680,11.025
12.2710,7.2670,-7.1730,4.8910,11.322
12.2830,8.9120,-5.6730,5.0570,11.712
12.2920,9.5770,-4.8860,3.6930,11.368
12.3040,8.8870,-4.5770,2.0080,10.196
12.3140,7.1730,-3.8630,1.1370,8.226
12.3260,5.3080,-2.5140,1.2660,6.008
12.3310,3.6200,-1.0480,1.4420,4.035
12.3450,2.1030,0.4690,1.3070,2.520
12.3530,0.3710,1.5660,0.7590,1.779
12.3630,-1.1620,2.4480,0.0750,2.711
12.3730,-2.3170,3.0980,-0.5800,3.912
12.3810,-3.0570,3.5260,-1.1830,4.814
12.3910,-3.4760,3.8000,-1.9000,5.489
12.4040,-3.5790,4.1040,-2.5890,6.030
12.4110,-3.3860,4.2090,-3.2690,6.314
12.4210,-3.1950,4.1850,-3.6120,6.385
12.4330,-3.0870,4.0280,-3.7130,6.288
12.4410,-3.0710,3.9750,-3.3700,6.049
12.4520,-3.0900,4.0070,-2.7070,5.739
12.4610,-3.1290,3.9510,-2.0850,5.454
12.4720,-3.0300,3.8210,-1.5070,5.104
12.4820,-2.5810,3.5990,-0.9500,4.530
12.4940,-2.0700,3.2680,-0.5940,3.914
12.5040,-1.5620,2.6950,-0.5290,3.160
12.5110,-1.0000,1.9910,-0.7780,2.360
12.5230,-0.3750,1.0390,-1.2320,1.655
12.5350,0.4330,0.0000,-1.8270,1.878
12.5410,1.3420,-0.9820,-2.5000,3.003
12.5530,2.1040,-1.8910,-3.0060,4.128
12.5610,2.5630,-2.7010,-3.2380,4.934
12.5710,2.6730,-3.2120,-2.8940,5.083
12.5820,2.1030,-3.1770,-1.9280,4.270
12.5950,1.2220,-2.9770,-0.4970,3.256
12.6030,0.1900,-2.6710,0.8020,2.795
12.6130,-0.7740,-2.3180,1.8120,3.042
12.6230,-1.4650,-2.0650,2.6670,3.677
12.6320,-1.7270,-1.7180,3.5630,4.316
12.6430,-2.0350,-1.2210,4.1890,4.815
12.6510,-2.3390,-0.7530,4.5200,5.145
12.6620,-2.5800,-0.4000,4.4780,5.184
12.6730,-2.6220,-0.0350,4.3070,5.042
12.6820,-2.4090,0.2900,3.8300,4.534
12.6920,-2.0660,0.0560,2.9690,3.618
12.7030,-1.6030,-0.3880,1.8190,2.455
12.7130,-1.4060,-0.8290,0.8230,1.828
12.7210,-1.4600,-1.0010,0.1590,1.777
12.7320,-1.6460,-0.9970,-0.1500,1.930
12.7410,-1.7320,-0.9010,-0.2350,1.966
12.7520,-1.6930,-0.8270,-0.2370,1.899
12.7610,-1.6370,-0.7280,-0.2940,1.816
12.7750,-1.4530,-0.5210,-0.3480,1.582
12.7830,-1.0650,-0.3210,-0.3280,1.160
12.7910,-0.5740,-0.2070,-0.3110,0.685
12.8010,0.0200,-0.1220,-0.2790,0.305
12.8110,0.6350,-0.1220,-0.2250,0.685
12.8230,1.0300,-0.1450,-0.1660,1.053
12.8320,1.1920,-0.1360,0.0170,1.200
12.8420,1.2350,-0.2980,0.2030,1.287
14.5900,1.1680,-0.3300,0.3380,1.260
14.5920,0.9210,-0.2120,0.5670,1.102
14.5920,0.5440,-0.0640,0.7660,0.942
14.5940,17.4560,-9.5410,10.6640,22.571
14.5960,15.8830,-5.6110,12.3240,20.872
14.5970,11.9880,-1.4510,12.6740,17.506
14.5990,6.8360,2.6190,12.3520,14.358
14.6010,0.2290,6.2930,12.1300,13.667
14.6020,-7.5460,11.3200,11.8540,18.044
14.6040,-15.8420,17.3200,12.4350,26.563
14.6060,-21.5860,21.0810,13.3260,32.984
14.6090,-20.6540,18.4840,12.0700,30.231
14.6110,-15.9530,13.8730,7.3030,22.367
14.6130,-11.1690,10.2560,1.9310,15.286
14.6140,-6.6880,6.8790,-3.3650,10.167
14.6190,-2.8710,2.8300,-8.1260,9.071
14.6290,-1.1730,-0.1420,-10.7360,10.801
14.6390,-2.4630,-0.0630,-11.1280,11.397
14.6510,-5.9610,2.0250,-8.4180,10.512
14.6590,-9.0900,3.8210,-4.9310,11.025
14.6710,-10.5550,4.6970,-1.8800,11.705
14.6790,-9.8680,4.8960,0.9980,11.061
14.6900,-8.2060,4.5880,2.3210,9.684
14.6990,-6.0180,3.8720,4.0230,8.209
14.7100,-5.0930,4.1440,5.4570,8.538
14.7190,-5.4420,4.8190,6.1300,9.509
14.7290,-6.2890,5.5340,6.4840,10.593
14.7390,-7.4610,6.2000,6.2940,11.564
14.7510,-8.3340,6.5530,5.6620,12.019
14.7590,-8.7010,6.5630,4.5570,11.813
14.7710,-8.6630,6.2320,3.1280,11.121
14.7820,-8.4470,5.6820,1.5960,10.305
14.7900,-8.3130,5.1770,0.2320,9.796
14.7990,-8.2880,4.8590,-0.8830,9.648
14.8090,-8.3220,4.7100,-1.6210,9.699
14.8190,-8.3190,4.6820,-2.0000,9.753
14.8290,-8.2250,4.7670,-2.0650,9.728
14.8420,-7.8240,5.1100,-1.7740,9.512
14.8490,-7.3590,5.7330,-1.2280,9.409
14.8600,-7.2520,6.5620,-0.6870,9.804
14.8690,-7.7100,7.4950,-0.1750,10.754
14.8800,-8.4900,8.5060,0.3100,12.022
14.8900,-9.0990,9.3760,0.8090,13.090
14.8990,-9.4590,10.0530,1.3070,13.865
14.9110,-9.8110,10.5780,1.6870,14.526
14.9220,-10.1360,10.7920,1.8760,14.924
14.9290,-10.1620,10.2770,1.7220,14.555
14.9390,-9.4140,9.2220,1.3160,13.244
14.9500,-8.5790,7.7790,0.7500,11.605
14.9590,-8.2880,6.1290,0.0850,10.308
14.9690,-8.3390,4.7470,0.0420,9.596
14.9800,-7.8160,3.4760,0.9180,8.603
14.9910,-5.8070,1.1910,2.0710,6.279
14.9990,-2.3260,-2.9540,2.3810,4.450
15.0090,2.7790,-9.1870,1.4670,9.710
15.0190,10.8150,-15.6580,-0.1440,19.030
15.0290,19.5030,-19.2530,-1.2810,27.435
15.0430,23.8870,-19.0360,-0.6040,30.550
15.0510,23.3230,-17.5400,1.2190,29.208
15.0590,18.7730,-14.4840,1.9810,23.794
15.0710,13.9730,-11.8830,1.5350,18.407
15.0810,9.8100,-10.9600,0.2080,14.711
15.0910,6.9340,-10.2750,-1.0680,12.442
15.1010,5.6390,-9.9670,-1.8480,11.600
15.1110,5.4790,-10.1050,-2.3110,11.725
15.1190,6.3760,-10.2550,-2.7260,12.379
15.1290,7.8830,-9.9790,-3.3880,13.161
15.1410,9.5250,-9.5240,-4.1200,14.086
15.1500,10.4080,-9.0710,-4.7520,14.601
15.1590,10.3480,-8.5310,-4.9780,14.305
15.1700,9.4060,-7.6160,-4.6530,12.966
15.1790,7.7800,-6.5100,-3.7180,10.804
15.1900,6.1300,-5.6800,-2.7890,8.810
15.2000,4.6830,-5.2450,-2.3060,7.400
15.2090,3.5940,-4.9640,-1.9010,6.417
15.2200,2.8310,-4.3690,-1.1830,5.339
15.2290,2.4720,-3.6790,-0.4230,4.452
15.2400,2.6510,-3.1070,0.2120,4.090
15.2490,3.2710,-2.7250,0.6660,4.309
15.2580,4.0620,-2.4530,0.9300,4.835
15.2680,4.6560,-1.9440,1.1340,5.171
15.2790,4.9660,-1.4620,1.5570,5.406
15.2910,4.7630,-0.9920,1.7910,5.184
15.3020,4.1040,-0.4590,1.8880,4.541
15.4550,3.1840,-0.0340,1.8820,3.699
15.4560,2.0500,0.1960,1.6300,2.626
15.4570,0.7150,0.3680,1.1500,1.403
15.4590,-0.4530,0.6100,0.6580,1.005
15.4600,-1.4820,0.8340,0.2040,1.713
15.4620,-2.4290,1.0180,-0.2100,2.642
15.4630,-3.1860,1.2950,-0.5680,3.486
15.4650,-3.8850,1.5390,-0.8190,4.258
15.4670,-4.4500,1.8480,-0.9200,4.906
15.4690,-4.8620,2.1740,-0.8790,5.398
15.4710,-5.1440,2.4510,-0.8020,5.754
15.4720,-5.1740,2.5640,-0.6690,5.813
15.4740,-4.9500,2.5640,-0.4980,5.597
15.4750,-4.4730,2.5380,-0.2770,5.150
15.4770,-3.8140,2.5440,-0.0910,4.586
15.4800,-3.0720,2.6130,0.1020,4.034
15.4820,-2.3460,2.6510,0.3130,3.554
15.4830,-1.7250,2.6560,0.5330,3.212
15.4900,-1.3860,2.5780,0.6370,2.995
15.4990,-1.2720,2.4430,0.6310,2.826
15.5090,-1.3910,2.2490,0.4330,2.680
15.5180,-1.7140,2.1180,0.1560,2.729
15.5280,-2.1370,2.0970,-0.0290,2.994
15.5400,-2.4340,2.1170,-0.1570,3.230
15.5500,-2.5040,2.0370,-0.3750,3.250
15.5580,-2.3900,1.8150,-0.7710,3.099
15.5700,-2.0280,1.3600,-1.3290,2.780
15.5790,-1.5040,0.7860,-1.8350,2.499
15.5880,-1.0530,0.2780,-2.2570,2.506
15.6010,-0.7580,-0.1450,-2.5050,2.621
15.6110,-0.7000,-0.5910,-2.4930,2.656
15.6220,-0.7770,-1.0010,-2.2830,2.611
15.6280,-0.8650,-1.3450,-1.8760,2.465
15.6380,-0.8980,-1.7320,-1.3600,2.378
15.6500,-0.8580,-1.9910,-0.8370,2.324
15.6580,-0.8210,-2.1790,-0.3260,2.351
15.6700,-0.8260,-2.2580,0.2430,2.417
15.6800,-0.9740,-2.0600,0.8320,2.426
15.6890,-0.8540,-1.9000,1.5320,2.586
15.7020,-0.8290,-1.6280,2.0860,2.773
15.7080,-0.9770,-1.3070,2.4070,2.908
15.7230,-1.2370,-0.9420,2.5890,3.020
15.7280,-1.1920,-0.7390,2.8100,3.141
15.7430,-1.3110,-0.6330,2.8330,3.185
15.7510,-1.4080,-0.5200,2.7330,3.118
15.7630,-1.4540,-0.4850,2.6200,3.035
15.7730,-1.5330,-0.6430,2.3600,2.887
15.7820,-1.5660,-0.6610,2.0450,2.659
15.7910,-1.5780,-0.5580,1.6950,2.382
15.7980,-1.6240,-0.4970,1.3890,2.194
15.8120,-1.6460,-0.6260,1.1530,2.105
15.8200,-1.6220,-0.6420,0.9800,2.001
15.8310,-1.5040,-0.4540,1.0390,1.884
15.8390,-1.1340,-0.2480,1.2190,1.683
15.8500,-0.5180,0.1730,1.3990,1.502
15.8580,0.5140,0.4950,1.5750,1.729
15.8710,1.6920,1.1670,2.1180,2.951
15.8790,2.9980,1.8830,1.6530,3.907
15.8880,3.8790,2.5480,0.1930,4.645
15.9000,3.7720,3.0300,-2.9670,5.676
15.9120,3.5470,3.4560,-5.6570,7.518
15.9220,3.1530,3.5790,-7.6510,9.016
15.9310,2.4540,3.3620,-9.4980,10.370
15.9420,2.1780,2.1180,-10.1260,10.572
15.9480,2.9170,0.7940,-7.9950,8.547
15.9620,3.3710,-0.0820,-4.4360,5.572
15.9680,3.0760,-0.2610,-1.4570,3.414
15.9820,2.5450,-0.2030,0.5530,2.612
15.9900,1.8710,-0.3090,1.7830,2.603
16.0020,1.2570,-0.2290,2.4060,2.724
16.0110,0.7340,-0.2910,2.8370,2.945
16.0220,0.2710,0.0020,3.0990,3.111
16.0280,0.1470,0.5280,3.4830,3.526
16.0380,-0.0870,1.0770,3.3830,3.551
16.0540,0.0030,1.1550,2.8390,3.065
16.0610,0.4600,0.9350,2.2510,2.480
16.0700,0.9450,0.7750,1.6700,2.069
16.0810,1.2840,0.7660,1.1640,1.895
16.0890,1.4230,0.8680,0.8710,1.881
16.0980,1.5090,0.8590,0.6860,1.867
16.1080,1.5940,0.7160,0.4270,1.799
16.1180,1.6810,0.5690,0.1320,1.780
16.1280,1.7300,0.4450,-0.1890,1.796
16.1420,1.6870,0.4200,-0.4630,1.799
16.1500,1.4060,0.3950,-0.6900,1.615
16.1590,0.9060,0.2610,-0.8520,1.271
16.1700,0.2990,0.0380,-0.8250,0.878
16.1780,-0.2310,-0.0850,-0.5620,0.614
16.1900,-0.6910,-0.1410,-0.1580,0.723
16.1970,-1.0860,-0.1210,0.2200,1.115
18.2500,-1.2990,-0.1280,0.6480,1.457
18.2510,-1.3210,-0.1320,1.0900,1.718
18.2520,-1.1940,-0.1220,1.5230,1.939
18.2520,-1.0010,-0.0370,1.9080,2.155
18.2530,-0.6460,-0.0130,2.2670,2.357
18.2530,0.0820,0.6900,-1.0410,1.252
18.2540,0.5600,0.6690,-0.8600,1.225
18.2560,1.0340,0.5670,-0.6410,1.342
18.2650,1.5120,0.4470,-0.4260,1.633
18.2760,1.9390,0.4070,-0.2270,1.994
18.2860,2.1560,0.3130,-0.1050,2.181
18.2960,2.1350,0.3400,-0.0930,2.164
18.3060,1.9120,0.4240,-0.0960,1.961
18.3180,1.7320,0.5830,-0.1420,1.833
18.3270,1.6170,0.7150,-0.2810,1.790
18.3360,1.5300,0.8120,-0.4610,1.792
18.3450,1.4520,0.8800,-0.6590,1.821
18.3560,1.3820,0.9380,-0.7670,1.838
18.3670,1.2090,1.0460,-0.8040,1.789
18.3770,0.9650,1.1670,-0.7730,1.700
18.3880,0.6600,1.2210,-0.6730,1.543
18.3960,0.2570,1.1750,-0.5440,1.320
18.4070,-0.1010,1.1630,-0.3390,1.216
18.4170,-0.2860,1.1410,-0.0290,1.177
18.4270,-0.2280,0.7700,0.0110,0.803
18.4370,0.1970,0.0770,-0.2590,0.334
18.4470,0.7110,-0.7380,-0.3720,1.090
18.4560,1.1250,-1.0750,-0.3800,1.602
18.4670,1.3110,-1.0210,-0.1960,1.673
18.4780,1.1160,-0.5600,0.0650,1.250
18.4870,0.7580,0.2210,0.3270,0.855
18.4980,0.5940,0.7160,0.4680,1.041
18.5070,0.7430,1.0280,0.2890,1.301
18.5160,0.9800,1.1400,0.0200,1.503
18.5260,1.2180,1.1530,-0.1440,1.683
18.5380,1.2790,1.0680,-0.1690,1.675
18.5460,1.2410,1.0470,-0.1930,1.635
18.5560,1.1060,1.0590,-0.2020,1.545
18.5670,0.9870,1.0310,-0.1830,1.439
18.5760,0.8920,0.9200,-0.1840,1.295
18.5860,0.8090,0.6880,-0.2530,1.092
18.5970,0.7050,0.4880,-0.3360,0.921
18.6070,0.5780,0.2700,-0.3900,0.748
18.6170,0.4410,0.0780,-0.4200,0.614
18.6270,0.3430,-0.1200,-0.3970,0.538
18.6370,0.2650,-0.3160,-0.3280,0.527
18.6460,0.2250,-0.4900,-0.3070,0.620
18.6570,0.1210,-0.6240,-0.3260,0.714
18.6660,0.0970,-0.8070,-0.2520,0.851
18.6770,-0.0550,-0.9070,-0.0930,0.913
18.6870,-0.2360,-0.8910,0.2400,0.952
18.6970,-0.4380,-0.8220,0.6720,1.149
18.7060,-0.5380,-0.8360,1.1030,1.485
18.7180,-0.6010,-0.8710,1.3950,1.751
18.7270,-0.6060,-0.8440,1.5300,1.849
18.7350,-0.4830,-0.8760,1.6160,1.901
18.7460,-0.3980,-0.9170,1.6600,1.938
18.7570,-0.4360,-0.8860,1.6680,1.938
18.7670,-0.4430,-0.8190,1.7370,1.971
18.7750,-0.4540,-0.7700,1.8110,2.020
18.7850,-0.6330,-0.6780,1.7840,2.011
18.7970,-0.9060,-0.5970,1.6430,1.969
18.8050,-1.0950,-0.5180,1.3650,1.825
18.8150,-1.1040,-0.4220,1.0480,1.580
18.8260,-0.9350,-0.2750,0.7370,1.222
18.8360,-0.6260,-0.2020,0.5160,0.836
18.8470,-0.2290,-0.2410,0.3000,0.448
18.8550,0.0950,-0.2730,0.0820,0.300
18.8670,0.3250,-0.2480,-0.0750,0.416
18.8760,0.4920,-0.2030,-0.1410,0.551
18.8850,0.5840,-0.1030,-0.1480,0.611
18.8950,0.5550,0.0020,-0.1010,0.564
18.9070,0.4220,0.0930,-0.0530,0.435
18.9150,0.2830,0.2020,0.0180,0.348
18.9270,0.2010,0.2930,0.0520,0.359
18.9380,0.1820,0.3880,0.0550,0.432
18.9470,0.1700,0.4590,0.0650,0.494
18.9550,0.1900,0.5470,0.1090,0.589
18.9650,0.2220,0.5790,0.1680,0.642
18.9780,0.3060,0.5730,0.1720,0.672
18.9870,0.4580,0.5530,0.1270,0.729
18.9980,0.6680,0.5200,0.0580,0.849
19.0070,0.8610,0.4410,-0.0030,0.967
19.0150,1.0200,0.3790,-0.0260,1.088
19.0250,1.0310,0.4180,0.0010,1.113
19.0370,0.9530,0.4420,0.0730,1.053
19.0460,0.8340,0.4130,0.1310,0.940
19.0580,0.6760,0.3730,0.1860,0.794
19.0660,0.5470,0.3080,0.1890,0.656
19.0760,0.4640,0.1740,0.1560,0.520
19.0850,0.4210,-0.0560,0.1220,0.442
19.0950,0.4180,-0.2680,0.1420,0.516
19.1050,0.4530,-0.4790,0.1350,0.673
19.1150,0.4290,-0.6420,0.1240,0.782
19.1250,0.3210,-0.7780,0.0730,0.845
19.1350,0.1300,-0.9110,0.0410,0.921
19.1460,-0.1490,-0.9790,0.0880,0.994
19.1560,-0.3770,-1.0450,0.2050,1.130
19.1660,-0.4760,-1.0460,0.3720,1.208
19.1770,-0.5090,-0.9030,0.5200,1.160
19.1860,-0.5340,-0.8520,0.7350,1.246
19.1950,-0.4480,-0.7850,0.9330,1.299
19.2070,-0.3960,-0.7120,1.1530,1.412
19.2170,-0.4330,-0.5530,1.3890,1.556
19.2270,-0.4760,-0.2590,1.5900,1.680
19.2370,-0.4090,0.0580,1.7820,1.829
19.2480,-0.3680,0.3530,1.9430,2.009
19.2550,-0.5340,0.7780,2.0040,2.215
19.2660,-0.9610,1.3110,2.0460,2.613
19.2760,-1.5910,1.9760,2.1030,3.295
19.2870,-2.1970,2.6120,2.2690,4.099
19.2950,-2.7020,3.0460,2.3990,4.726
19.3050,-2.9360,3.1740,2.1800,4.842
19.3150,-2.7030,3.0750,1.4250,4.335
19.3250,-2.4110,2.7660,0.3580,3.687
19.3390,-2.6190,2.3320,-0.6690,3.570
19.3470,-3.3340,2.0610,-1.3390,4.142
19.3550,-4.5160,2.1280,-1.5030,5.214
19.3650,-5.9000,2.5040,-1.0560,6.496
19.3750,-7.4220,3.1060,-0.2540,8.050
19.3850,-8.7710,3.8180,0.5920,9.584
19.3950,-9.7510,4.4740,1.3700,10.816
19.4760,-10.3380,4.9980,2.0750,11.669
19.4790,-10.7770,5.1830,2.5440,12.226
19.4910,-10.9120,5.0210,2.7430,12.321
19.4920,-10.7800,4.3610,2.5670,11.909
19.4930,-10.1500,3.1290,2.0640,10.820
19.4940,-9.2650,1.1910,1.0370,9.399
19.4950,-7.7490,-1.2360,-0.4170,7.858
19.4960,-4.8250,-3.9240,-1.6800,6.442
19.4970,-0.8080,-6.7290,-2.2170,7.131
19.4970,4.0240,-9.9700,-2.0420,10.944
19.5050,10.4090,-13.7850,-1.4530,17.334
19.5160,17.3590,-15.5900,0.1730,23.333
19.5250,21.6390,-14.2980,2.0580,26.018
19.5360,21.8690,-11.2980,3.0280,24.801
19.5490,18.6860,-9.0710,1.9630,20.864
19.5550,15.3210,-9.2100,-1.0100,17.905
19.5650,13.1110,-11.3960,-4.6370,17.980
19.5760,11.8230,-14.7820,-7.9820,20.543
19.5850,11.1910,-17.5260,-10.3090,23.209
19.5960,10.9600,-18.4730,-10.7200,24.006
19.6050,11.4380,-18.7020,-9.3530,23.834
19.6180,11.8880,-19.1150,-6.8550,23.531
19.6270,11.3160,-19.6200,-3.7110,22.951
19.6350,10.6190,-20.2230,-0.5330,22.848
19.6470,9.1700,-20.2750,2.5290,22.396
19.6560,7.1980,-19.0120,4.7260,20.871
19.6650,5.6610,-17.5600,5.4950,19.251
19.6760,4.8420,-16.2980,5.1430,17.763
19.6850,4.8170,-14.9660,4.7390,16.421
19.6970,5.3410,-13.0620,4.1660,14.714
19.7050,5.7360,-10.7740,2.8410,12.532
19.7200,4.8300,-7.7480,0.6580,9.154
19.7250,1.3350,-3.9730,-1.3690,4.409
19.7350,-4.0960,-0.1140,-2.7060,4.910
19.7460,-11.5390,5.5320,-4.9720,13.729
19.7570,-17.4860,11.6820,-5.4370,21.721
19.7670,-21.7150,17.9060,-4.9160,28.572
19.7780,-22.2010,21.3990,-3.3820,31.020
19.7850,-16.7870,18.9200,-3.2640,25.503
19.7950,-9.0820,13.0990,-4.1170,16.463
19.8060,-5.2270,8.5060,-5.2570,11.283
19.8160,-5.3720,5.7370,-6.4930,10.195
19.8240,-6.7690,4.2540,-7.3680,10.872
19.8350,-8.5360,3.3700,-7.6890,11.973
19.8440,-9.4300,2.7540,-6.2800,11.660
19.8540,-9.8420,3.5190,-3.0460,10.887
19.8640,-9.6550,4.7100,0.5040,10.754
19.8750,-7.9140,4.6990,3.6000,9.883
19.8880,-5.9120,4.1850,5.5760,9.141
19.8950,-4.6140,3.6660,6.8650,9.047
19.9040,-4.0000,3.5420,7.8300,9.479
19.9160,-3.9090,3.8400,8.5330,10.141
19.9250,-4.5760,4.6890,8.8010,10.972
19.9350,-5.5900,5.6790,8.5340,11.676
19.9440,-6.5560,6.4920,7.7780,12.067
19.9550,-7.1260,6.8440,6.4270,11.787
19.9640,-7.4090,6.8490,4.5810,11.081
19.9750,-7.5890,6.5360,2.5780,10.342
19.9850,-7.7790,6.1230,0.5700,9.916
19.9950,-7.8780,5.9260,-1.2010,9.931
20.0040,-7.9690,5.9340,-2.7940,10.321
20.0160,-8.1040,6.0410,-4.1850,10.940
20.0240,-8.3500,6.0200,-5.2290,11.546
20.0340,-8.6710,5.7170,-5.8850,11.937
20.0440,-8.6960,5.6180,-6.0760,12.004
20.0560,-8.3470,5.9810,-5.7130,11.751
20.0650,-8.0860,6.7790,-4.7660,11.578
20.0760,-7.4700,7.9650,-3.5070,11.469
20.0840,-6.7280,9.5070,-2.4220,11.896
20.0970,-6.3440,11.0470,-1.6280,12.843
20.1060,-6.4520,12.1350,-1.2310,13.799
20.1170,-6.7120,12.0940,-1.2810,13.891
20.1250,-6.8690,10.3970,-1.9760,12.617
20.1360,-6.5820,8.0010,-3.0600,10.803
20.1440,-6.4630,5.5140,-3.8790,9.339
20.1540,-6.6340,3.5760,-4.1420,8.600
20.1660,-7.2410,2.8030,-3.6600,8.584
20.1760,-7.9580,2.7220,-2.1510,8.681
20.1840,-7.3330,1.9720,0.1730,7.595
20.1960,-4.6280,-0.7580,1.7430,5.003
20.2040,-0.0870,-5.5820,1.6980,5.835
20.2140,5.9270,-11.1710,0.0590,12.646
20.2240,12.4360,-15.4120,-1.9800,19.902
20.2340,16.8670,-16.7780,-2.1710,23.890
20.2440,17.4160,-15.6910,0.3380,23.444
20.2550,16.2130,-14.9910,2.6280,22.237
20.2640,16.0460,-14.8430,2.8680,22.046
20.2740,16.4030,-15.6350,1.5160,22.711
20.2840,14.9570,-15.6640,-0.1900,21.659
20.2950,12.1150,-14.6430,-1.0820,19.036
20.3050,9.2820,-13.3500,-0.8100,16.280
20.3170,7.1170,-12.2590,0.3230,14.179
20.3240,5.9610,-11.1120,1.4630,12.695
20.3370,5.8120,-9.4320,1.9770,11.254
20.3460,6.5800,-7.6640,1.8990,10.278
20.3560,7.5580,-6.5170,1.1560,10.046
20.3660,8.5410,-6.0670,0.2320,10.479
20.3760,8.8110,-5.8160,-0.3550,10.563
20.3850,8.2010,-5.7760,-0.6020,10.049
20.3970,6.8270,-5.4990,-0.7550,8.799
20.4040,5.1690,-4.3360,-0.6990,6.783
20.4170,3.6200,-3.1170,-0.7700,4.839
20.4240,2.2490,-2.3790,-1.3160,3.528
20.4340,1.3610,-1.8770,-2.1470,3.160
20.4460,0.9050,-1.4950,-2.9580,3.436
20.4580,0.8150,-1.1310,-3.5980,3.859
20.4650,0.7490,-0.6170,-4.0370,4.152
20.4750,0.6610,-0.1030,-4.2160,4.269
20.4840,0.4340,0.3660,-3.9810,4.021
20.4950,-0.0220,0.8780,-3.4100,3.521
20.5040,-0.5420,1.3790,-2.6270,3.016
20.5170,-1.0310,1.8250,-1.7970,2.761
20.5240,-1.5060,2.1510,-1.0420,2.825
20.5340,-1.9930,2.3120,-0.4540,3.086
20.5440,-2.3820,2.4120,-0.0940,3.391
20.5550,-2.7320,2.5200,0.1130,3.718
20.5660,-3.1000,2.5770,0.1560,4.034
20.5760,-3.5290,2.3710,-0.0300,4.252
20.5840,-4.0690,2.2700,-0.3800,4.675
20.5940,-4.6170,2.3630,-0.7030,5.234
20.6040,-4.9570,2.5060,-0.8640,5.621
20.6170,-5.1080,2.6160,-0.9990,5.825
20.6240,-5.0930,2.5370,-1.0570,5.787
20.6340,-4.9200,2.2040,-1.1130,5.505
20.6470,-4.5200,1.8920,-1.0980,5.022
20.6540,-3.9590,1.5510,-1.0280,4.374
20.6640,-3.3370,1.1780,-0.9430,3.662
20.6740,-2.7930,0.8080,-0.9090,3.046
20.6840,-2.2800,0.3910,-0.8210,2.455
20.6940,-1.7960,0.0170,-0.7300,1.939
20.7060,-1.3690,-0.2950,-0.6280,1.535
20.7140,-0.9270,-0.7370,-0.4540,1.268
20.7230,-0.5980,-1.3160,-0.3660,1.491
20.7330,-0.2030,-1.9670,-0.3440,2.007
20.7430,0.0340,-2.3510,-0.2330,2.363
20.7540,-0.0810,-2.6660,-0.0010,2.667
20.7630,-0.2720,-2.8370,0.3930,2.877
20.7730,-0.5650,-2.7910,0.8050,2.959
20.7860,-0.8800,-2.7850,1.1740,3.148
20.7930,-1.2060,-2.7330,1.4130,3.305
20.8030,-1.4760,-2.5310,1.6090,3.343
20.8130,-1.7000,-2.2910,1.7310,3.337
20.8230,-1.8130,-2.1450,1.8100,3.341
20.8340,-1.7800,-2.0540,1.7940,3.257
20.8430,-1.6420,-1.8440,1.7940,3.052
20.8530,-1.5420,-1.5260,1.8690,2.863
20.8630,-1.5780,-1.1880,2.0190,2.824
20.8740,-1.7360,-0.8860,2.1710,2.918
20.8840,-1.9190,-0.6170,2.3030,3.061
20.8940,-2.0770,-0.4710,2.3450,3.168
20.9030,-2.0800,-0.5260,2.2450,3.105
20.9130,-1.8940,-0.6250,2.0430,2.855
20.9230,-1.5760,-0.6940,1.8220,2.507
20.9340,-1.2640,-0.7860,1.5600,2.156
20.9430,-0.9690,-0.7810,1.3280,1.820
20.9530,-0.7090,-0.7660,1.0840,1.505
20.9630,-0.5090,-0.8250,0.8210,1.270
20.9730,-0.2550,-1.1020,0.5220,1.246
20.9830,0.1670,-1.6060,0.1820,1.625
20.9940,0.6790,-2.0600,-0.2060,2.179
21.0030,1.0860,-2.2040,-0.5230,2.512
21.0130,1.0620,-1.8270,-0.5410,2.181
21.0230,0.5910,-1.0810,0.0160,1.232
21.0370,-0.0600,-0.2750,0.8040,0.852
21.0480,-0.5450,0.3720,1.3640,1.515
21.0540,-0.7610,0.8000,1.5410,1.896
21.0640,-0.5930,0.9540,1.3520,1.758
21.0770,-0.1390,0.9670,0.8950,1.325
21.0840,0.3570,0.8850,0.4040,1.036
21.0940,0.5890,0.8260,0.0790,1.018
21.1090,0.5810,0.8020,-0.0680,0.993
21.1130,0.6630,0.8580,-0.1130,1.090
21.1240,0.7800,0.8600,-0.1160,1.167
21.1340,1.0080,0.9420,-0.1350,1.386
21.1430,1.0800,1.0390,-0.0570,1.500
21.1540,0.9560,1.1330,0.0910,1.485
21.1630,0.9270,1.2470,0.1620,1.562
21.1730,1.0690,1.3350,0.1010,1.713
21.1830,1.2570,1.4410,0.0560,1.913
21.1950,1.4760,1.6190,-0.0080,2.191
21.2050,1.5900,1.8940,-0.1150,2.476
21.2150,1.5370,2.3610,-0.5030,2.862
21.2250,1.6500,2.6270,-1.2210,3.334
21.2330,1.8940,2.7430,-2.0580,3.917
21.2430,1.8950,3.4700,-3.1570,5.060
21.2540,2.3030,3.9920,-4.0000,6.102
21.2650,3.3890,3.4630,-4.1130,6.356
21.2740,4.4400,2.6530,-3.5080,6.250
21.2850,5.2030,1.9370,-2.3690,6.036
21.2950,5.4180,1.7360,-0.5160,5.713
21.3030,5.5700,2.0660,1.4380,6.112
21.3180,5.3360,2.0140,2.7950,6.351
21.3230,4.1060,1.5410,2.9050,5.261
21.3360,2.9330,1.2000,2.4050,3.978
21.3460,1.9140,1.0730,1.8200,2.851
21.3550,1.0820,0.8210,1.3890,1.943
21.3640,0.3560,0.6010,1.0700,1.278
21.3730,-0.2490,0.4470,0.9710,1.098
21.3840,-0.7730,0.4840,0.9420,1.311
21.3950,-1.0940,0.7060,0.9230,1.596
21.4050,-1.1470,0.8730,0.9250,1.713
21.4150,-0.6870,0.8690,1.1050,1.565
21.4250,-0.1050,0.6640,1.1820,1.360
21.4350,0.1260,0.4680,0.9910,1.103
21.4460,0.2980,0.3300,0.6560,0.792
21.4550,0.3380,0.3440,0.3540,0.598
21.4650,0.1900,0.4460,-0.0810,0.492
21.4790,-0.0400,0.5450,-0.5660,0.787
21.4840,-0.1440,0.5630,-1.0620,1.211
21.4940,-0.0910,0.5150,-1.4530,1.544
21.5030,-0.0650,0.5530,-1.7450,1.832
21.5150,-0.2020,0.6390,-1.9790,2.089
21.5240,-0.3010,0.6080,-1.9870,2.100
21.5350,-0.3870,0.5500,-1.7620,1.886
21.5450,-0.4850,0.4830,-1.3850,1.545
21.5550,-0.5080,0.3050,-0.8210,1.012
21.5630,-0.5710,0.1540,-0.2650,0.648
21.5730,-0.5820,0.0120,0.0880,0.589
21.5860,-0.6220,-0.1600,0.2100,0.676
21.5960,-0.6840,-0.1630,0.2360,0.742
21.6040,-0.7030,-0.1540,0.0070,0.720
21.6160,-0.5660,-0.2270,-0.3730,0.715
21.6250,-0.6980,0.0020,-0.7820,1.048
21.6360,-0.9870,0.3410,-1.0930,1.512
21.6450,-0.9610,0.4850,-1.0920,1.533
21.6560,-0.6380,0.4480,-0.9110,1.199
21.6650,-0.2500,0.3390,-0.5150,0.665
21.6760,-0.0060,0.2760,-0.1310,0.306
21.6840,0.2610,0.2360,0.2190,0.414
21.6950,0.5100,0.3270,0.6190,0.866
21.7030,0.7350,0.3940,0.8240,1.172
21.7140,1.0700,0.3020,0.6820,1.304
21.7240,1.8360,-0.4320,0.1910,1.896
21.7350,2.6550,-1.4250,0.0870,3.015
21.7440,2.9540,-1.6200,0.0420,3.369
21.7520,2.4540,-1.1750,-0.0510,2.721
21.7620,1.6550,-0.6050,-0.3080,1.789
21.7720,1.0680,-0.3130,-0.5890,1.259
21.7840,0.4480,-0.1160,-0.7230,0.858
21.7950,0.0430,-0.0140,-0.5060,0.508
21.8030,-0.1340,0.0120,-0.0400,0.140
21.8130,-0.1420,-0.0120,0.4610,0.483
21.8230,-0.0140,-0.2530,0.8140,0.853
21.8350,0.1910,-0.7220,0.8080,1.100
21.8440,0.3570,-1.2330,0.4630,1.365
21.8540,0.4350,-1.7200,-0.1950,1.785
21.8650,0.3700,-2.0110,-0.7760,2.187
21.8750,0.0820,-2.0220,-1.0970,2.302
21.8840,-0.3260,-1.7690,-1.0300,2.073
21.8950,-0.9150,-1.4500,-0.6740,1.842
21.9040,-1.5210,-1.1700,-0.2260,1.932
21.9130,-2.0360,-0.9420,0.1680,2.250
21.9240,-2.2590,-0.6270,0.4250,2.383
21.9340,-2.0920,-0.3820,0.4320,2.170
21.9430,-1.6410,-0.3110,0.1000,1.673
21.9540,-1.1310,-0.4730,-0.2700,1.255
21.9630,-0.7200,-0.6540,-0.5350,1.110
21.9720,-0.3630,-0.7350,-0.5850,1.007
21.9820,-0.0600,-0.7140,-0.3610,0.802
21.9950,0.0760,-0.6440,0.0620,0.651
22.0040,0.1040,-0.5920,0.4620,0.758
22.0130,0.1120,-0.5190,0.7630,0.930
22.0240,0.0860,-0.4740,0.8960,1.017
22.0320,0.0890,-0.4330,0.9620,1.059
22.0420,0.1680,-0.3970,1.0170,1.105
22.0520,0.2100,-0.3530,1.0850,1.160
22.0630,0.1030,-0.2550,1.1420,1.175
22.0750,-0.0950,-0.0540,1.1790,1.184
22.0840,-0.2770,0.1970,1.1880,1.236
22.0930,-0.3950,0.4870,1.0350,1.210
22.1040,-0.5100,0.7980,0.8270,1.257
22.1140,-0.6210,1.0460,0.5970,1.355
22.1230,-0.7200,1.2230,0.4470,1.488
22.1350,-0.6970,1.3460,0.3610,1.558
22.1440,-0.5860,1.4300,0.3020,1.575
22.1540,-0.5130,1.5760,0.2880,1.682
22.1640,-0.4900,1.7280,0.2780,1.818
22.1740,-0.5380,1.8790,0.2080,1.966
22.1840,-0.5880,2.0280,0.1300,2.116
22.1940,-0.7260,2.1080,0.1460,2.234
22.2040,-0.8160,2.2730,0.2900,2.432
22.2140,-0.7230,2.5860,0.6000,2.751
22.2240,-0.5550,2.9740,0.9450,3.169
22.2340,-0.5840,3.4480,1.3300,3.741
22.2440,-0.9440,4.1660,1.7040,4.599
22.2540,-1.5680,5.0630,1.9660,5.653
22.2630,-2.3920,5.8730,2.2380,6.725
22.2740,-3.2760,6.6860,2.3670,7.813
22.2840,-4.0190,7.2990,2.3880,8.668
22.2940,-4.3650,7.5250,2.4130,9.028
22.3030,-4.5560,7.2850,2.3080,8.897
22.3140,-4.6480,6.5820,1.8470,8.267
22.3240,-4.7610,5.3510,1.1740,7.258
22.3350,-5.0360,3.9810,0.2980,6.426
22.3440,-5.4050,3.0280,-0.1140,6.196
22.3550,-5.7740,2.3240,-0.0460,6.224
22.3640,-5.8760,1.8680,0.1270,6.167
22.3740,-5.3820,1.6020,0.5400,5.641
22.3840,-4.1690,1.0680,0.8290,4.383
22.3940,-2.0380,-0.2640,0.6280,2.149
22.4030,1.6960,-2.6470,-0.0650,3.144
22.4130,7.2490,-6.1840,-1.6480,9.670
22.4240,13.5360,-10.2560,-4.1780,17.489
22.4340,19.4080,-13.1310,-6.3870,24.288
22.4440,23.5380,-13.0140,-7.0710,27.810
22.4530,24.9220,-10.9560,-7.1370,28.144
22.4610,23.8820,-9.8670,-8.6820,27.260
22.4710,20.8580,-10.8980,-11.3120,26.111
22.4820,16.9190,-12.7050,-13.4350,25.063
22.4940,13.7800,-14.2630,-13.9710,24.259
22.5040,12.4740,-15.7620,-13.0670,23.975
22.5120,13.1350,-17.5650,-11.3640,24.702
22.5240,13.8200,-19.0000,-9.2330,25.244
22.5320,13.5910,-19.7070,-7.1250,24.977
22.5420,12.1060,-19.8850,-5.4290,23.905
22.5510,10.4350,-19.4030,-2.9410,22.226
22.5610,9.1490,-18.2420,0.4730,20.413
22.5720,8.1030,-16.6580,4.0240,18.956
22.5820,6.4590,-14.6760,6.7120,17.383
22.5920,3.7780,-12.2310,7.9690,15.079
22.6040,0.9320,-10.0100,8.0330,12.868
22.6120,-1.6390,-7.4440,8.1930,11.190
22.6240,-3.8320,-4.1190,8.6570,10.324
22.6340,-5.8220,-0.2570,9.1330,10.834
22.6430,-8.1510,3.3720,9.1110,12.681
30.3350,-11.0600,6.3310,8.3200,15.219
30.3510,-14.3770,9.1420,7.0480,18.438
30.3610,-18.0470,12.3080,5.9080,22.629
30.3630,-20.2050,13.7630,4.3640,24.834
30.3640,-19.0900,12.2990,1.1910,22.740
30.3650,3.1350,-1.1900,2.0550,3.933
30.3660,2.5510,-0.9450,3.0030,4.052
30.3660,1.4630,-0.1910,3.6710,3.956
30.3670,0.2210,0.7520,4.1060,4.180
30.3680,-0.9560,1.5130,4.2570,4.618
30.3690,-1.9630,1.9060,4.1300,4.954
30.3700,-2.6520,1.9190,3.5180,4.805
30.3700,-2.9130,1.5960,2.6690,4.261
30.3710,-2.9830,1.2650,1.7720,3.693
30.3710,-3.1100,1.1680,1.1390,3.512
30.3720,-3.2150,1.3070,0.7770,3.556
30.5830,-0.4810,0.9300,1.4390,1.780
30.6070,-0.5080,1.0150,1.8230,2.147
30.6080,-0.2340,0.5960,1.1320,1.301
30.6120,0.2270,0.4410,0.8400,0.976
30.6190,-0.2020,0.4290,1.2140,1.303
30.6320,-0.9990,0.5610,1.3890,1.801
30.6380,-1.5820,0.3310,0.7930,1.800
30.6560,-2.2380,-0.5650,-0.2640,2.323
30.6640,-1.9740,1.4530,-2.3270,3.380
30.6740,0.7480,-0.0540,-2.8740,2.970
30.6830,2.7780,-0.3620,-1.8610,3.363
30.6960,3.2570,0.4050,-0.5200,3.323
30.7340,3.0460,1.4060,0.3140,3.370
30.7350,2.7650,1.6150,0.5860,3.255
30.7360,0.8560,2.4530,-1.9960,3.276
30.7360,1.0370,1.7070,-3.6650,4.174
30.7450,1.2520,0.7740,-4.2680,4.515
30.7560,0.6240,0.8880,-4.3240,4.458
30.7940,0.5090,1.1100,-3.8100,4.001
30.7950,1.1230,1.4110,-3.0310,3.527
30.7970,1.4060,1.7160,-1.9570,2.958
30.8030,0.8900,2.5610,-1.0370,2.903
30.8080,0.3610,3.0840,-0.9440,3.245
30.8130,1.6330,0.9510,-3.4100,3.899
30.8250,-0.1140,1.4700,-3.6310,3.919
30.8350,-0.8010,1.8610,-3.5680,4.103
30.8430,-0.8070,2.0170,-2.3610,3.208
30.8520,-0.5590,2.2120,-0.2770,2.298
30.8630,-0.0350,1.5890,1.8570,2.444
30.8760,0.1980,0.6920,2.3390,2.447
30.8830,-0.0440,0.4830,1.3940,1.476
30.8920,0.0940,0.0800,0.6710,0.682
30.9020,0.6960,-0.0240,0.1660,0.716
30.9120,0.9630,-0.1150,-0.3160,1.020
30.9220,0.5770,0.0260,-0.2780,0.641
30.9340,0.1510,0.2010,-0.0050,0.251
30.9580,-0.0650,0.1630,-0.1120,0.208
30.9590,-0.1320,0.1930,-0.5110,0.562
30.9620,-0.1310,0.2970,-0.8580,0.917
30.9720,-0.2660,0.4840,-1.0860,1.218
30.9830,-0.4980,0.5440,-0.9920,1.236
30.9920,-0.8080,0.4710,-0.7760,1.215
31.0020,-1.1350,0.3640,-0.6630,1.364
31.0120,-1.4010,0.3050,-0.5320,1.529
31.0230,-1.8230,0.4350,-0.2780,1.895
31.0320,-2.1800,0.6650,-0.2920,2.298
31.0420,-2.2710,0.7410,-0.5080,2.442
31.0520,-2.1150,0.6020,-0.8960,2.375
31.0630,-1.7400,0.3930,-0.0360,1.784
31.0720,-2.0330,1.0300,-0.6630,2.374
31.0820,-1.9750,1.2770,-1.8740,3.007
31.0920,-1.5330,0.8610,-2.1000,2.739
31.1020,-1.5940,0.6540,-2.2490,2.833
31.1130,-1.8760,0.6750,-2.6080,3.283
31.1220,-1.6820,0.7130,-3.1100,3.607
31.1320,-1.3680,0.8760,-3.4480,3.811
31.1420,-1.4580,1.0130,-3.4730,3.900
31.1530,-1.4340,0.2230,-2.7700,3.127
31.1620,-1.4480,-0.5390,-1.7240,2.315
31.1780,-1.8340,0.3190,-0.9080,2.071
31.1880,-1.7020,0.7150,-0.8480,2.032
31.1980,-1.2120,0.7640,-0.8990,1.691
31.2150,-0.6600,0.5320,-0.9900,1.303
31.2750,-0.1740,0.9180,-0.6180,1.120
31.2760,-0.2760,1.1580,-0.5950,1.331
31.2770,-0.4900,1.2220,-0.5060,1.410
31.2790,-0.6000,1.0080,-0.3530,1.225
31.2850,-0.5790,0.6050,-0.2790,0.883
31.2870,-0.4540,0.2680,-0.1180,0.540
31.2980,-0.2810,0.1990,0.2120,0.404
31.3090,-0.0020,0.3500,0.4900,0.602
31.3170,0.3130,0.4610,0.5330,0.771
31.3320,0.6520,0.5490,0.3070,0.906
31.3370,1.0570,0.6160,0.1630,1.234
31.3480,1.5240,0.6240,0.1500,1.654
31.3600,1.8810,0.5370,0.1700,1.964
31.3720,2.1050,0.5050,0.0380,2.165
31.3900,2.1500,0.5640,-0.2330,2.235
31.3910,2.0360,0.6460,-0.5040,2.195
31.3970,1.8090,0.6650,-0.6170,2.024
31.4200,1.5240,0.6470,-0.5600,1.748
31.4310,1.3200,0.5680,-0.4290,1.500
31.4350,1.2920,0.5200,-0.2190,1.410
31.4410,1.4650,0.5410,0.0470,1.562
31.4470,1.7720,0.5770,0.2640,1.882
31.4580,2.2240,0.6220,0.3620,2.338
31.4670,2.6560,0.6270,0.3350,2.749
31.4770,3.0830,0.5850,0.3870,3.162
31.4870,3.4320,0.5670,0.4400,3.506
31.4970,3.7690,0.5990,0.3860,3.836
31.5080,4.1220,0.7130,0.2670,4.192
31.5170,4.2000,0.7450,0.1590,4.269
31.5270,4.1070,0.8280,0.0670,4.190
31.5370,4.0460,0.9890,0.0330,4.165
31.5470,3.8600,1.0620,0.0330,4.004
31.5580,3.6150,1.0720,0.1300,3.773
31.5670,3.3180,1.0600,0.2240,3.490
31.5770,3.0970,1.0710,0.3280,3.293
31.5880,2.8730,1.0890,0.3800,3.096
31.5970,2.6080,1.1180,0.3310,2.857
31.6070,2.3400,1.1560,0.1840,2.616
31.6170,2.0030,1.2220,0.0000,2.346
31.6280,1.6870,1.2170,-0.2620,2.097
31.6370,1.3820,1.1390,-0.4990,1.859
31.6470,1.0960,1.0510,-0.6260,1.642
31.6580,0.8110,1.0720,-0.6800,1.506
31.6670,0.5950,1.1560,-0.7190,1.486
31.6780,0.5120,1.1920,-0.7120,1.480
31.6880,0.5220,1.1760,-0.5670,1.406
31.6970,0.5940,1.0990,-0.3440,1.296
31.7070,0.7460,1.0150,-0.1570,1.269
31.7180,0.9010,0.9690,-0.1990,1.338
31.7280,0.9720,0.9730,-0.4480,1.446
31.7370,0.9240,0.9510,-0.7530,1.525
31.7470,0.8670,0.9170,-0.9730,1.594
31.7580,0.7760,0.9500,-1.1090,1.654
31.7670,0.6500,0.9660,-1.1680,1.649
31.7770,0.5760,0.8920,-1.2120,1.611
31.7880,0.6730,0.8360,-1.2820,1.672
31.7970,0.8000,0.8540,-1.3190,1.763
31.8080,0.8170,0.8120,-1.2790,1.721
31.8170,0.8450,0.7430,-1.2500,1.682
31.8270,0.8640,0.7120,-1.3570,1.759
31.8370,0.9310,0.6980,-1.4090,1.827
31.8470,0.8850,0.6210,-1.3170,1.704
31.8610,0.8340,0.5140,-1.1300,1.496
31.8670,0.8740,0.4390,-0.8730,1.311
31.8770,0.9480,0.4020,-0.6370,1.211
31.8870,1.0160,0.4000,-0.4640,1.186
31.8970,1.0670,0.4400,-0.4410,1.236
31.9080,1.0380,0.5130,-0.5450,1.280
31.9170,1.0040,0.5770,-0.7330,1.370
31.9290,0.9770,0.6350,-0.9320,1.492
31.9380,1.0090,0.6780,-1.0420,1.601
31.9470,1.0570,0.6850,-1.0700,1.653
31.9610,1.1330,0.6770,-1.1030,1.720
31.9670,1.2310,0.6570,-1.1320,1.797
31.9770,1.2340,0.6500,-1.1650,1.817
31.9880,1.1370,0.6870,-1.1110,1.732
31.9970,0.9990,0.7610,-0.9880,1.598
32.0070,0.8230,0.7760,-0.7670,1.367
32.0170,0.8090,0.6290,-0.5950,1.185
32.0280,1.0650,0.5160,-0.5100,1.289
32.0410,1.3250,0.4690,-0.1590,1.415
32.0480,0.9470,0.8430,-0.2730,1.297
32.0570,0.5560,1.0070,-0.5520,1.276
32.0670,0.4630,1.0120,-0.7130,1.322
32.0790,0.8390,0.9180,-0.5650,1.366
32.0880,1.1470,0.7280,-0.2810,1.387
32.0960,1.2460,0.5610,0.1110,1.371
32.1080,1.3010,0.6990,0.2610,1.500
32.1170,1.2110,0.5550,0.0780,1.334
