time,ax,ay,az,aT
0.0590,-0.5000,0.2490,-0.9100,1.068
0.0590,-0.4980,0.2520,-1.1430,1.272
0.0590,-0.4920,0.2010,-1.2020,1.314
0.0590,-0.3360,-0.0090,-0.9780,1.034
0.0590,-0.2760,0.0240,-0.4410,0.521
0.0600,-0.0790,0.1840,0.2230,0.300
0.0600,0.2140,0.1840,0.7040,0.758
0.0600,0.5600,-0.0760,0.9970,1.146
0.0600,0.7860,-0.3790,0.9730,1.307
0.0600,0.6930,-0.8880,0.6150,1.283
0.0700,0.3600,-0.8890,0.2790,0.999
0.0820,-0.0450,-0.4430,-0.0520,0.448
0.0900,-0.1020,-0.1360,-0.1430,0.222
0.1000,0.0090,0.1700,0.0940,0.194
0.1110,-0.1350,0.1250,-0.2270,0.292
0.1200,-0.1940,-0.0840,-0.9900,1.012
0.1310,-0.2450,-0.1620,-1.9190,1.941
0.1410,-0.2860,-0.2170,-2.8670,2.889
0.1510,-0.3510,-0.3190,-3.3500,3.383
0.1610,-0.4550,-0.2570,-3.1740,3.217
0.1710,-0.2100,-0.1720,-2.4710,2.486
0.1800,0.0010,-0.1200,-1.5900,1.595
0.1900,0.1630,-0.1360,-0.8930,0.918
0.2000,0.3280,-0.2600,-0.3890,0.571
0.2100,0.4700,-0.4450,-0.3760,0.749
0.2200,0.5360,-0.6040,-0.8010,1.137
0.2300,0.4520,-0.5740,-1.1560,1.368
0.2400,0.3780,-0.3580,-1.4470,1.538
0.2510,0.6540,-0.3400,-1.7350,1.885
0.2610,0.8500,-0.2890,-1.9440,2.141
0.2700,1.0190,-0.3550,-2.2930,2.534
0.2810,1.1510,-0.4260,-2.3990,2.695
0.2900,1.1040,-0.5130,-2.5400,2.817
0.3000,0.5270,-0.6440,-2.4380,2.576
0.3180,-0.2350,-0.4770,-2.1710,2.235
0.3200,-0.4580,-0.3480,-2.2280,2.301
0.3310,-0.4110,-0.3680,-2.2010,2.269
0.3420,-0.2600,-0.6100,-2.0170,2.123
0.3510,0.0560,-0.8890,-1.9720,2.164
0.3610,0.1930,-1.0420,-2.1770,2.421
0.3700,0.1200,-1.1350,-2.2640,2.535
0.3810,-0.0190,-1.2710,-2.2060,2.546
0.3910,-0.1630,-1.3610,-2.1910,2.584
0.4010,-0.3780,-1.5800,-2.4620,2.950
0.4170,-0.7570,-1.7210,-2.7800,3.356
0.4200,-0.8330,-1.7630,-3.3850,3.906
0.4310,-0.7080,-1.8280,-4.1260,4.568
0.4400,-0.6400,-2.0130,-4.9430,5.375
0.4510,-0.6800,-2.2560,-5.4640,5.950
0.4610,-0.5810,-2.6030,-5.5540,6.161
0.4710,-0.4950,-2.7810,-5.2160,5.932
0.4800,-0.6430,-2.6650,-4.6340,5.384
0.4900,-0.6400,-2.7730,-4.4020,5.242
0.5010,-0.4130,-2.7290,-4.4440,5.231
0.5160,-0.0740,-2.7910,-4.3030,5.129
0.5200,-0.8040,-2.5250,-3.8240,4.652
0.5310,-1.4320,-1.9070,-3.7880,4.476
0.5400,-1.3670,-2.1280,-4.0910,4.810
0.5510,-1.4080,-3.0190,-4.4530,5.561
0.5610,-1.7790,-3.3960,-4.1530,5.652
0.5710,-2.0850,-3.4600,-3.3720,5.262
0.5860,-2.2640,-3.5580,-2.7020,5.009
0.5900,-2.2270,-3.4860,-2.3140,4.740
0.6010,-1.7160,-3.3080,-2.3510,4.406
0.6110,-1.1750,-3.3300,-3.1040,4.702
0.6200,-0.7800,-3.6720,-3.8400,5.370
0.6340,-0.4520,-4.2350,-4.0470,5.875
0.6410,-0.0850,-4.7300,-3.3400,5.791
0.6530,0.2420,-5.1380,-1.8710,5.473
0.6620,0.3760,-5.2170,-0.2970,5.239
0.6700,0.6800,-5.2750,0.5720,5.349
0.6810,1.2210,-5.6500,0.9440,5.857
0.6900,1.9250,-5.9150,1.3450,6.364
0.7010,2.4540,-5.9970,2.0330,6.791
0.7110,2.6100,-5.9280,2.8050,7.058
0.7200,2.4830,-5.8410,3.4000,7.200
0.7330,2.1750,-5.7750,3.8120,7.253
0.7400,1.9180,-5.4980,3.8010,6.954
0.7510,1.7900,-5.4410,3.7300,6.835
0.7660,2.0160,-5.3580,3.3900,6.653
0.7700,2.2620,-5.1940,2.9980,6.410
0.7800,2.4460,-5.2070,2.3970,6.232
0.7910,2.6510,-5.3740,1.8500,6.271
0.8010,2.9120,-5.7940,1.4360,6.642
0.8100,3.3020,-6.2000,1.3060,7.145
0.8200,4.3140,-6.5330,1.3510,7.945
0.8300,5.5500,-6.6020,1.5440,8.762
0.8400,6.7590,-6.5840,1.8730,9.620
0.8510,8.2610,-6.1800,2.4550,10.605
0.8600,9.4470,-5.4620,2.9710,11.310
0.8700,10.3150,-4.8250,3.4680,11.904
0.8810,10.7180,-4.0260,4.1610,12.182
0.8930,11.0230,-2.9850,5.0170,12.473
0.9000,10.9840,-1.9730,5.8170,12.585
0.9110,10.5000,-1.4370,6.3600,12.360
0.9200,9.8470,-1.4300,6.4480,11.857
0.9300,9.8590,-1.3830,5.8240,11.534
0.9400,9.1580,-1.8720,4.8550,10.533
0.9500,8.3950,-1.9120,3.9500,9.473
0.9610,7.3790,-2.2210,3.4150,8.429
0.9700,6.1850,-2.4350,3.5350,7.529
0.9800,5.0200,-2.3220,4.0580,6.860
0.9910,3.7090,-1.8040,4.6340,6.204
1.0000,2.4440,-0.8690,4.8590,5.508
1.0100,1.6280,0.2450,4.7970,5.072
1.0200,1.1520,1.1320,4.3640,4.653
1.0300,0.7420,1.9090,3.7060,4.234
1.0400,0.1760,2.7380,2.9760,4.048
1.0500,-0.3780,3.4410,2.2110,4.108
1.0600,-0.7290,3.8430,1.5650,4.213
1.0700,-0.8080,4.0620,0.9010,4.238
1.0800,-0.8300,4.0000,0.1420,4.088
1.0910,-0.7340,3.7560,-0.4000,3.848
1.1000,-0.5250,3.3840,-0.5980,3.476
1.1100,-0.2050,2.7450,-0.6430,2.827
1.1200,0.2180,1.9240,-0.5740,2.020
1.1310,0.2510,1.3870,-0.5450,1.511
1.1400,-0.2140,1.2130,-0.5410,1.345
1.1500,-0.6280,1.0930,-0.4350,1.334
1.1600,-0.9350,0.9360,-0.2270,1.342
1.1700,-1.0870,0.9300,0.1230,1.436
1.1800,-0.9350,1.1040,0.7030,1.608
1.1910,-0.6660,1.2930,1.4630,2.063
1.2010,-0.5100,1.5540,2.2430,2.776
1.2110,-0.6700,2.0700,3.0590,3.754
1.2200,-1.2960,2.7360,3.7310,4.805
1.2300,-2.2130,3.5240,4.0960,5.839
1.2410,-3.0480,4.5880,4.2840,6.978
1.2500,-3.6760,5.6850,4.5350,8.149
1.2610,-4.0770,6.7360,4.8340,9.239
1.2700,-4.1880,7.5710,5.1580,10.073
1.2800,-3.9840,7.9340,5.2660,10.322
1.2900,-3.5080,7.5250,5.1470,9.768
1.3010,-3.1650,6.6960,4.1040,8.467
1.3110,-4.0780,6.3880,2.7540,8.064
1.3200,-5.8990,6.2050,1.5600,8.703
1.3310,-6.3290,5.0530,-0.1380,8.100
1.3400,-4.3550,2.5980,-1.7450,5.363
1.3500,-1.7610,0.0680,-2.5980,3.139
1.3600,1.0070,-1.9190,-2.9790,3.684
1.3700,3.4190,-3.3620,-2.7800,5.543
1.3800,5.3960,-4.5850,-1.7890,7.303
1.3900,8.5200,-6.9340,0.0690,10.985
1.4000,11.7970,-9.4430,1.8190,15.220
1.4100,12.7040,-10.8870,2.9180,16.983
1.4190,11.3030,-11.8060,2.9680,16.612
1.4300,8.6710,-12.3040,1.4550,15.123
1.4400,6.5170,-13.0760,-1.5380,14.691
1.4500,5.5570,-13.9990,-4.5650,15.738
1.4600,5.5960,-14.6380,-6.6690,17.031
1.4700,6.9390,-15.7680,-7.2500,18.691
1.4800,8.2320,-16.7100,-6.1670,19.622
1.4900,9.6320,-17.7020,-4.0530,20.556
1.5000,10.6650,-19.4770,-1.7280,22.273
1.5100,10.5200,-21.1640,0.2790,23.636
1.5200,9.5490,-22.0130,2.0230,24.080
1.5300,7.7990,-21.7040,3.0620,23.265
1.5400,5.9120,-20.2690,4.0100,21.491
1.5500,4.7980,-17.7000,4.9700,19.000
1.5630,4.1600,-14.5310,5.1750,15.976
1.5690,3.6260,-10.8580,4.1490,12.176
1.5800,2.4770,-7.4420,1.9540,8.083
1.5900,0.3090,-4.2050,-0.4430,4.240
1.6010,-2.8490,-0.9340,-1.9850,3.596
1.6100,-6.1140,1.9610,-1.8300,6.676
1.6200,-8.4450,5.2470,-0.5990,9.960
1.6300,-9.4090,9.2130,1.6760,13.275
1.6400,-10.5770,13.8440,3.8350,17.839
1.6500,-11.6510,17.9790,4.7080,21.935
1.6600,-10.5060,18.7640,4.0490,21.883
1.6690,-6.9380,14.9120,1.8910,16.555
1.6800,-4.7760,11.2830,-0.2620,12.255
1.6900,-4.4320,9.5530,-1.3780,10.621
1.7000,-4.5680,7.6770,-1.7510,9.103
1.7110,-5.0710,5.7880,-1.4980,7.840
1.7200,-5.4960,4.3390,-0.3010,7.009
1.7310,-5.6680,3.3970,1.6910,6.821
1.7400,-5.8570,2.9650,4.1400,7.761
1.7500,-6.1730,3.1310,6.2710,9.340
1.7600,-6.3250,3.4970,7.3000,10.273
1.7690,-6.1840,3.8540,7.0850,10.163
1.7790,-5.6290,4.3020,6.1470,9.380
1.7920,-4.9910,4.8710,5.1560,8.673
1.7990,-4.5930,5.5250,4.3530,8.401
1.8090,-4.5180,6.2280,3.6610,8.521
1.8190,-4.6920,6.6330,2.9650,8.649
1.8290,-5.4070,6.8840,2.0470,8.990
1.8400,-6.5650,7.1070,1.1000,9.737
1.8490,-7.6770,7.2340,0.2450,10.551
1.8590,-8.6540,7.2050,-0.6040,11.277
1.8690,-9.3980,7.1070,-1.4600,11.873
1.8790,-9.5410,7.0790,-2.0980,12.064
1.8890,-9.0580,7.0440,-2.3780,11.718
1.8990,-8.2140,7.0360,-2.3520,11.068
1.9090,-7.5900,7.0740,-2.0770,10.581
1.9190,-7.5020,7.3980,-1.5260,10.646
1.9300,-7.2660,7.6940,-0.9850,10.628
1.9390,-6.6980,7.8630,-0.5770,10.345
1.9490,-6.4720,7.9900,-0.3770,10.289
1.9590,-6.6210,8.0680,-0.2610,10.440
1.9690,-6.9060,8.0270,-0.2630,10.592
1.9790,-7.4490,7.9050,-0.3220,10.866
1.9890,-7.8890,7.9090,-0.2700,11.174
1.9990,-7.9010,7.8780,-0.0810,11.158
2.0090,-7.5290,7.7030,0.1020,10.772
2.0200,-7.0980,7.4680,0.1920,10.305
2.0290,-7.1630,7.1150,-0.0110,10.096
2.0390,-6.8740,5.7780,-0.3890,8.988
2.0500,-5.2890,2.7320,-0.5230,5.976
2.0600,-2.2350,-1.3710,-0.6640,2.705
2.0700,2.0870,-5.7950,-0.4650,6.177
2.0800,7.3800,-10.3820,0.0080,12.738
2.0890,11.9230,-13.9140,-0.4070,18.328
2.0990,15.1890,-16.3170,-1.2960,22.330
2.1120,16.1050,-17.2340,0.0380,23.588
2.1190,16.2870,-18.3890,3.1120,24.761
2.1290,15.6460,-18.5930,4.5080,24.715
2.1420,12.3180,-16.0910,4.7270,20.809
2.1490,7.6650,-13.1290,5.0250,16.012
2.1600,4.4760,-12.0680,4.6980,13.702
2.1690,3.3340,-12.0920,3.7520,13.092
2.1790,3.3440,-11.6530,2.6590,12.411
2.1880,3.8360,-10.5460,1.3340,11.301
2.1990,5.0390,-9.5380,-0.3840,10.794
2.2090,6.8750,-9.0370,-2.2690,11.579
2.2190,8.5310,-8.4680,-3.6890,12.574
2.2300,9.2820,-7.6680,-4.5880,12.884
2.2390,9.0800,-6.8250,-4.9730,12.400
2.2490,8.1060,-6.0280,-4.9180,11.235
2.2600,6.5210,-5.2900,-4.5470,9.549
2.2690,4.4040,-4.7480,-4.1150,7.673
2.2790,1.9950,-4.2430,-3.6430,5.938
2.2910,-0.1200,-3.3390,-2.9400,4.450
2.2990,-1.1700,-2.3340,-1.9570,3.263
2.3090,-0.9160,-1.7760,-1.2860,2.376
2.3190,-0.0930,-1.4170,-0.8740,1.667
2.3290,0.5860,-0.8330,-0.4510,1.114
2.3420,0.8130,-0.0850,0.1000,0.824
2.3490,0.4890,0.6740,0.7160,1.098
2.3590,-0.4040,1.3880,1.1540,1.850
2.3690,-1.4940,1.9790,1.2780,2.790
2.3790,-2.4850,2.5690,1.0660,3.730
2.3900,-2.9770,2.9860,0.5420,4.251
2.3990,-2.9890,3.2720,0.0250,4.432
2.4090,-2.8730,3.5610,-0.4520,4.598
2.4190,-2.7930,3.8790,-0.8930,4.863
2.4290,-2.5590,4.1700,-1.2340,5.046
2.4410,-2.2130,4.3230,-1.5080,5.085
2.4490,-1.8780,4.3820,-1.7730,5.086
2.4590,-1.6010,4.3650,-2.0010,5.062
2.4690,-1.3680,4.3200,-2.0580,4.977
2.4790,-1.1120,4.1230,-1.9350,4.688
2.4890,-0.9410,3.8470,-1.7580,4.333
2.4990,-0.8460,3.4450,-1.5230,3.860
2.5120,-0.7200,2.9050,-1.2940,3.261
2.5190,-0.5930,2.3290,-1.0790,2.634
2.5290,-0.4430,1.7250,-0.8760,1.985
2.5410,-0.1910,1.0300,-0.6500,1.233
2.5500,0.0740,0.4070,-0.3960,0.573
2.5590,0.3710,-0.1550,-0.0340,0.404
2.5690,0.6120,-0.5900,0.3380,0.915
2.5790,0.6300,-0.8680,0.6740,1.267
2.5920,0.4780,-0.9480,1.1170,1.541
2.5990,0.2640,-0.8310,1.6390,1.856
2.6090,0.0040,-0.5970,2.1300,2.212
2.6180,-0.1920,-0.3940,2.6360,2.672
2.6290,-0.2510,-0.1330,3.1050,3.118
2.6390,-0.1520,0.1490,3.4440,3.451
2.6490,-0.0160,0.4050,3.5570,3.580
2.6590,0.1630,0.6430,3.3780,3.443
2.6680,0.3110,0.7910,2.9530,3.073
2.6790,0.4240,0.9170,2.3100,2.521
2.6900,0.6240,0.8900,1.5450,1.889
2.6990,0.8880,0.7260,0.8460,1.425
2.7090,1.0270,0.6630,0.2710,1.252
2.7190,1.2060,0.5840,-0.1520,1.349
2.7290,1.5220,0.3280,-0.4840,1.630
2.7410,1.8830,0.0110,-0.7400,2.023
2.7490,2.1700,-0.3020,-0.9410,2.384
2.7600,2.3620,-0.5390,-1.0730,2.650
2.7680,2.3370,-0.5480,-1.1330,2.654
2.7790,2.1110,-0.4030,-1.1010,2.415
2.7910,1.6780,-0.1630,-0.9420,1.931
2.7990,1.2150,0.0960,-0.6650,1.388
2.8100,0.8430,0.3440,-0.2320,0.940
2.8180,0.3990,0.6380,0.1970,0.778
2.8290,0.0150,0.7930,0.4680,0.921
2.8470,-0.2570,0.7330,0.4910,0.919
2.8510,-0.3300,0.5600,0.3550,0.741
2.8610,-0.1680,0.4220,0.2270,0.508
2.8680,0.0510,0.4280,-0.0160,0.431
2.8790,0.2830,0.3810,-0.3410,0.584
2.8900,0.4290,0.3700,-0.6030,0.827
2.8980,0.4340,0.4300,-0.7040,0.932
2.9090,0.3350,0.5600,-0.6480,0.920
2.9180,0.2850,0.5980,-0.4760,0.816
2.9280,0.2720,0.5720,-0.2150,0.669
2.9390,0.1150,0.5450,0.0440,0.559
2.9500,-0.2770,0.3270,0.1130,0.443
2.9580,-0.9100,-0.0200,-0.2310,0.939
2.9680,-1.4010,-0.5690,-0.7450,1.686
2.9780,-1.7950,-1.2240,-1.1790,2.472
2.9880,-2.1420,-1.7060,-1.3170,3.039
2.9990,-2.2440,-1.9870,-1.2390,3.243
3.0090,-1.9720,-2.1780,-1.0960,3.136
3.0180,-1.3130,-2.2760,-0.8630,2.766
3.0280,-0.7970,-2.3890,-0.5700,2.582
3.0410,-0.4660,-2.4950,-0.3390,2.561
3.0480,-0.4750,-2.4890,-0.0990,2.536
3.0580,-0.8610,-2.2880,0.2820,2.461
3.0680,-1.4300,-1.9370,0.8390,2.550
3.0780,-2.1030,-1.5420,1.3600,2.941
3.0890,-2.7940,-1.2700,1.8690,3.593
3.0980,-3.4550,-1.0560,2.1790,4.219
3.1080,-3.9380,-0.8630,2.2380,4.611
3.1180,-4.1640,-0.7200,2.0280,4.687
3.1280,-4.1690,-0.5260,1.7160,4.539
3.1420,-3.9000,-0.4090,1.4360,4.176
3.1490,-3.3670,-0.4440,1.1900,3.599
3.1590,-2.6350,-0.5930,0.8100,2.820
3.1680,-1.7400,-0.8640,0.2610,1.960
3.1780,-0.7800,-1.2070,-0.5410,1.536
3.1890,0.1070,-1.5270,-1.4310,2.095
3.1990,0.7130,-1.7030,-2.1660,2.846
3.2090,0.8900,-1.7620,-2.6560,3.309
3.2180,0.7510,-1.7940,-2.8340,3.437
3.2310,0.3490,-1.7930,-2.6450,3.214
3.2430,-0.0260,-1.7690,-2.2520,2.864
3.2480,-0.2220,-1.7650,-1.8040,2.534
3.2580,-0.4380,-1.7250,-1.3580,2.239
3.2680,-0.7140,-1.5180,-0.9590,1.932
3.2780,-0.8900,-1.3540,-0.5630,1.715
3.2900,-1.0470,-1.1650,-0.1640,1.575
3.2980,-1.2130,-0.9680,0.1380,1.558
3.3080,-1.3320,-0.7480,0.3960,1.578
3.3180,-1.4270,-0.4890,0.6700,1.651
3.3280,-1.4200,-0.1690,0.9360,1.709
3.3410,-1.3850,0.1300,1.1920,1.832
3.3480,-1.2860,0.4510,1.4040,1.957
3.3580,-1.0450,0.6930,1.5330,1.980
3.3680,-0.7180,0.8390,1.5430,1.897
3.3790,-0.3840,0.9990,1.3920,1.756
3.3900,-0.1250,1.1310,1.0700,1.562
3.3980,0.0930,1.1960,0.6500,1.364
3.4080,0.3410,1.2400,0.2340,1.307
3.4180,0.7350,1.1970,-0.0710,1.406
3.4270,1.1720,1.1840,-0.2630,1.687
3.4410,1.5220,1.2070,-0.3960,1.982
3.4480,1.8540,1.1950,-0.4740,2.256
3.4590,2.1620,1.1600,-0.5120,2.506
3.4680,2.4370,1.1100,-0.6150,2.748
3.4790,2.7010,1.0210,-0.8240,3.003
3.4910,2.7850,0.9470,-1.0030,3.108
3.4980,2.7810,0.9440,-1.0880,3.132
3.5080,2.7610,0.9550,-1.1340,3.134
3.5180,2.6700,0.9680,-1.0930,3.043
3.5280,2.5230,0.9630,-1.0270,2.889
3.5410,2.3650,0.9450,-0.9310,2.712
3.5490,2.1530,0.8730,-0.9890,2.525
3.5580,1.8740,0.7350,-1.1800,2.333
3.5680,1.4250,0.5610,-1.4190,2.088
3.5780,0.8720,0.4070,-1.6700,1.927
3.5890,0.3460,0.2280,-1.7650,1.813
3.5980,-0.0330,0.1050,-1.6800,1.684
3.6080,-0.3030,0.0580,-1.4280,1.461
3.6180,-0.4380,-0.0200,-1.0600,1.147
3.6280,-0.4780,-0.1620,-0.7580,0.911
3.6400,-0.5770,-0.2000,-0.5810,0.843
3.6480,-0.7040,-0.2070,-0.5480,0.916
3.6600,-0.7910,-0.2120,-0.5890,1.009
3.6680,-0.8030,-0.2000,-0.6820,1.072
3.6780,-0.7400,-0.1860,-0.8070,1.111
3.6880,-0.6260,-0.2000,-0.9660,1.168
3.6970,-0.3920,-0.3320,-1.1590,1.268
3.7090,-0.1610,-0.5060,-1.3680,1.467
3.7170,-0.0670,-0.6760,-1.5680,1.709
3.7280,0.0080,-0.8220,-1.6810,1.871
3.7410,0.0000,-0.9240,-1.6920,1.928
3.7480,-0.0980,-1.0420,-1.5990,1.911
3.7580,-0.2360,-1.2240,-1.4830,1.937
3.7680,-0.4550,-1.3140,-1.3610,1.946
3.7780,-0.7620,-1.3870,-1.2120,1.993
3.7910,-0.6950,-1.8950,-1.0110,2.257
3.7980,0.0570,-3.1980,-0.8380,3.306
3.8080,1.1220,-4.7990,-0.8030,4.993
3.8180,2.0820,-6.1640,-0.8320,6.559
3.8290,2.3680,-6.4880,-0.7840,6.951
3.8390,1.7190,-5.0490,-0.3590,5.346
3.8480,0.6940,-3.1940,0.5800,3.320
3.8580,-0.4120,-1.6620,1.6100,2.350
3.8680,-1.5980,-0.0420,2.6850,3.125
3.8780,-2.4320,1.5370,3.6050,4.612
3.8880,-2.5280,2.8050,4.2430,5.680
3.8980,-1.9900,3.6540,4.3710,6.035
3.9080,-1.0440,3.9810,4.0430,5.769
3.9180,0.1440,3.8620,3.2770,5.067
3.9280,1.3670,3.5320,2.1720,4.366
3.9390,2.3630,3.0220,0.9030,3.941
3.9470,2.7500,2.4630,-0.6390,3.747
3.9590,2.7830,1.8180,-2.2200,3.997
3.9680,2.3250,1.2730,-3.6100,4.479
3.9780,1.4860,0.8310,-4.5640,4.871
3.9910,0.6090,0.2540,-4.9260,4.970
3.9980,-0.1880,-0.3060,-4.7710,4.784
4.0080,-0.8240,-0.6990,-4.1620,4.300
4.0180,-1.1670,-0.8620,-3.3420,3.643
4.0270,-1.1390,-0.9770,-2.3870,2.820
4.0390,-0.9750,-1.0220,-1.4480,2.023
4.0470,-0.9430,-1.0330,-0.6120,1.527
4.0590,-0.9380,-0.9060,0.1830,1.317
4.0670,-0.9150,-0.6630,0.8450,1.411
4.0780,-0.7430,-0.2810,1.4130,1.621
4.0890,-0.3650,0.1030,1.7430,1.784
4.0970,0.0590,0.4640,1.7860,1.846
4.1080,0.3930,0.8090,1.6020,1.837
4.1170,0.6090,1.0460,1.2260,1.723
4.1280,0.6030,1.1510,0.7250,1.488
4.1390,0.3190,1.1670,-0.0030,1.210
4.1470,0.0780,0.9430,-0.8430,1.267
4.1590,-0.0660,0.7010,-1.5780,1.728
4.1670,-0.2670,0.5900,-2.1080,2.205
4.1780,-0.3810,0.4310,-2.5600,2.624
4.1890,-0.2660,0.2120,-2.8280,2.848
4.1970,-0.1980,0.0530,-2.9180,2.925
4.2080,-0.2590,-0.0160,-2.7640,2.776
4.2170,-0.3220,-0.0600,-2.3820,2.404
4.2280,-0.3970,-0.1200,-1.9140,1.958
4.2400,-0.3350,-0.1000,-1.3410,1.386
4.2480,-0.1830,0.0210,-0.8510,0.871
4.2590,0.0550,0.1920,-0.4600,0.501
4.2670,0.2290,0.3050,-0.2790,0.473
4.2780,0.2880,0.3750,-0.2300,0.526
4.2920,0.2250,0.4470,-0.2660,0.567
4.2970,0.1730,0.4660,-0.3280,0.596
4.3090,0.0730,0.5480,-0.3990,0.682
4.3170,0.0020,0.6150,-0.4840,0.783
4.3270,-0.0190,0.6410,-0.6320,0.900
4.3410,0.0680,0.6430,-0.7870,1.019
4.3470,0.4110,0.5240,-0.8780,1.102
4.3620,0.9020,0.3840,-0.9970,1.398
4.3670,1.3920,0.3820,-1.2900,1.936
4.3770,1.6900,0.6180,-1.7090,2.482
4.3880,1.6200,1.2140,-2.1450,2.949
4.3970,1.1290,1.8450,-2.3880,3.222
4.4070,0.2950,2.2800,-2.3190,3.265
4.4170,-0.8450,2.7290,-1.9670,3.469
4.4270,-2.3900,3.3530,-1.6030,4.419
4.4400,-4.0150,4.2060,-1.3840,5.977
4.4470,-5.5560,5.1470,-1.1940,7.667
4.4610,-6.5010,5.6010,-0.7370,8.613
4.4700,-6.5790,5.2440,-0.3030,8.419
4.4790,-6.2390,4.6280,-0.2490,7.772
4.4890,-6.1500,4.4050,-0.4800,7.580
4.4970,-6.0840,4.6600,-0.5750,7.685
4.5070,-5.8220,4.8250,-0.3420,7.569
4.5170,-5.5210,4.6080,0.1510,7.193
4.5270,-5.3300,4.1030,0.7980,6.774
4.5380,-5.1920,3.2940,1.5130,6.332
4.5470,-4.9120,2.4260,2.0460,5.848
4.5580,-3.3950,1.2530,2.0900,4.179
4.5670,-0.8890,-0.3950,1.4130,1.715
4.5770,1.6830,-2.3790,0.4620,2.951
4.5900,4.0430,-4.5600,-0.0780,6.095
4.5970,6.0210,-6.9190,-0.2700,9.176
4.6080,7.9260,-8.8800,-0.3920,11.909
4.6160,9.8000,-9.6310,-1.0910,13.784
4.6270,11.3440,-10.0070,-2.8610,15.395
4.6400,11.7850,-10.9980,-4.8970,16.847
4.6470,10.9980,-12.5320,-6.0000,17.720
4.6590,10.1440,-14.6060,-5.2330,18.537
4.6670,9.9460,-16.6230,-3.2310,19.639
4.6770,10.8550,-18.6450,-1.3240,21.615
4.6900,11.8410,-20.4860,-0.7020,23.672
4.6970,11.7840,-20.8570,-0.8730,23.972
4.7070,11.2170,-20.8750,-0.6500,23.707
4.7170,10.1420,-20.7270,-0.2320,23.076
4.7290,8.0460,-19.7030,0.4270,21.287
4.7370,5.8010,-18.0990,1.4930,19.064
4.7470,4.4420,-16.0460,2.2410,16.800
4.7580,3.6880,-13.4200,1.8050,14.034
4.7680,3.3230,-10.6460,0.3760,11.159
4.7770,2.8090,-7.9220,-1.7160,8.579
4.7880,1.6650,-5.1320,-3.1510,6.248
4.8000,-0.1920,-2.4800,-2.8840,3.809
4.8080,-2.6800,0.3720,-1.2770,2.992
4.8170,-5.1700,3.8140,0.7190,6.465
4.8270,-7.5830,8.0350,2.8670,11.414
4.8380,-10.0320,12.8480,5.0450,17.064
4.8470,-11.8670,17.1540,6.8690,21.961
4.8570,-11.7390,18.4090,7.4600,23.073
4.8670,-9.1740,14.9110,5.8040,18.444
4.8770,-6.7980,10.1420,2.2410,12.414
4.8880,-6.2480,7.5940,-1.7270,9.984
4.8980,-5.7970,5.9340,-5.4740,9.939
4.9070,-5.1660,4.3890,-8.6360,10.979
4.9170,-4.3300,3.4910,-9.7440,11.220
4.9270,-3.3910,3.8680,-7.3810,8.997
4.9380,-2.6900,5.0290,-2.6110,6.273
4.9530,-2.1450,5.6200,2.1040,6.373
4.9560,-2.1620,5.3140,5.3160,7.821
4.9720,-2.9560,5.0940,7.0530,9.189
4.9780,-4.3440,5.6560,7.7550,10.536
4.9870,-5.5670,6.5650,7.6880,11.541
4.9970,-6.2510,7.1280,6.6840,11.600
5.0070,-6.4450,7.3180,4.9960,10.957
5.0170,-6.8140,7.3960,3.0030,10.495
5.0270,-7.6750,7.3140,0.9130,10.641
5.0390,-8.9220,7.1100,-1.0480,11.457
5.0480,-9.9170,6.9750,-2.6600,12.413
5.0580,-10.1400,6.9420,-3.8460,12.876
5.0670,-9.3990,6.9320,-4.4200,12.487
5.0770,-8.0350,6.9820,-4.2610,11.466
5.0870,-6.8590,7.2850,-3.4870,10.596
5.0960,-5.7890,7.4770,-2.3520,9.744
5.1080,-4.7120,7.5130,-1.2310,8.953
5.1160,-3.8970,7.7410,-0.3140,8.672
5.1260,-3.4770,8.1080,0.3300,8.828
5.1390,-3.6460,8.4980,0.5880,9.266
5.1470,-4.3310,8.7500,0.4520,9.774
5.1560,-5.4130,8.6490,0.0510,10.203
5.1670,-6.2380,8.2170,-0.3100,10.321
5.1770,-6.8360,7.8980,-0.4750,10.456
5.1870,-7.3150,7.7090,-0.5590,10.642
5.1960,-7.6130,7.6360,-0.5380,10.796
5.2070,-7.6580,7.6380,-0.3680,10.822
5.2170,-7.4270,7.5810,-0.1280,10.614
5.2260,-6.7170,7.4520,0.0760,10.033
5.2380,-5.1880,6.4670,-0.0460,8.291
5.2470,-1.5370,2.1560,-0.6860,2.735
5.2590,1.3790,-3.6210,-2.1460,4.429
5.2670,4.0300,-9.0750,-3.2890,10.460
5.2760,6.7490,-13.8420,-3.2950,15.748
5.2880,8.6810,-15.0550,-2.1190,17.507
5.2960,11.3940,-15.2080,0.0410,19.003
5.3070,14.6330,-17.2170,1.7720,22.665
5.3160,16.1850,-18.7810,1.6920,24.850
5.3270,14.0510,-16.9670,0.0170,22.030
5.3390,9.5960,-14.4140,-1.1020,17.351
5.3470,5.6070,-13.3610,-1.1520,14.536
5.3560,2.7050,-13.5470,-0.6920,13.832
5.3670,0.6270,-13.2720,-0.3520,13.291
5.3760,0.4980,-12.5960,-0.4610,12.614
5.3870,2.3160,-12.0390,-1.2970,12.328
5.3960,4.6140,-11.4310,-2.3500,12.549
5.4070,6.1190,-10.3330,-3.0800,12.398
5.4160,7.0210,-8.8690,-3.2760,11.776
5.4280,7.1050,-7.1350,-2.9350,10.488
5.4440,6.4780,-5.7250,-2.4250,8.979
5.4460,5.4690,-4.5040,-1.7730,7.303
5.4600,3.9820,-3.1610,-1.2190,5.228
5.4680,2.5870,-1.9200,-0.7820,3.315
5.4760,1.7720,-1.0720,-0.6890,2.183
5.4860,1.2620,-0.3730,-0.9450,1.620
5.4960,0.8160,0.3670,-1.3510,1.620
5.5060,0.2290,1.0870,-1.7160,2.044
5.5150,-0.4710,1.6830,-1.8360,2.535
5.5270,-1.1710,2.1970,-1.8080,3.077
5.5380,-1.7340,2.6090,-1.7210,3.574
5.5460,-2.3010,2.9460,-1.6100,4.070
5.5570,-2.9310,3.2910,-1.5100,4.658
5.5680,-3.4520,3.6040,-1.4130,5.187
5.5760,-3.7070,3.7520,-1.4040,5.458
5.5870,-3.6610,3.7380,-1.4790,5.437
5.5960,-3.3190,3.5720,-1.5010,5.102
5.6060,-2.8170,3.2330,-1.5570,4.562
5.6160,-2.5000,2.9440,-1.6560,4.202
5.6260,-2.3460,2.6220,-1.5480,3.844
5.6400,-2.1670,2.2360,-1.1810,3.330
5.6460,-1.8590,1.7350,-0.7560,2.653
5.6560,-1.4910,1.2050,-0.3360,1.946
5.6660,-1.1820,0.7670,0.1820,1.421
5.6760,-0.9910,0.4930,0.6890,1.304
5.6870,-0.8710,0.2690,1.0460,1.387
5.6960,-0.7040,0.1000,1.2390,1.429
5.7070,-0.5700,-0.0850,1.2570,1.383
5.7180,-0.7790,-0.2830,1.1590,1.425
5.7260,-1.0640,-0.4150,1.0680,1.564
5.7390,-1.1860,-0.4400,0.9630,1.590
5.7460,-1.0370,-0.4920,0.8770,1.444
5.7580,-0.7640,-0.5100,0.8400,1.245
5.7670,-0.4550,-0.4440,0.8090,1.029
5.7760,-0.2410,-0.3130,0.7710,0.866
5.7860,-0.0990,-0.1780,0.6800,0.710
5.7960,0.0030,-0.0970,0.5340,0.543
5.8060,0.0740,-0.0330,0.3710,0.380
5.8160,0.1830,0.0270,0.2230,0.290
5.8260,0.2470,0.0520,0.0730,0.263
5.8360,0.2340,0.0740,-0.0900,0.261
5.8460,0.2260,0.1660,-0.2030,0.346
5.8620,0.2300,0.2490,-0.2980,0.451
5.8660,0.1660,0.3630,-0.3800,0.551
5.8760,0.1140,0.5020,-0.4800,0.704
5.8870,0.1500,0.5560,-0.6260,0.851
5.8960,0.1660,0.5570,-0.7870,0.978
5.9060,0.1330,0.6020,-0.8980,1.089
5.9160,0.0040,0.6330,-0.9120,1.110
5.9260,-0.1460,0.6180,-0.8300,1.045
5.9380,-0.1880,0.5960,-0.6350,0.891
5.9470,-0.0610,0.5050,-0.4320,0.667
5.9580,0.1040,0.4200,-0.3270,0.542
5.9660,0.2600,0.3730,-0.2590,0.523
5.9760,0.4140,0.2970,-0.2490,0.567
5.9860,0.6250,0.1950,-0.3250,0.731
5.9960,0.9140,-0.0240,-0.4100,1.002
6.0060,1.1910,-0.2750,-0.4400,1.299
6.0150,1.3000,-0.3770,-0.4590,1.429
6.0260,1.2310,-0.2560,-0.4490,1.335
6.0360,1.0880,-0.0320,-0.4010,1.160
6.0460,0.7970,0.1350,-0.3970,0.901
6.0570,0.4480,0.2770,-0.4020,0.663
6.0650,0.0350,0.4730,-0.4850,0.678
6.0750,-0.4180,0.7480,-0.5760,1.032
6.0880,-0.7930,1.0380,-0.6560,1.462
6.0960,-1.1160,1.4110,-0.6660,1.918
6.1060,-1.4680,1.8920,-0.5620,2.460
6.1190,-1.8260,2.4910,-0.4030,3.115
6.1260,-2.0470,3.1050,-0.2320,3.726
6.1370,-2.0170,3.6630,-0.0240,4.182
6.1460,-1.9750,4.1090,0.1300,4.561
6.1560,-2.0090,4.4750,0.1260,4.907
6.1650,-2.1810,4.8620,-0.0860,5.329
6.1760,-2.5200,5.2960,-0.2750,5.871
6.1860,-2.8100,5.6100,-0.5010,6.294
6.1950,-2.9750,5.8870,-0.7130,6.634
6.2060,-3.0630,6.1470,-0.7690,6.911
6.2150,-2.8780,6.3970,-0.7490,7.054
6.2260,-2.3140,6.3920,-0.8550,6.852
6.2390,-1.5980,6.2220,-1.3750,6.569
6.2460,-1.1040,5.5860,-1.8120,5.975
6.2560,-0.5480,4.7380,-2.0370,5.186
6.2650,-0.1280,3.5040,-2.2830,4.184
6.2760,0.5540,1.9050,-2.3490,3.075
6.2860,1.2230,0.2990,-2.3470,2.663
6.2950,2.1600,-1.6110,-2.5860,3.735
6.3060,3.6730,-3.9620,-2.8790,6.122
6.3150,5.8240,-6.6310,-2.5470,9.186
6.3260,7.7170,-8.8410,-1.1630,11.793
6.3360,9.1610,-9.8320,1.2460,13.496
6.3460,10.4180,-10.3490,3.6300,15.127
6.3550,11.1310,-11.1980,4.6140,16.449
6.3690,11.2110,-12.4510,3.5470,17.126
6.3750,10.1150,-14.0690,0.7790,17.345
6.3900,8.9650,-15.9590,-2.0520,18.419
6.3950,8.3440,-17.5840,-4.3550,19.945
6.4070,8.6590,-19.3910,-5.6730,21.981
6.4170,9.5550,-20.6540,-5.8300,23.492
6.4260,10.5080,-20.8990,-4.6540,23.850
6.4350,10.2520,-20.3980,-2.5410,22.970
6.4450,8.9880,-19.1270,0.3140,21.136
6.4570,7.9060,-17.6860,2.9270,19.593
6.4650,6.6630,-16.4150,4.2900,18.228
6.4750,5.1260,-14.9960,4.8680,16.579
6.4860,3.2380,-13.4470,5.0270,14.717
6.4950,0.8640,-11.2330,4.8570,12.269
6.5050,-1.5950,-8.2420,4.7520,9.647
6.5150,-3.8840,-4.6650,4.7170,7.688
6.5260,-5.7700,-1.2340,4.3460,7.328
6.5350,-8.6300,2.7550,3.1560,9.593
6.5450,-11.9070,7.7280,2.0920,14.348
6.5560,-14.4000,13.2850,1.4430,19.645
6.5650,-15.3750,17.5960,0.9360,23.386
6.5750,-13.8570,18.9780,0.2610,23.500
6.5860,-9.9650,16.2940,-1.1580,19.135
6.5950,-7.0330,11.7920,-3.1530,14.087
6.6060,-6.2970,8.5410,-4.5480,11.545
6.6150,-6.1770,6.6110,-4.9100,10.294
6.6260,-5.7710,5.2630,-4.3460,8.938
6.6350,-5.0910,4.3970,-2.7100,7.252
6.6450,-4.8610,4.2540,-0.1050,6.460
6.6590,-4.9590,4.2950,2.8020,7.134
6.6690,-5.2020,4.1900,5.3840,8.579
6.6750,-5.1990,3.6830,7.0490,9.502
6.6870,-5.1020,3.5340,7.6350,9.839
6.6950,-4.8950,4.0150,7.4180,9.752
6.7060,-4.8450,4.8740,6.3840,9.380
6.7140,-4.9840,5.8210,4.9060,9.099
6.7250,-5.3790,6.8590,3.3610,9.342
6.7370,-5.7760,7.9160,1.9450,9.990
6.7450,-6.2300,8.6700,0.7530,10.703
6.7560,-6.5210,9.0900,-0.4130,11.195
6.7660,-6.7160,9.1390,-1.5930,11.453
6.7760,-6.7630,8.9760,-2.8170,11.586
6.7860,-6.9420,8.6820,-4.1030,11.849
6.7940,-7.1500,8.2670,-5.1730,12.092
6.8050,-6.9920,7.9370,-5.6730,12.003
6.8150,-6.5570,7.8800,-5.4320,11.602
6.8250,-6.1190,8.0730,-4.3710,11.033
6.8350,-5.9450,8.1580,-2.9880,10.527
6.8460,-5.7310,8.1460,-1.7600,10.114
6.8550,-5.8130,8.3930,-0.7330,10.236
6.8650,-6.3690,8.8630,0.0180,10.914
6.8750,-7.0740,9.1400,0.4660,11.567
6.8850,-7.7170,9.0070,0.4570,11.870
6.8950,-7.9650,8.6770,0.4200,11.786
6.9060,-7.7140,8.2640,0.7330,11.329
6.9160,-7.0310,7.7000,1.3010,10.508
6.9250,-6.5120,7.3380,1.7970,9.974
6.9350,-5.9910,6.5960,1.8520,9.101
6.9450,-4.5750,4.3110,1.4600,6.453
6.9540,-2.3540,0.4010,0.8480,2.534
6.9650,0.0630,-3.9460,0.4330,3.970
6.9750,3.0130,-8.2030,0.2030,8.741
6.9850,6.1360,-11.9500,-0.3020,13.437
6.9950,9.2950,-14.6830,-0.9180,17.402
7.0050,11.4420,-16.4800,-1.2290,20.100
7.0150,12.7250,-18.3210,-0.6110,22.315
7.0250,13.4460,-19.5850,0.5280,23.762
7.0350,12.2790,-17.9930,1.7300,21.852
7.0450,9.4210,-14.5680,3.0300,17.611
7.0550,6.0300,-11.6290,3.9360,13.678
7.0650,2.8670,-10.1100,4.2060,11.319
7.0750,0.8890,-9.8590,3.9530,10.659
7.0860,-0.1330,-9.8150,3.0870,10.290
7.0950,-0.1740,-9.6020,1.4160,9.707
7.1060,0.7670,-9.4690,-0.9280,9.545
7.1150,2.3250,-9.3730,-3.1780,10.167
7.1250,4.0830,-8.8960,-4.6380,10.831
7.1350,5.9160,-7.9450,-5.3660,11.266
7.1460,6.8020,-6.7100,-5.6070,11.078
7.1550,7.3640,-5.5030,-5.1830,10.553
7.1650,7.2940,-4.4630,-4.1250,9.494
7.1750,6.1890,-3.8120,-2.5570,7.705
7.1860,4.9480,-3.2290,-1.3350,6.057
7.1940,3.6570,-2.5910,-0.2280,4.488
7.2050,2.6640,-1.9240,0.7660,3.374
7.2150,2.0960,-1.4080,1.4150,2.894
7.2250,1.7570,-0.9460,1.6640,2.598
7.2350,1.3290,-0.4710,1.5890,2.124
7.2450,0.9090,-0.0590,1.2890,1.578
7.2560,0.5630,0.2370,1.0090,1.179
7.2710,0.1920,0.4700,0.7560,0.911
7.2750,-0.2290,0.6790,0.5120,0.881
7.2860,-0.4340,0.7660,0.3600,0.951
7.2950,-0.5140,0.7740,0.2470,0.961
7.3050,-0.5520,0.8140,0.0840,0.987
7.3150,-0.5640,0.9070,-0.1640,1.081
7.3250,-0.4210,0.9080,-0.4530,1.099
7.3350,-0.3370,1.0590,-0.5860,1.256
7.3460,-0.3440,1.2780,-0.7570,1.525
7.3550,-0.4400,1.3440,-1.0200,1.744
7.3670,-0.6650,1.5200,-1.2320,2.067
7.3760,-0.7680,1.6820,-1.1990,2.204
7.3890,-0.9340,1.8170,-1.0220,2.284
7.3950,-1.1870,1.8850,-0.7970,2.366
7.4050,-1.3990,1.8890,-0.6420,2.437
7.4150,-1.6530,1.7950,-0.6590,2.528
7.4250,-1.9110,1.5930,-0.9030,2.647
7.4360,-2.1450,1.3340,-1.1470,2.774
7.4450,-2.3240,1.0340,-1.2360,2.828
7.4550,-2.3000,0.6860,-1.1750,2.672
7.4670,-2.1160,0.2750,-1.0200,2.365
7.4750,-1.8800,-0.1300,-0.7030,2.011
7.4850,-1.6720,-0.4540,-0.3220,1.762
7.4950,-1.5680,-0.6960,0.0490,1.716
7.5060,-1.4680,-0.8580,0.4270,1.753
7.5160,-1.4300,-0.8780,0.7560,1.840
7.5250,-1.3230,-0.8000,1.0490,1.868
7.5360,-1.1990,-0.6890,1.1850,1.821
7.5460,-1.0260,-0.5230,1.2790,1.721
7.5550,-0.8760,-0.3290,1.3370,1.632
7.5650,-0.8550,-0.0410,1.3630,1.609
7.5750,-0.9370,0.3280,1.3980,1.715
7.5860,-1.0480,0.6690,1.3260,1.818
7.5950,-1.0880,0.9580,1.1170,1.830
7.6070,-1.0450,1.1650,0.8440,1.778
7.6160,-0.7010,1.0190,0.5530,1.355
7.6270,0.1590,0.2200,0.1020,0.290
7.6350,0.9180,-0.8800,-0.5570,1.388
7.6450,1.0960,-1.6100,-1.3550,2.373
7.6550,0.6290,-1.8060,-1.8140,2.636
7.6650,0.0840,-1.6000,-1.5870,2.255
7.6760,-0.2940,-1.2130,-0.6700,1.417
7.6880,-0.4460,-0.9760,0.3160,1.119
7.6950,-0.5740,-0.8830,1.0710,1.502
7.7050,-0.7680,-0.8040,1.6420,1.983
7.7190,-1.1550,-0.6060,2.0740,2.450
7.7250,-1.6230,-0.3420,2.2720,2.813
7.7350,-1.9970,-0.1660,2.2280,2.997
7.7450,-2.1710,-0.0490,1.9520,2.920
7.7550,-2.0660,0.0930,1.5760,2.600
7.7660,-1.8480,0.3480,1.1580,2.208
7.7770,-1.5190,0.6510,0.6670,1.782
7.7860,-1.1020,0.8890,0.0030,1.416
7.7950,-0.6100,1.0500,-0.7210,1.412
7.8040,-0.0510,1.1850,-1.3680,1.811
7.8160,0.4080,1.3180,-1.8580,2.314
7.8250,0.7480,1.4450,-2.2460,2.773
7.8350,0.9260,1.5960,-2.4630,3.078
7.8450,1.0420,1.6510,-2.6340,3.279
7.8550,1.1710,1.6500,-2.6680,3.348
7.8640,1.2190,1.4970,-2.5630,3.209
7.8750,1.1860,1.3260,-2.2990,2.907
7.8880,1.1670,1.1090,-1.8700,2.468
7.8940,1.2000,0.7830,-1.3690,1.982
7.9040,1.2050,0.5070,-0.7760,1.520
7.9150,1.0670,0.3270,-0.2040,1.134
7.9240,0.8410,0.1930,0.1900,0.884
7.9340,0.6280,0.0610,0.4350,0.766
7.9440,0.4280,-0.0010,0.6480,0.777
7.9550,0.2830,0.0360,0.8400,0.887
7.9640,0.2180,0.1170,0.9070,0.940
7.9740,0.2310,0.2990,0.7800,0.867
7.9870,0.4510,0.4610,0.5120,0.823
7.9950,0.6750,0.6360,0.1810,0.945
8.0060,0.9080,0.7580,-0.1510,1.192
8.0160,1.2230,0.8570,-0.3960,1.545
8.0240,1.5400,0.9780,-0.4970,1.891
8.0340,1.7920,1.1220,-0.5990,2.197
8.0440,2.0350,1.1920,-0.6760,2.453
8.0540,2.1930,1.1890,-0.6470,2.577
8.0640,2.0390,1.2300,-0.5620,2.447
8.0750,1.6880,1.2460,-0.4520,2.146
8.0870,1.3540,1.2570,-0.4190,1.894
8.0940,1.2010,1.1890,-0.3740,1.731
8.1040,1.1540,1.0590,-0.3920,1.615
8.1130,1.1590,0.8250,-0.3830,1.473
8.1240,1.0570,0.6950,-0.2480,1.289
8.1340,0.8340,0.6400,-0.0170,1.051
8.1440,0.5930,0.5220,0.1670,0.807
8.1560,0.3180,0.3830,0.2420,0.554
8.1640,0.0080,0.2940,0.2820,0.407
8.1750,-0.2640,0.2420,0.2870,0.459
8.1880,-0.4830,0.2110,0.2450,0.581
8.1940,-0.5630,0.1550,0.1360,0.600
8.2040,-0.5280,0.0670,0.0000,0.532
8.2160,-0.4890,0.0790,-0.1310,0.512
8.2250,-0.4950,0.1010,-0.2080,0.546
8.2350,-0.5370,0.0870,-0.1870,0.575
8.2440,-0.5140,-0.0490,-0.1380,0.534
8.2540,-0.3890,-0.4170,-0.1010,0.579
8.2630,-0.3410,-0.7460,-0.0720,0.823
8.2750,-0.4390,-0.6980,0.0450,0.826
8.2920,-0.4070,-0.4820,0.1810,0.656
8.2930,-0.3030,-0.2550,0.1810,0.435
8.3040,-0.2130,-0.0530,0.1260,0.253
8.3140,-0.2790,0.1150,-0.0080,0.302
8.3240,-0.3630,0.1770,-0.1630,0.436
8.3340,-0.3290,0.1410,-0.2760,0.452
8.3440,-0.1460,-0.0690,-0.3600,0.395
8.3550,0.1110,-0.4030,-0.3920,0.573
8.3640,0.4450,-0.9160,-0.3760,1.086
8.3730,0.7720,-1.5400,-0.4900,1.791
8.3900,0.9540,-2.0330,-0.6510,2.338
8.3940,1.0560,-2.5190,-0.8670,2.866
8.4040,1.0300,-2.7650,-0.8850,3.080
8.4140,0.9230,-2.6900,-0.6590,2.919
8.4250,0.7490,-2.4780,-0.2570,2.601
8.4350,0.4780,-2.0590,0.1970,2.123
8.4450,0.1800,-1.6150,0.7040,1.771
8.4540,-0.0730,-1.2560,1.1590,1.711
8.4650,-0.1620,-1.0010,1.5420,1.846
8.4740,-0.0020,-0.9990,1.7400,2.006
8.4880,0.2290,-1.1240,1.6010,1.970
8.4930,0.3840,-1.1630,1.1240,1.662
8.5040,0.3150,-0.9410,0.5190,1.120
8.5190,-0.0020,-0.5190,0.1590,0.543
8.5230,-0.3670,-0.1220,0.0670,0.393
8.5350,-0.6090,0.1660,0.1140,0.641
8.5430,-0.7000,0.3820,0.0340,0.798
8.5530,-0.6590,0.4860,-0.3330,0.884
8.5640,-0.5430,0.5480,-0.8370,1.138
8.5740,-0.3960,0.5620,-1.2360,1.414
8.5890,-0.2420,0.4550,-1.2480,1.350
8.5940,-0.2910,0.6890,-0.6610,0.998
8.6040,-0.3450,1.1520,0.2600,1.230
8.6130,-0.3320,1.5800,1.0280,1.914
8.6240,-0.2640,2.0720,1.7380,2.717
8.6330,-0.1440,2.7760,2.3340,3.630
8.6440,-0.1710,3.5870,2.5650,4.413
8.6540,-0.6450,4.4100,2.3940,5.059
8.6630,-1.5730,5.1920,2.0600,5.803
8.6730,-2.5640,6.0250,1.7060,6.766
8.6900,-3.6030,6.9330,1.4670,7.950
8.6930,-4.6150,7.5710,1.3730,8.972
8.7040,-5.6560,7.9760,1.6730,9.920
8.7140,-7.2140,8.2600,1.3090,11.045
8.7240,-8.6400,8.3630,0.4600,12.033
8.7340,-9.4020,8.4640,-0.4060,12.657
8.7440,-9.5320,8.2260,-1.6330,12.696
8.7530,-9.0500,7.1200,-2.8480,11.862
8.7630,-8.6710,5.7530,-3.8150,11.083
8.7730,-8.7180,4.7690,-4.5720,10.938
8.7900,-8.2000,3.7330,-4.8890,10.251
8.7930,-7.1590,2.1370,-4.4040,8.673
8.8030,-4.6720,-0.2590,-3.4020,5.785
8.8130,-0.6640,-3.6660,-2.4360,4.451
8.8250,4.9880,-8.5090,-1.3760,9.959
8.8330,11.6370,-14.0130,-0.5590,18.224
8.8450,17.2340,-17.4300,-0.2020,24.512
8.8580,19.9870,-17.6340,0.0710,26.654
8.8630,20.5260,-16.3930,0.6180,26.276
8.8740,19.7000,-15.1490,0.3780,24.854
8.8860,16.9720,-13.4200,-1.1470,21.667
8.8940,14.3450,-13.4980,-2.6210,19.871
8.9040,11.2590,-16.2440,-4.2000,20.206
8.9160,8.6020,-20.1900,-5.4100,22.603
8.9240,6.1950,-23.8630,-6.5900,25.520
8.9340,3.8330,-25.5090,-7.4120,26.839
8.9430,2.6910,-25.2520,-7.0660,26.360
8.9540,2.6440,-24.2550,-5.7220,25.061
8.9640,2.6820,-23.0460,-2.6750,23.355
8.9730,2.1840,-21.5290,1.6060,21.699
8.9900,0.9270,-18.8220,6.0790,19.801
8.9920,0.0470,-15.3290,9.0210,17.786
9.0030,-0.8240,-11.4610,9.0560,14.630
9.0160,-1.7040,-7.8360,6.8490,10.546
9.0230,-2.7140,-4.4710,4.0080,6.589
9.0330,-4.3870,-1.2430,1.5920,4.830
9.0440,-6.5440,2.4230,0.4290,6.991
9.0540,-8.2570,6.3000,0.5010,10.398
9.0640,-9.3920,10.2420,0.9610,13.930
9.0750,-10.4600,14.4180,1.6850,17.892
9.0890,-10.6810,18.0630,2.8130,21.172
9.0930,-8.3500,19.3410,3.6200,21.375
9.1030,-4.1070,17.0190,3.1530,17.789
9.1140,-1.2100,12.5850,1.4540,12.726
9.1240,-1.1700,8.7440,-0.2250,8.825
9.1350,-3.2730,6.5470,-1.5040,7.472
9.1430,-5.2840,5.2920,-2.4270,7.862
9.1530,-5.9010,4.4690,-2.5400,7.826
9.1630,-5.3730,4.3190,-1.1570,6.990
9.1730,-4.5620,4.8680,1.2700,6.791
9.1830,-3.8190,5.2500,3.3520,7.306
9.1930,-2.9780,4.9090,4.3800,7.222
9.2030,-3.1230,4.5150,3.9920,6.788
9.2140,-4.0320,4.5590,3.2770,6.912
9.2240,-5.1770,5.0530,3.0080,7.835
9.2330,-6.1860,5.7860,3.1020,9.020
9.2440,-7.1600,6.4330,3.1730,10.135
9.2540,-7.9320,6.9690,3.1100,11.007
9.2700,-8.3710,7.4550,2.8020,11.554
9.2750,-8.4990,7.7610,2.1090,11.701
9.2850,-8.7500,7.7330,1.1150,11.731
9.2930,-9.0930,7.4850,0.1210,11.778
9.3040,-9.2630,7.2980,-0.8920,11.826
9.3170,-9.0710,7.1340,-1.8310,11.685
9.3240,-8.5430,6.9290,-2.5780,11.298
9.3340,-7.6520,6.9000,-2.9350,10.713
9.3440,-6.6660,7.1280,-2.9280,10.189
9.3550,-6.1460,7.6430,-2.4980,10.121
9.3640,-5.9080,8.2490,-1.6940,10.287
9.3740,-5.9010,8.5400,-0.8590,10.416
9.3930,-6.3680,8.6820,-0.0670,10.767
9.3930,-7.2220,9.0430,0.6800,11.593
9.4040,-7.9520,9.6860,1.0430,12.575
9.4180,-8.1020,10.1820,1.0520,13.055
9.4240,-8.1110,10.3190,0.7100,13.144
9.4340,-7.8580,10.0420,0.1850,12.752
9.4440,-7.4190,9.3830,-0.0820,11.962
9.4550,-6.8510,8.5900,-0.0570,10.988
9.4640,-5.9520,7.4280,-0.0600,9.519
9.4730,-4.2570,5.1410,-0.2750,6.680
9.4950,-0.9790,0.3540,-0.5340,1.170
9.4960,2.6730,-6.1230,-1.1600,6.781
9.5030,6.2210,-12.2370,-1.7970,13.845
9.5130,8.8970,-16.8180,-1.9660,19.128
9.5250,11.4650,-18.8750,-1.5200,22.136
9.5350,13.7950,-19.6940,-0.3670,24.048
9.5440,16.5220,-21.6900,0.6120,27.273
9.5530,17.7610,-21.7690,0.2250,28.096
9.5640,16.1270,-18.4810,-0.3580,24.531
9.5740,12.9700,-14.7560,0.0820,19.646
9.5860,10.1420,-12.9120,0.6660,16.432
9.5930,8.1370,-13.1910,0.9770,15.530
9.6040,6.4470,-13.9310,0.8050,15.372
9.6150,4.5610,-13.7040,0.0470,14.443
9.6260,3.1910,-12.5650,-1.4950,13.050
9.6350,2.7400,-11.2810,-3.2380,12.052
9.6440,2.6220,-9.8370,-4.3940,11.088
9.6580,2.7560,-8.1000,-4.6910,9.758
9.6630,3.1500,-6.3320,-4.3430,8.299
9.6750,3.3010,-4.7850,-3.6970,6.889
9.6920,3.2100,-3.3980,-2.9580,5.532
9.6930,2.8930,-2.1080,-2.2590,4.233
9.7030,2.3530,-1.0220,-1.5810,3.013
9.7150,1.7510,-0.0420,-1.0640,2.049
9.7240,1.1630,0.8930,-0.6760,1.615
9.7330,0.6740,1.7610,-0.4920,1.949
9.7430,0.3210,2.4870,-0.5700,2.572
9.7530,-0.0530,3.0400,-0.7610,3.134
9.7640,-0.5510,3.4900,-0.9100,3.649
9.7750,-1.0260,3.7950,-0.9070,4.035
9.7980,-1.4960,3.9810,-0.8090,4.329
9.7980,-1.9680,4.0590,-0.6990,4.565
9.8030,-2.4210,4.0820,-0.6240,4.787
9.8140,-2.8010,4.0730,-0.5530,4.974
9.8230,-3.0870,4.0640,-0.5200,5.130
9.8380,-3.1830,4.0120,-0.4670,5.143
9.8430,-3.1640,3.8930,-0.4740,5.039
9.8530,-3.0980,3.7960,-0.5130,4.926
9.8630,-3.0130,3.6250,-0.4310,4.733
9.8730,-2.9670,3.3570,-0.3590,4.495
9.8970,-2.8010,2.9860,-0.3100,4.106
9.8970,-2.5820,2.5560,-0.2450,3.641
9.9040,-2.4340,2.0640,-0.1960,3.197
9.9140,-2.3730,1.4160,-0.1800,2.769
9.9230,-2.3140,0.5840,-0.2290,2.398
9.9330,-2.2860,-0.2250,-0.2750,2.313
9.9430,-2.2400,-0.9650,-0.2350,2.450
9.9530,-1.8340,-1.7840,-0.1450,2.563
9.9630,-1.2720,-2.4320,0.0710,2.745
9.9730,-0.8240,-2.7620,0.3470,2.903
9.9970,-0.6100,-2.8130,0.5980,2.940
9.9980,-0.4150,-2.7520,0.8220,2.902
10.0030,-0.1090,-2.6930,1.0200,2.882
10.0150,0.1430,-2.5970,1.2250,2.875
10.0230,0.3010,-2.3730,1.4190,2.781
10.0330,0.2900,-1.9820,1.6200,2.576
10.0470,0.2150,-1.4910,1.7480,2.308
10.0530,0.1360,-0.9950,1.8920,2.142
10.0640,0.0600,-0.5450,1.8960,1.974
10.0730,0.0380,-0.1650,1.8230,1.831
10.0860,-0.0780,0.1200,1.6060,1.612
10.0940,-0.2570,0.2710,1.2560,1.310
10.1030,-0.4740,0.3480,0.8360,1.022
10.1140,-0.7380,0.4520,0.3310,0.927
10.1230,-0.8330,0.4970,-0.1130,0.977
10.1340,-0.7430,0.4750,-0.4360,0.984
10.1430,-0.6240,0.3670,-0.7280,1.027
10.1530,-0.3470,0.2350,-0.9740,1.060
10.1700,-0.1370,0.0300,-1.2200,1.228
10.1720,0.0620,-0.0380,-1.4430,1.445
10.1890,0.2020,-0.0330,-1.7080,1.720
10.1930,0.3150,-0.0840,-2.0440,2.070
10.2040,0.4630,-0.2550,-2.2610,2.322
10.2130,0.6180,-0.3300,-2.3510,2.453
10.2240,0.7180,-0.1090,-2.4640,2.569
10.2340,0.9250,0.2250,-2.9030,3.055
10.2430,1.3530,0.3460,-3.4310,3.704
10.2550,1.8370,0.2710,-3.9920,4.403
10.2630,2.1350,0.1310,-4.1380,4.658
10.2730,2.1450,0.1210,-3.7670,4.337
10.2980,1.8470,0.0910,-2.9400,3.473
10.2990,1.2880,0.1640,-2.0180,2.400
10.3040,0.6390,0.0200,-1.2600,1.413
10.3130,0.1610,-0.2000,-0.7290,0.773
10.3220,-0.1810,-0.3270,-0.3050,0.482
10.3340,-0.6270,-0.4350,-0.0170,0.763
10.3420,-0.9720,-0.5220,0.1580,1.115
10.3530,-1.0590,-0.6400,0.3390,1.283
10.3710,-1.1250,-0.7050,0.4850,1.413
10.3730,-1.1330,-0.6520,0.5470,1.417
10.3970,-1.1560,-0.6410,0.5010,1.414
10.3970,-1.1870,-0.6530,0.3810,1.407
10.4030,-1.2810,-0.6500,0.2310,1.455
10.4130,-1.3510,-0.5730,0.1020,1.471
10.4230,-1.3070,-0.5490,0.0610,1.419
10.4330,-1.1280,-0.5150,0.0830,1.243
10.4430,-0.8840,-0.4220,0.1450,0.990
10.4530,-0.6190,-0.2720,0.2310,0.714
10.4710,-0.3740,-0.1390,0.3530,0.533
10.4730,-0.1830,-0.0500,0.4080,0.450
10.4970,-0.0690,-0.0840,0.3820,0.397
10.4970,-0.0650,-0.1050,0.3250,0.348
10.5020,-0.1410,-0.0760,0.2630,0.308
10.5130,-0.2080,-0.0400,0.1900,0.285
10.5230,-0.2330,-0.0460,0.1270,0.269
10.5330,-0.1440,-0.0870,0.0870,0.189
10.5430,-0.0540,-0.1360,0.0630,0.159
10.5580,-0.0170,-0.1460,0.0230,0.149
10.5620,0.0040,-0.1110,-0.0320,0.116
10.5770,0.0690,-0.0410,-0.1030,0.131
10.5830,0.1550,-0.0020,-0.1660,0.227
10.5940,0.2550,-0.0700,-0.2140,0.340
10.6030,0.2860,-0.2160,-0.2030,0.412
10.6130,0.2960,-0.3430,-0.0730,0.459
10.6300,0.3640,-0.4760,0.0620,0.602
10.6320,0.4380,-0.6210,0.2180,0.791
10.6440,0.5210,-0.7260,0.3020,0.943
10.6530,0.5740,-0.6950,0.2960,0.949
10.6650,0.5770,-0.5660,0.2510,0.846
10.6730,0.5380,-0.4060,0.1960,0.702
10.6830,0.4720,-0.2230,0.1340,0.539
10.6930,0.3510,-0.0600,0.0430,0.359
10.7150,0.1680,0.0350,-0.1330,0.217
10.7150,0.0340,0.1270,-0.3660,0.389
10.7230,-0.0950,0.2570,-0.5870,0.648
10.7330,-0.2960,0.4700,-0.7380,0.924
10.7430,-0.5590,0.7390,-0.8650,1.268
10.7520,-0.8550,1.0060,-0.9530,1.628
10.7630,-1.1820,1.2190,-1.0100,1.976
10.7730,-1.4700,1.4210,-1.1090,2.326
10.7840,-1.7730,1.5100,-1.1460,2.596
10.7930,-2.0610,1.6260,-1.0820,2.839
10.8130,-2.4190,1.8330,-0.9270,3.173
10.8130,-2.7340,2.1550,-0.7210,3.555
10.8230,-2.9700,2.6500,-0.6000,4.025
10.8320,-3.1040,3.3500,-0.6280,4.610
10.8420,-3.1950,4.1070,-0.6340,5.242
10.8520,-3.3750,5.0220,-0.4980,6.071
10.8630,-3.6790,6.0650,-0.1610,7.095
10.8730,-4.0450,7.1070,0.3070,8.183
10.8880,-4.2870,7.9690,0.9420,9.098
10.8930,-4.3310,8.3030,1.4990,9.484
10.9160,-4.2020,7.9740,1.7010,9.173
10.9160,-4.0010,7.2410,1.4070,8.392
10.9220,-3.8150,6.1940,0.7860,7.317
10.9340,-3.7800,5.0480,0.1190,6.308
10.9420,-3.9790,4.0620,-0.3440,5.697
10.9520,-4.1310,3.0750,-0.6140,5.186
10.9630,-4.1790,2.3210,-0.6230,4.821
10.9720,-3.8670,1.9060,-0.2610,4.319
10.9850,-3.1640,1.2980,0.5020,3.457
10.9930,-2.5490,0.3720,1.4450,2.954
11.0130,-1.8730,-0.4880,2.7320,3.348
11.0130,-1.3990,-1.1410,3.8900,4.288
11.0240,-0.4810,-2.1160,4.6730,5.152
11.0330,1.3970,-3.9340,4.8470,6.397
11.0430,4.2520,-6.3420,4.0950,8.664
11.0530,7.2380,-8.5180,2.6150,11.480
11.0650,9.6030,-9.9720,1.1550,13.892
11.0720,11.1580,-11.0330,0.1690,15.693
11.0820,11.8270,-11.8310,-0.5280,16.737
11.0920,11.6070,-12.1270,-1.3270,16.839
11.1030,11.2380,-12.3020,-2.3420,16.826
11.1120,11.3600,-12.5620,-3.4100,17.277
11.1260,11.4870,-13.2250,-4.5600,18.101
11.1330,11.3610,-14.2060,-5.6610,19.051
11.1420,10.6610,-15.0450,-6.2440,19.468
11.1530,9.7630,-15.6590,-5.8840,19.369
11.1620,8.6790,-16.3930,-4.9590,19.200
11.1720,7.5250,-17.1140,-4.0270,19.124
11.1850,6.5750,-18.0890,-3.4160,19.548
11.1920,5.9360,-19.0680,-3.0350,20.200
11.2130,5.5470,-19.3970,-2.0900,20.283
11.2130,5.4140,-18.7350,-0.3140,19.504
11.2230,5.2920,-17.4630,1.8940,18.345
11.2320,4.9220,-15.8510,3.9030,17.050
11.2420,4.0520,-13.8400,5.6430,15.486
11.2520,3.2250,-11.5400,6.6210,13.690
11.2640,2.3560,-9.3900,6.3230,11.563
11.2720,1.5470,-7.4620,4.5880,8.895
11.2830,1.1030,-5.5330,2.3430,6.109
11.2920,0.3570,-2.7910,0.1620,2.818
11.3100,-0.8260,0.6200,-1.5820,1.889
11.3130,-2.2990,4.0820,-2.6870,5.401
11.3270,-4.5420,8.2250,-2.9290,9.842
11.3320,-7.0150,12.7250,-2.4720,14.739
11.3430,-8.8820,17.0030,-1.5770,19.248
11.3520,-9.0780,20.0210,-0.2010,21.984
11.3630,-6.8160,19.9070,1.2960,21.081
11.3720,-3.7400,16.8900,1.6310,17.376
11.3820,-3.6340,13.6640,-0.1510,14.140
11.3920,-5.5680,10.9620,-2.5790,12.563
11.4020,-7.7920,7.8960,-4.8270,12.098
11.4300,-10.6830,5.0420,-6.7890,13.625
11.4310,-13.9540,3.4900,-8.2820,16.598
11.4310,-15.9830,3.0400,-8.5590,18.384
11.4420,-16.1310,3.2800,-7.2620,17.992
11.4520,-14.5090,3.6440,-4.6630,15.670
11.4630,-11.6660,3.4050,-1.6550,12.265
11.4720,-9.0660,2.7920,0.9540,9.534
11.4820,-6.9290,2.4330,3.2110,8.015
11.4930,-5.6050,2.4940,5.0600,7.952
11.5020,-4.8870,2.9920,6.4340,8.616
11.5190,-4.5230,3.8580,7.0610,9.230
11.5210,-4.3200,4.8240,6.9090,9.469
11.5330,-4.1360,5.6950,6.1640,9.356
11.5420,-3.9810,6.3110,5.2830,9.143
11.5520,-4.1090,6.7190,4.5930,9.117
11.5620,-4.5290,6.9820,4.2520,9.346
11.5720,-5.1440,7.1250,4.0630,9.682
11.5830,-5.6940,7.1890,3.7860,9.922
11.5920,-6.0380,7.1810,3.2460,9.928
11.6020,-6.1140,7.1760,2.4010,9.728
11.6120,-6.1000,7.2790,1.4370,9.605
11.6210,-6.1440,7.6100,0.4700,9.792
11.6320,-6.1920,8.0360,-0.3270,10.150
11.6420,-6.4030,8.5170,-0.9380,10.697
11.6520,-6.8050,8.7920,-1.4370,11.210
11.6610,-7.2250,8.8470,-1.7670,11.558
11.6720,-7.6860,8.7370,-2.0040,11.808
11.6820,-8.1580,8.5640,-2.1240,12.017
11.6920,-8.5990,8.3740,-2.2500,12.212
11.7050,-9.0550,8.0170,-2.4420,12.338
11.7130,-9.2560,7.3750,-2.4500,12.086
11.7250,-9.1480,6.5100,-2.2470,11.451
11.7320,-8.2210,5.0810,-1.7250,9.817
11.7420,-5.8730,2.1800,-1.0210,6.347
11.7520,-2.6450,-2.4420,-0.3350,3.615
11.7620,0.9960,-7.3980,0.3340,7.472
11.7720,4.8660,-11.7140,0.9760,12.722
11.7810,8.3210,-14.4370,1.0930,16.699
11.7920,11.7180,-16.2090,0.5770,20.009
11.8020,14.5210,-17.7620,0.0100,22.942
11.8120,17.5190,-20.0590,-0.3620,26.635
11.8310,19.7890,-20.9780,-1.3080,28.869
11.8320,19.2610,-18.4840,-2.2440,26.790
11.8430,16.3210,-13.9180,-1.5460,21.505
11.8520,13.7910,-10.6790,0.3860,17.447
11.8780,11.4380,-8.9070,2.2900,14.677
11.8780,8.8420,-7.8410,3.6960,12.382
11.8810,6.2700,-7.0250,4.2990,10.351
11.8910,4.3260,-6.5840,4.0160,8.843
11.9020,3.0650,-6.1760,3.1070,7.562
11.9140,2.6230,-5.7080,1.7150,6.512
11.9220,3.0530,-5.2670,0.1640,6.090
11.9320,3.8230,-4.7810,-1.3300,6.264
11.9410,4.5880,-3.9320,-2.4340,6.514
11.9520,5.0790,-3.0980,-3.2060,6.758
11.9630,5.1870,-2.2770,-3.5700,6.696
11.9710,4.7340,-1.6840,-3.6470,6.209
11.9810,3.7700,-1.1710,-3.4180,5.222
11.9910,2.6550,-0.7370,-2.8840,3.989
12.0010,1.8430,-0.2870,-2.2010,2.885
12.0110,1.3650,-0.0430,-1.5950,2.100
12.0210,1.0510,0.0230,-1.1840,1.583
12.0310,0.6740,0.2050,-0.9910,1.216
12.0410,0.3900,0.4760,-0.8740,1.069
12.0510,0.1600,0.8150,-0.6320,1.044
12.0630,-0.1640,1.2120,-0.3470,1.271
12.0710,-0.5140,1.5280,-0.0220,1.612
12.0810,-0.8530,1.8030,0.3650,2.028
12.0910,-1.1280,2.0970,0.7890,2.508
12.1060,-1.2370,2.3700,1.1310,2.903
12.1110,-1.2680,2.5710,1.3700,3.177
12.1220,-1.3180,2.7460,1.5380,3.412
12.1320,-1.4490,2.8300,1.4730,3.504
12.1410,-1.5750,2.8000,1.2380,3.443
12.1510,-1.7120,2.6840,0.8160,3.286
12.1610,-1.7680,2.4480,0.2590,3.031
12.1710,-1.7030,1.9930,-0.3660,2.647
12.1810,-1.5150,1.2810,-0.9170,2.186
12.1910,-1.5970,0.6800,-1.4430,2.257
12.2010,-1.7990,0.4400,-1.9520,2.691
12.2120,-1.9620,0.3400,-2.2940,3.038
12.2210,-2.0120,0.2420,-2.3300,3.088
12.2310,-2.0210,0.1980,-2.1430,2.952
12.2420,-1.9340,0.0440,-1.8020,2.644
12.2510,-1.9280,-0.2620,-1.4460,2.424
12.2620,-2.0000,-0.6400,-1.1550,2.397
12.2710,-2.0970,-0.8710,-0.8580,2.427
12.2810,-2.1430,-1.0130,-0.5210,2.427
12.2910,-2.1080,-1.1100,-0.2140,2.392
12.3040,-2.0880,-1.1840,0.1330,2.404
12.3110,-2.0850,-1.2370,0.4420,2.464
12.3220,-2.0920,-1.2720,0.7160,2.551
12.3310,-1.9980,-1.2690,0.9870,2.564
12.3410,-1.7180,-1.3810,1.2120,2.515
12.3510,-1.4010,-1.4700,1.3580,2.443
12.3620,-1.1690,-1.4840,1.4290,2.369
12.3710,-1.0240,-1.3620,1.4090,2.211
12.3810,-0.8850,-1.1470,1.2760,1.931
12.3910,-0.7100,-0.9580,1.0270,1.574
12.4020,-0.5170,-0.7890,0.7860,1.228
12.4120,-0.4010,-0.6030,0.6110,0.947
12.4310,-0.3750,-0.4190,0.4530,0.722
12.4310,-0.3320,-0.2840,0.3470,0.558
12.4410,-0.3100,-0.1940,0.2130,0.423
12.4520,-0.3860,-0.0710,0.1090,0.407
12.4610,-0.5720,0.0310,0.0260,0.573
12.4710,-0.7610,0.0170,-0.0360,0.762
12.4800,-0.9640,-0.0370,-0.0780,0.968
12.4910,-1.0920,-0.1250,-0.1160,1.105
12.5040,-1.1990,-0.2640,-0.1830,1.241
12.5120,-1.2620,-0.4070,-0.2750,1.354
12.5220,-1.3040,-0.4510,-0.3370,1.420
12.5310,-1.3510,-0.5110,-0.4320,1.508
12.5410,-1.3710,-0.5280,-0.5010,1.552
12.5510,-1.4220,-0.5440,-0.5290,1.612
12.5620,-1.4380,-0.4980,-0.5640,1.623
12.5710,-1.2860,-0.4020,-0.6160,1.482
12.5820,-0.9770,-0.2990,-0.5840,1.177
12.5900,-0.7300,-0.2610,-0.5040,0.925
12.6050,-0.5310,-0.2140,-0.4230,0.712
12.6120,-0.3580,-0.1760,-0.3300,0.518
12.6220,-0.2070,-0.1790,-0.2670,0.382
12.6310,-0.1330,-0.1580,-0.2320,0.311
12.6400,-0.0320,-0.1250,-0.1940,0.233
12.6500,0.1140,-0.1270,-0.1890,0.255
12.6620,0.2700,-0.0870,-0.1950,0.344
12.6710,0.4140,-0.0290,-0.2180,0.469
12.6810,0.5730,0.0720,-0.1600,0.599
12.6910,1.1040,0.3580,-0.0590,1.162
12.7010,1.9060,0.6730,-0.0100,2.021
12.7220,2.8630,0.9570,0.1330,3.022
12.7220,3.5430,1.1840,-0.0740,3.736
12.7310,3.8570,1.1580,-0.5900,4.070
12.7400,3.6320,1.1030,-1.0870,3.948
12.7510,3.0520,1.0070,-1.4350,3.520
12.7620,2.4020,0.8140,-1.5580,2.977
12.7710,1.8320,0.8510,-1.3780,2.445
12.7810,1.3760,0.8960,-1.0570,1.953
12.7910,1.2230,0.7530,-0.7020,1.599
12.8010,1.2410,0.5920,-0.4930,1.461
12.8240,1.2250,0.4730,-0.4220,1.379
12.8250,1.0720,0.4520,-0.5080,1.269
12.8310,0.9320,0.4360,-0.7050,1.247
12.8410,0.8850,0.3530,-0.8800,1.297
12.8510,0.8350,0.2880,-0.9200,1.275
12.8620,0.6820,0.3280,-0.9070,1.181
12.8700,0.5470,0.2720,-0.9180,1.103
12.8800,0.4190,0.1960,-0.8970,1.009
12.8900,0.3770,0.1030,-0.8340,0.921
12.9010,0.3450,0.0810,-0.7380,0.819
12.9250,0.3190,0.0590,-0.5700,0.656
12.9250,0.3440,-0.0150,-0.3650,0.502
12.9300,0.3980,-0.1250,-0.1000,0.429
12.9410,0.3900,-0.2050,0.1650,0.470
12.9500,0.3700,-0.2600,0.4010,0.604
12.9620,0.3080,-0.3300,0.6010,0.752
12.9700,0.2100,-0.3810,0.8320,0.939
12.9810,0.0730,-0.3950,1.0250,1.101
12.9900,-0.0720,-0.3870,1.2240,1.286
13.0060,-0.1490,-0.4170,1.3080,1.381
13.0110,-0.1660,-0.4990,1.3250,1.426
13.0200,-0.1160,-0.6750,1.3230,1.490
13.0300,-0.0480,-0.8300,1.2460,1.498
13.0400,-0.0160,-0.8780,1.1340,1.434
13.0500,-0.0210,-0.8110,0.9420,1.243
13.0610,0.0120,-0.7590,0.6980,1.031
13.0700,0.1750,-0.8280,0.4330,0.951
13.0800,0.4060,-1.0280,0.2480,1.133
13.0900,0.5790,-1.1720,0.2510,1.331
13.1000,0.7190,-1.2740,0.4650,1.535
13.1190,0.8170,-1.3850,0.8420,1.815
13.1200,0.8770,-1.5530,1.1640,2.130
13.1300,0.9070,-1.7200,1.4540,2.428
13.1400,0.9250,-1.8780,1.6530,2.667
13.1510,0.8220,-1.9070,1.7050,2.687
13.1620,0.5490,-1.8430,1.5870,2.493
13.1700,0.1770,-1.8050,1.1440,2.144
13.1800,-0.2230,-1.8130,0.5310,1.902
13.1900,-0.5410,-1.7570,-0.0700,1.840
13.2010,-0.8120,-1.5960,-0.5170,1.864
13.2170,-1.1150,-1.4080,-0.8180,1.974
13.2200,-1.3370,-1.3160,-1.0790,2.164
13.2320,-1.6110,-1.2200,-1.3340,2.421
13.2410,-1.9560,-1.0180,-1.5070,2.671
13.2500,-2.3450,-0.7330,-1.5570,2.909
13.2620,-2.7100,-0.4690,-1.5900,3.177
13.2700,-3.0170,-0.2840,-1.6100,3.431
13.2810,-3.3350,-0.1030,-1.6010,3.701
13.2900,-3.6650,0.1900,-1.5630,3.989
13.3000,-3.8540,0.3580,-1.5140,4.156
13.3260,-3.8960,0.4440,-1.4310,4.174
13.3270,-3.8750,0.5220,-1.3000,4.120
13.3300,-3.7260,0.5780,-1.0360,3.910
13.3400,-3.5300,0.6060,-0.7040,3.650
13.3500,-3.3100,0.6720,-0.3700,3.398
13.3610,-2.8200,0.5290,-0.0430,2.870
13.3700,-2.1440,0.3430,0.1230,2.175
13.3810,-1.5160,0.2650,0.1460,1.546
13.3900,-0.9330,0.2800,0.0040,0.974
13.4000,-0.5050,0.3050,-0.1450,0.608
13.4140,-0.1890,0.3250,-0.1360,0.400
13.4200,-0.0060,0.3310,0.0460,0.334
13.4300,0.1670,0.3550,0.2930,0.490
13.4410,0.3110,0.4040,0.5830,0.774
13.4500,0.4730,0.4790,0.8820,1.110
13.4610,0.5880,0.6180,1.1390,1.423
13.4700,0.6650,0.7710,1.2820,1.637
13.4800,0.7010,0.9990,1.4410,1.888
13.4900,0.6440,1.2710,1.5370,2.096
13.5010,0.6030,1.5990,1.5470,2.305
13.5240,0.4680,2.1270,1.5660,2.682
13.5250,0.3920,2.6020,1.5390,3.048
13.5300,0.4990,3.0660,1.5860,3.488
13.5400,0.6280,3.3370,1.5850,3.747
13.5500,0.7000,3.4800,1.5760,3.884
13.5610,0.6960,3.6340,1.5870,4.026
13.5700,0.5120,3.8590,1.6690,4.236
13.5800,0.1940,4.2000,1.9520,4.636
13.5900,-0.2350,4.5870,2.3930,5.179
13.6000,-0.8000,4.9190,3.0730,5.855
13.6100,-1.4280,5.5180,3.9400,6.929
13.6200,-1.8620,6.0670,4.5650,7.818
13.6300,-2.2910,6.4130,4.6910,8.269
13.6400,-2.5240,6.4750,4.3640,8.206
13.6500,-2.3320,6.0180,3.7310,7.455
13.6610,-2.0240,4.8660,3.1170,6.123
13.6690,-1.8290,3.6190,2.6140,4.824
13.6800,-2.1150,2.7250,2.2600,4.124
13.6890,-2.5000,1.8320,2.0970,3.742
13.6990,-2.5520,0.6720,2.1440,3.400
13.7110,-1.8430,-0.3730,2.3590,3.017
13.7200,0.2020,-1.5840,2.9120,3.321
13.7300,3.5660,-3.3870,3.2160,5.876
13.7400,7.3230,-5.4970,2.3700,9.458
13.7500,10.6250,-7.6380,0.8850,13.115
13.7600,12.8040,-9.3700,-0.5180,15.875
13.7690,14.2770,-10.2930,-1.6020,17.673
13.7800,15.0200,-10.7980,-2.4290,18.657
13.7890,14.4520,-11.8990,-3.5420,19.052
13.8000,13.4030,-13.5370,-4.9990,19.695
13.8110,12.4090,-14.9610,-6.0550,20.359
13.8200,11.3220,-15.5890,-6.3610,20.290
13.8300,10.6840,-16.1270,-6.3020,20.346
13.8390,10.8560,-16.6590,-5.9710,20.761
13.8500,11.5690,-17.1950,-5.6880,21.491
13.8600,12.3240,-17.8960,-5.1710,22.336
13.8690,12.9990,-18.7990,-4.7940,23.353
13.8800,14.1380,-19.9730,-4.0240,24.799
13.8890,13.6780,-20.7030,-2.8370,24.975
13.8990,11.2450,-20.1650,-1.5260,23.139
13.9140,7.8090,-18.3250,0.3520,19.923
13.9200,3.6800,-15.9420,1.7510,16.455
13.9310,-1.3580,-13.4540,1.7980,13.641
13.9390,-7.5530,-10.9400,0.0810,13.294
13.9490,-14.0290,-8.2060,-1.4770,16.320
13.9610,-19.0830,-5.7190,-0.3600,19.925
13.9700,-20.6610,-1.3780,2.6140,20.871
13.9800,-19.0290,4.1430,5.1290,20.139
13.9900,-16.0040,9.8150,7.0360,20.049
14.0000,-12.7050,16.1490,9.1040,22.474
14.0100,-9.3440,22.3730,9.9680,26.215
14.0200,-5.6250,25.2010,8.2390,27.104
14.0300,-1.0500,20.4400,3.2930,20.730
14.0420,1.3640,12.6880,-2.8860,13.083
14.0490,0.3310,7.2640,-8.5280,11.207
14.0600,-2.1750,4.2860,-12.1170,13.035
14.0690,-4.1580,3.9310,-12.5360,13.780
14.0790,-3.7690,4.3260,-8.6880,10.412
14.0890,-2.6900,4.9960,-3.0630,6.448
14.1000,-1.5170,5.1040,2.1970,5.760
14.1170,0.2900,3.6950,6.8460,7.785
14.1190,0.8510,2.0250,9.9010,10.142
14.1290,-0.1430,1.7560,11.1120,11.251
14.1400,-1.9210,2.8330,11.2840,11.792
14.1510,-3.8060,4.1540,11.1210,12.467
14.1610,-5.3040,5.3570,10.6570,13.054
14.1690,-6.6950,6.3180,9.7640,13.419
14.1800,-7.6820,6.7630,8.4580,13.277
14.1900,-8.2750,6.7940,7.0160,12.801
14.2000,-8.5940,6.7120,5.3750,12.157
14.2100,-8.4350,6.5420,3.4980,11.233
14.2190,-7.6480,6.1610,1.5750,9.946
14.2290,-6.4400,5.8960,-0.1340,8.732
14.2390,-5.0450,5.6740,-1.5060,7.740
14.2500,-3.5730,5.8440,-2.4720,7.282
14.2600,-2.6880,6.6170,-2.9020,7.709
14.2690,-2.4230,7.5650,-2.8140,8.427
14.2800,-3.1880,8.8520,-2.5490,9.748
14.2890,-4.5710,10.1440,-2.0340,11.311
14.3000,-6.0190,11.1130,-1.1900,12.694
14.3230,-7.4150,11.8760,-0.1240,14.001
14.3230,-8.8820,12.6920,1.3190,15.547
14.3310,-10.1390,13.4250,2.8390,17.061
14.3400,-10.4840,13.5770,3.9920,17.612
14.3490,-9.9590,12.6490,4.4440,16.701
14.3640,-9.0280,11.0180,4.1400,14.834
14.3690,-8.1820,9.5040,3.4660,13.011
14.3790,-7.4720,8.6860,2.6650,11.763
14.3890,-6.2120,7.9840,1.7360,10.264
14.4000,-3.9650,6.6350,0.9410,7.787
14.4100,-0.7010,3.7630,0.5380,3.865
14.4190,2.4610,-0.0260,0.0350,2.461
14.4290,5.1350,-4.5370,-0.7410,6.892
14.4410,7.0600,-9.0420,-1.7900,11.611
14.4490,8.6680,-12.6210,-2.6230,15.534
14.4600,9.7290,-14.6000,-3.0380,17.806
14.4700,9.7890,-14.3740,-2.5780,17.581
14.4790,9.6000,-13.9390,-1.1960,16.967
14.4890,9.3500,-14.0260,-0.4890,16.864
14.5000,8.3160,-14.1460,-0.7300,16.426
14.5160,5.9020,-13.4310,-0.7530,14.690
14.5180,3.5670,-12.7420,-0.0100,13.232
14.5290,2.1700,-12.3160,0.5550,12.518
14.5390,1.7930,-11.9280,0.5370,12.074
14.5490,2.5680,-11.5250,0.0780,11.808
14.5590,4.0540,-11.0630,-0.6310,11.799
14.5690,5.9640,-10.9040,-1.5220,12.521
14.5790,7.7630,-10.8310,-2.5980,13.577
14.5910,9.1400,-10.4090,-3.6220,14.318
14.6000,9.8530,-10.0030,-4.3860,14.710
14.6140,9.7810,-9.4240,-4.6070,14.342
14.6190,9.0080,-8.5210,-4.2120,13.096
14.6310,8.0420,-7.5900,-3.4820,11.593
14.6390,7.2410,-6.9220,-2.7170,10.379
14.6490,6.3780,-6.1890,-2.0260,9.115
14.6600,5.5960,-5.4330,-1.3330,7.913
14.6700,4.8720,-4.6840,-0.6570,6.790
14.6810,4.1010,-3.9860,-0.1580,5.721
14.6890,3.3890,-3.3020,0.2070,4.736
14.6990,2.8020,-2.5190,0.4540,3.795
14.7200,2.3480,-1.7830,0.4870,2.988
14.7210,2.1590,-1.0490,0.3000,2.419
14.7290,1.9020,-0.4080,0.0760,1.947
14.7390,1.5640,0.1480,-0.1920,1.583
14.7490,1.1630,0.6970,-0.4190,1.419
14.7610,0.7240,1.2440,-0.6800,1.592
14.7700,0.3350,1.5750,-0.9640,1.877
14.7790,0.1040,1.6730,-1.1840,2.052
14.7900,-0.1790,1.8050,-1.3790,2.279
14.7990,-0.4790,2.0720,-1.4440,2.571
14.8280,-0.6720,2.3140,-1.4160,2.795
14.8280,-0.7670,2.5100,-1.3100,2.933
14.8290,-0.8550,2.6720,-1.1870,3.046
14.8400,-0.9710,2.8810,-0.9500,3.185
14.8490,-1.0600,3.0910,-0.7110,3.344
14.8590,-1.0710,3.2520,-0.4950,3.459
14.8680,-1.0370,3.3230,-0.3930,3.503
14.8800,-1.0230,3.4140,-0.3830,3.584
14.8890,-1.0640,3.4960,-0.4470,3.682
14.8990,-1.1500,3.4930,-0.4910,3.710
14.9090,-1.2510,3.4670,-0.4800,3.717
14.9230,-1.3850,3.3980,-0.3980,3.691
14.9280,-1.5370,3.2670,-0.2420,3.619
14.9380,-1.7490,3.0410,-0.0710,3.509
14.9480,-1.9010,2.8560,0.0670,3.431
14.9590,-1.8440,2.5880,0.1450,3.181
14.9680,-1.5930,2.2210,0.1020,2.735
14.9790,-1.3640,1.7630,-0.0440,2.229
14.9890,-1.2210,1.3260,-0.1670,1.810
14.9980,-1.2840,0.8760,-0.2800,1.579
15.0210,-1.6520,0.4950,-0.2840,1.748
15.0230,-2.0340,0.1430,-0.2140,2.050
15.0280,-2.2710,-0.2410,-0.1750,2.290
15.0380,-2.2440,-0.5920,-0.1940,2.329
15.0480,-2.1880,-0.7800,-0.2110,2.332
15.0580,-2.0420,-0.8020,-0.1730,2.201
15.0680,-1.7340,-0.6600,-0.0260,1.856
15.0790,-1.3940,-0.5700,0.2150,1.521
15.0880,-1.1020,-0.5310,0.3940,1.285
15.0990,-0.8360,-0.4550,0.4880,1.070
15.1230,-0.6340,-0.2750,0.5910,0.909
15.1230,-0.4920,-0.0650,0.7230,0.877
15.1290,-0.3000,0.1260,0.8530,0.913
15.1390,-0.0490,0.2410,0.8960,0.929
15.1490,0.1320,0.2380,0.8470,0.890
15.1640,0.2040,0.2190,0.7830,0.838
15.1680,0.1940,0.2580,0.7040,0.774
15.1780,0.2030,0.3140,0.6080,0.714
15.1890,0.1910,0.3990,0.5120,0.677
15.1990,0.1090,0.5010,0.3720,0.633
15.2190,0.0190,0.6520,0.2690,0.706
15.2200,-0.0900,0.8380,0.1730,0.860
15.2280,-0.2510,1.0400,0.1140,1.076
15.2400,-0.4610,1.2560,0.0650,1.340
15.2490,-0.6040,1.2450,0.0810,1.386
15.2590,-0.3600,0.7210,0.1110,0.813
15.2680,0.2280,-0.2700,0.0770,0.362
15.2790,0.6900,-1.3100,0.0470,1.481
15.2880,0.8580,-2.1740,-0.0790,2.339
15.2980,0.6000,-2.6380,-0.2640,2.718
15.3300,-0.0360,-2.3950,-0.3850,2.426
15.3310,-0.5430,-1.7640,-0.1550,1.852
15.3310,-0.6210,-1.3570,0.4160,1.549
15.3380,-0.4160,-1.0580,1.0470,1.546
15.3490,-0.0930,-0.7420,1.5020,1.678
15.3590,0.2280,-0.3900,1.7890,1.845
15.3680,0.3670,-0.0230,1.9510,1.985
15.3780,0.4470,0.4110,2.0510,2.139
15.3900,0.4250,0.7730,1.9310,2.123
15.3980,0.3560,1.0430,1.4340,1.809
15.4240,0.4230,1.1490,0.7290,1.425
15.4250,0.3870,1.3370,0.2030,1.407
15.4280,0.1680,1.5390,-0.2960,1.576
15.4380,-0.0390,1.6220,-0.7680,1.795
15.4490,-0.0790,1.6630,-1.0450,1.966
15.4580,-0.0600,1.6190,-1.1570,1.991
15.4680,-0.0200,1.6890,-1.1670,2.053
15.4780,0.1090,1.6400,-1.1970,2.033
15.4890,0.4160,1.5540,-1.2760,2.053
15.4990,0.7050,1.4420,-1.4030,2.132
15.5190,1.0340,1.2880,-1.4700,2.211
15.5190,1.3180,1.0990,-1.4830,2.268
15.5290,1.5020,0.8100,-1.4340,2.229
15.5400,1.5620,0.5930,-1.2760,2.102
15.5480,1.6420,0.3830,-0.9900,1.955
15.5580,1.6900,0.2780,-0.6410,1.829
15.5690,1.6550,0.2400,-0.2630,1.693
15.5780,1.6620,0.2210,0.1470,1.683
15.5900,1.7040,0.2040,0.5600,1.805
15.5980,1.6970,0.2310,0.9660,1.966
15.6210,1.5880,0.3160,1.3390,2.101
15.6210,1.4520,0.4030,1.6410,2.228
15.6290,1.2960,0.5220,1.8950,2.354
15.6390,1.1210,0.6530,2.0420,2.419
15.6490,0.9800,0.7250,2.0640,2.397
15.6580,0.8140,0.7600,1.9460,2.242
15.6670,0.5920,0.8250,1.7400,2.015
15.6780,0.3420,0.8480,1.4710,1.732
15.6880,0.1940,0.8630,1.1760,1.472
15.6980,0.1290,0.8530,0.8450,1.208
15.7310,0.2160,0.7600,0.5600,0.968
15.7320,0.3550,0.7290,0.2770,0.857
15.7330,0.4560,0.7500,-0.0610,0.880
15.7380,0.5940,0.6660,-0.4300,0.991
15.7480,0.6920,0.5670,-0.7670,1.178
15.7580,0.6580,0.4680,-1.0110,1.294
15.7680,0.6110,0.3910,-1.1480,1.358
15.7780,0.5400,0.3530,-1.1760,1.341
15.7890,0.5180,0.3120,-1.0540,1.215
15.7980,0.4750,0.2600,-0.8620,1.018
15.8290,0.3780,0.2380,-0.6600,0.797
15.8300,0.3040,0.2060,-0.4450,0.577
15.8300,0.2930,0.1570,-0.1880,0.382
15.8380,0.1410,0.0630,0.1270,0.200
15.8480,-0.1670,-0.0400,0.4520,0.484
15.8580,-0.4060,-0.1170,0.7060,0.823
15.8680,-0.6210,-0.1840,0.8410,1.061
15.8780,-0.7980,-0.2710,0.9040,1.236
15.8880,-0.9430,-0.3380,0.8310,1.302
15.8980,-0.9930,-0.5000,0.4460,1.198
15.9300,-1.0550,-0.4700,-0.1900,1.170
15.9300,-1.0520,-0.4040,-0.8890,1.435
15.9300,-0.7640,-0.2910,-1.6690,1.858
15.9390,-0.3630,-0.1250,-2.3410,2.372
15.9480,0.0430,0.0360,-2.8460,2.847
15.9580,0.4000,0.2060,-3.1990,3.230
15.9680,0.5430,0.4060,-3.3580,3.426
15.9790,0.6500,0.5030,-3.2520,3.354
15.9880,0.7350,0.5300,-2.8450,2.986
15.9980,0.6590,0.5280,-2.3370,2.485
16.0350,0.4890,0.4270,-1.8350,1.946
16.0350,0.2720,0.3920,-1.3230,1.406
16.0360,0.0920,0.3110,-0.8000,0.863
16.0390,0.2370,-0.3690,-0.3890,0.586
16.0490,0.6110,-1.2260,-0.1910,1.383
16.0580,0.6460,-1.2660,0.0120,1.421
16.0680,0.2920,-1.3020,0.4000,1.393
16.0770,-0.2930,-1.0440,0.7250,1.304
16.0880,-0.6730,-0.6740,0.9360,1.335
16.0980,-0.6750,-0.5800,0.9650,1.313
16.1210,-0.4220,-0.6650,0.7480,1.086
16.1220,-0.0030,-0.8420,0.3930,0.929
16.1290,0.4420,-1.2180,0.0740,1.298
16.1380,0.7470,-1.7040,-0.2430,1.876
16.1480,0.9620,-2.2040,-0.4480,2.446
16.1590,1.0780,-2.6250,-0.4440,2.872
16.1680,1.0280,-2.7270,-0.2050,2.922
16.1780,0.8330,-2.6360,0.1860,2.771
16.1890,0.6280,-2.3880,0.6670,2.558
16.1990,0.4260,-2.0030,1.2070,2.377
16.2290,0.1520,-1.5570,1.6980,2.309
16.2290,-0.2590,-1.1110,2.0450,2.342
16.2300,-0.7820,-0.6140,2.2950,2.501
16.2390,-1.3500,-0.1820,2.3960,2.756
16.2480,-1.6880,0.2080,2.4450,2.978
16.2580,-1.7960,0.3800,2.2850,2.931
16.2670,-1.6320,0.2790,1.8560,2.487
16.2780,-1.4020,0.0530,1.2910,1.907
16.2870,-1.1880,-0.0830,0.8060,1.438
16.2970,-1.0580,-0.1670,0.3910,1.140
16.3200,-0.9530,-0.2520,0.0970,0.991
16.3210,-0.8770,-0.3170,-0.1570,0.946
16.3280,-0.7510,-0.3730,-0.3480,0.908
16.3390,-0.5810,-0.4350,-0.4440,0.851
16.3470,-0.3600,-0.4360,-0.5000,0.755
16.3570,-0.1500,-0.3750,-0.4250,0.586
16.3680,-0.0780,-0.2880,-0.3420,0.454
16.3780,-0.1090,-0.2380,-0.2600,0.369
16.3860,-0.1800,-0.2200,-0.1210,0.309
16.3970,-0.2920,-0.2640,0.0810,0.402
16.4210,-0.4210,-0.3500,0.2580,0.605
16.4220,-0.6470,-0.3440,0.2980,0.791
16.4280,-0.9290,-0.2920,0.3660,1.040
16.4400,-1.2420,-0.2880,0.5310,1.381
16.4480,-1.4060,-0.3340,0.8030,1.653
16.4580,-1.4630,-0.3920,1.1490,1.901
16.4670,-1.4600,-0.4570,1.4770,2.126
16.4770,-1.4020,-0.5400,1.7150,2.280
16.4890,-1.2330,-0.6250,1.8640,2.321
16.4970,-0.9850,-0.6650,1.9700,2.301
16.5100,-0.7250,-0.6650,2.0290,2.255
16.5180,-0.4420,-0.6680,2.0970,2.245
16.5420,-0.1710,-0.6800,2.1820,2.292
16.5420,-0.1930,-0.6030,2.2330,2.321
16.5480,-0.5760,-0.4640,2.1780,2.300
16.5600,-0.9760,-0.4020,2.0330,2.291
16.5670,-1.3260,-0.2240,1.8670,2.301
16.5780,-1.6870,0.0950,1.7460,2.430
16.5900,-1.7360,0.4250,1.6840,2.456
16.5980,-1.4340,0.7600,1.6730,2.331
16.6220,-1.1460,1.2490,1.6550,2.369
16.6230,-1.0360,1.7700,1.6670,2.643
16.6270,-1.1250,2.3910,1.7010,3.143
16.6380,-1.1360,3.0460,1.7010,3.669
16.6480,-1.1800,3.7690,1.7140,4.305
16.6600,-1.5050,4.2980,1.4830,4.789
16.6670,-1.9720,4.8450,1.1670,5.360
16.6770,-2.5040,5.2760,0.8790,5.906
16.6870,-3.0290,5.4400,0.6210,6.257
16.6970,-3.4970,5.3330,0.3660,6.388
16.7120,-4.0180,5.2320,0.1580,6.599
16.7180,-4.4600,5.4100,0.1360,7.013
16.7510,-4.8180,5.7960,0.2620,7.542
16.7510,-4.8800,6.2490,0.4990,7.944
16.7520,-4.8570,6.5620,0.7570,8.199
16.7570,-4.8680,6.5040,0.7610,8.160
16.7680,-4.6950,6.0220,0.6220,7.661
16.7770,-4.2130,5.2500,0.2630,6.737
16.7880,-3.5790,4.1310,-0.4580,5.485
16.7970,-2.5620,2.8000,-1.2280,3.989
16.8100,-1.1300,1.1820,-1.7570,2.400
16.8180,0.7260,-0.9100,-2.0870,2.390
16.8390,3.2560,-3.4450,-1.9240,5.116
16.8400,5.6960,-5.7020,-1.5490,8.207
16.8480,8.1980,-7.3390,-1.1460,11.063
16.8570,10.9740,-8.6720,-0.9780,14.021
16.8710,13.2480,-9.8050,-1.3270,16.535
16.8770,14.6790,-10.3700,-1.6720,18.050
16.8880,15.0500,-10.6340,-1.7450,18.510
16.9010,14.2370,-11.3530,-1.9590,18.314
16.9090,13.1600,-12.8500,-2.7140,18.592
16.9170,12.1550,-15.0590,-4.0330,19.768
16.9350,11.2980,-17.7520,-5.7370,21.810
16.9360,9.6220,-19.7710,-7.5510,23.249
16.9470,8.4450,-20.2290,-8.0440,23.350
16.9570,7.8620,-19.3650,-6.1500,21.786
16.9670,8.4210,-18.4690,-2.8660,20.500
16.9770,9.0380,-18.2710,0.3960,20.388
16.9870,9.1160,-17.9960,2.7300,20.357
16.9970,9.1850,-17.2560,3.4310,19.847
17.0120,8.7980,-16.2280,3.1130,18.720
17.0170,8.1230,-14.7430,2.6710,17.043
17.0360,7.3720,-12.6340,2.3800,14.820
17.0370,6.4590,-9.9690,1.5890,11.984
17.0480,4.7910,-7.2880,-0.1870,8.724
17.0580,2.4730,-4.7870,-2.0150,5.753
17.0680,0.2420,-2.1610,-2.5200,3.328
17.0770,-2.1140,0.7580,-1.5700,2.740
17.0880,-4.7950,3.7710,0.2460,6.105
17.0970,-7.8600,7.1790,2.4700,10.928
17.1120,-11.8700,11.9310,4.5250,17.428
17.1180,-15.6180,17.1270,6.3140,24.023
17.1470,-16.3080,20.6900,7.6660,27.437
17.1480,-11.5330,19.3610,8.1820,23.975
17.1480,-5.2810,14.2280,6.6850,16.584
17.1560,-3.2160,9.8570,3.8510,11.060
17.1680,-4.0600,7.2280,0.9160,8.341
17.1770,-5.8480,5.3930,-1.7820,8.152
17.1940,-7.4760,4.3850,-4.1240,9.598
17.1970,-7.5560,4.2580,-5.5850,10.316
17.2080,-5.7140,4.8170,-5.4120,9.227
17.2170,-3.6280,6.0640,-3.7540,8.002
17.2400,-1.8360,6.4420,-1.8120,6.939
17.2410,-0.8720,5.6250,-0.3250,5.701
17.2480,-1.7930,5.2330,0.2680,5.538
17.2560,-3.7290,5.5150,0.5030,6.676
17.2660,-5.3750,5.9620,1.1310,8.106
17.2770,-6.4110,6.5710,2.0750,9.412
17.2870,-7.0260,7.2250,3.0920,10.542
17.2970,-7.5210,7.7310,3.7080,11.405
17.3130,-7.9780,7.9430,3.5810,11.814
17.3170,-8.2980,7.7730,2.7040,11.687
17.3400,-8.2480,7.3320,1.6220,11.154
17.3400,-7.9790,7.0210,0.6230,10.646
17.3480,-7.7250,6.8120,-0.4790,10.311
17.3560,-7.0540,6.5130,-1.3750,9.699
17.3670,-6.2910,6.2000,-2.0890,9.076
17.3770,-5.8490,6.4230,-2.3480,8.999
17.3890,-5.6610,7.2200,-2.0230,9.395
17.3970,-5.2300,7.8560,-1.2720,9.523
17.4100,-4.5390,8.2110,-0.5340,9.397
17.4170,-3.9790,8.5730,-0.0960,9.452
17.4390,-3.5900,8.8510,0.0300,9.551
17.4390,-3.6850,8.9530,-0.0620,9.682
17.4480,-4.4190,8.7890,-0.1650,9.839
17.4570,-5.2400,8.4160,0.0260,9.914
17.4680,-6.4480,8.4480,-0.0780,10.628
17.4770,-7.7540,8.5840,-0.5560,11.581
17.4880,-9.0420,8.7070,-0.9270,12.587
17.4970,-10.1890,8.7490,-0.7880,13.453
17.5080,-10.8810,8.9930,0.1030,14.117
17.5170,-10.8480,9.4990,1.3270,14.480
17.5290,-9.2890,9.1870,2.0600,13.226
17.5380,-6.5280,7.3900,1.5100,9.975
17.5460,-3.2890,4.0570,0.5580,5.252
17.5570,0.4260,-1.2100,0.0120,1.283
17.5670,3.8390,-6.7450,-0.8300,7.805
17.5760,6.3290,-9.0690,-2.6120,11.363
17.5870,8.7800,-7.4680,-4.5160,12.380
17.5960,12.7580,-7.4990,-5.2450,15.701
17.6080,15.0360,-7.8920,-6.5110,18.187
17.6160,15.4590,-8.1750,-7.6050,19.070
17.6270,14.5650,-8.7000,-7.7860,18.667
17.6370,12.6910,-9.4460,-6.4100,17.070
17.6470,9.5900,-9.7310,-3.9100,14.211
17.6570,6.2480,-9.2870,-0.9370,11.232
17.6670,3.5840,-8.1870,1.7020,9.098
17.6770,2.4870,-7.3460,2.9270,8.290
17.6870,3.3200,-7.1570,2.3350,8.228
17.6990,5.1480,-7.3180,0.3920,8.956
17.7120,7.3100,-7.4780,-1.4430,10.556
17.7180,9.0090,-7.6100,-2.7280,12.104
17.7310,10.0020,-7.5550,-3.4550,13.002
17.7360,10.0860,-7.1460,-3.5250,12.854
17.7470,9.3790,-6.5340,-2.9640,11.809
17.7570,8.2930,-6.2800,-2.1460,10.622
17.7670,6.7540,-6.1070,-1.4440,9.219
17.7770,5.2970,-5.8180,-0.8320,7.912
17.7870,4.3160,-5.8910,-0.4260,7.315
17.7970,3.5190,-6.1970,-0.3590,7.135
17.8070,3.0050,-6.4430,-0.4490,7.123
17.8170,2.7330,-6.3800,-0.4910,6.958
17.8330,2.6190,-5.9930,-0.4640,6.557
17.8380,2.8780,-5.4940,-0.4500,6.218
17.8470,3.2600,-5.0040,-0.5660,5.999
17.8570,3.5870,-4.5310,-0.9110,5.850
17.8660,3.7810,-4.1410,-1.3680,5.772
17.8760,3.6970,-3.8970,-1.8910,5.695
17.8870,3.2010,-3.6440,-2.2710,5.356
17.8960,2.5180,-3.3130,-2.2680,4.739
17.9090,1.8780,-3.0720,-1.9720,4.105
17.9190,0.9240,-2.9260,-1.6960,3.506
17.9320,0.0050,-2.8270,-1.2810,3.104
17.9360,-0.6100,-2.6640,-0.6200,2.802
17.9470,-1.0060,-2.4050,0.0770,2.608
17.9570,-1.1630,-2.1790,0.7180,2.572
17.9670,-1.0990,-1.9530,1.1800,2.533
17.9760,-0.8490,-1.6220,1.5940,2.427
17.9860,-0.4570,-1.3840,1.7440,2.273
17.9970,-0.0730,-1.2280,1.5990,2.017
18.0100,0.2380,-1.0210,1.1870,1.584
18.0170,0.4410,-0.7740,0.6190,1.085
18.0320,0.4930,-0.6130,0.0770,0.790
18.0370,0.4350,-0.3890,-0.4740,0.752
18.0460,0.3980,-0.2220,-0.9130,1.020
18.0570,0.3920,-0.0130,-1.1970,1.260
18.0660,0.3380,0.2080,-1.4620,1.515
18.0800,0.1440,0.5060,-1.6450,1.727
18.0880,-0.0390,0.8600,-1.7620,1.961
18.0960,-0.2080,1.1260,-1.8130,2.144
18.1080,-0.4720,1.3530,-1.8500,2.340
18.1160,-0.8320,1.6250,-1.8380,2.591
18.1300,-1.2820,1.9210,-1.7300,2.886
18.1360,-1.6730,2.2390,-1.6050,3.223
18.1470,-1.9250,2.5310,-1.5460,3.536
18.1570,-2.0480,2.7870,-1.6160,3.817
18.1670,-2.1430,2.9940,-1.6890,4.051
18.1770,-2.1920,3.2120,-1.8000,4.285
18.1870,-2.2360,3.4280,-1.7450,4.449
18.1990,-2.2030,3.5360,-1.5950,4.461
18.2100,-2.2420,3.5810,-1.4460,4.466
18.2160,-2.4490,3.6830,-1.3700,4.630
18.2380,-2.6820,3.7570,-1.2520,4.783
18.2380,-2.8580,3.7270,-1.1310,4.831
18.2470,-2.9150,3.5700,-1.0480,4.727
18.2560,-2.8840,3.3700,-0.9540,4.537
18.2660,-2.8360,3.2140,-0.8590,4.372
18.2760,-2.7730,3.0580,-0.7740,4.200
18.2890,-2.5830,2.8410,-0.6620,3.896
18.2960,-2.3240,2.6130,-0.5960,3.547
18.3100,-2.1520,2.3600,-0.6510,3.260
18.3160,-2.0490,2.1110,-0.7010,3.024
18.3410,-1.9900,1.8670,-0.7200,2.822
18.3420,-1.9940,1.5510,-0.7320,2.630
18.3460,-1.9390,1.2030,-0.7290,2.395
18.3560,-1.8000,0.8750,-0.6780,2.113
18.3660,-1.6020,0.6000,-0.6420,1.827
18.3770,-1.3870,0.4710,-0.5390,1.561
18.3860,-1.2010,0.4040,-0.3980,1.328
18.3950,-0.9790,0.3940,-0.1450,1.065
18.4100,-0.6850,0.3210,0.1150,0.765
18.4170,-0.2990,0.1430,0.2810,0.435
18.4390,0.0800,-0.1200,0.3310,0.361
18.4390,0.3300,-0.4050,0.3160,0.611
18.4460,0.4540,-0.5870,0.3050,0.802
18.4560,0.5640,-0.6940,0.2930,0.941
18.4660,0.6360,-0.6860,0.2790,0.976
18.4770,0.6670,-0.5250,0.3360,0.913
18.4860,0.6900,-0.3200,0.3160,0.824
18.4960,0.8380,-0.2420,0.2390,0.904
18.5080,1.1910,-0.4180,0.1200,1.268
18.5160,1.6910,-0.9510,-0.0960,1.942
18.5510,2.1220,-1.6660,-0.3810,2.725
18.5510,2.3620,-2.3360,-0.6590,3.387
18.5520,2.2410,-2.7440,-0.8650,3.647
18.5560,1.7730,-2.5010,-0.8310,3.176
18.5670,1.2260,-1.5590,-0.4150,2.026
18.5760,0.8070,-0.5580,0.2040,1.002
18.5860,0.4230,0.3160,0.6690,0.852
18.5960,0.1840,1.0110,0.8360,1.325
18.6060,0.1970,1.5480,0.9590,1.832
18.6160,0.1720,1.9760,1.0580,2.248
18.6510,0.1050,2.1920,1.1300,2.468
18.6510,0.0430,2.0980,0.9660,2.310
18.6520,0.0670,1.7210,0.5780,1.817
18.6560,0.1390,1.3320,0.1090,1.344
18.6670,0.2230,0.9730,-0.3580,1.060
18.6760,0.4020,0.6180,-0.7160,1.028
18.6860,0.5200,0.2520,-0.9240,1.090
18.6960,0.6510,-0.1430,-1.0630,1.255
18.7090,0.7420,-0.5290,-1.1200,1.444
18.7150,0.7080,-0.6970,-1.0800,1.467
18.7480,0.7520,-0.6950,-0.8790,1.350
18.7480,0.9760,-0.6620,-0.5300,1.293
18.7490,1.0830,-0.5890,-0.0980,1.237
18.7560,1.0060,-0.4730,0.3320,1.160
18.7730,0.9710,-0.3490,0.6780,1.235
18.7750,0.9690,-0.2420,0.8930,1.340
18.7860,0.8280,-0.1650,0.9650,1.282
18.7960,0.5990,-0.1210,0.9370,1.119
18.8080,0.3500,-0.1330,0.8080,0.891
18.8160,0.1170,-0.1700,0.6070,0.641
18.8490,-0.0650,-0.2410,0.4090,0.479
18.8490,-0.2010,-0.2940,0.1930,0.405
18.8500,-0.4170,-0.2870,-0.0500,0.509
18.8560,-0.7560,-0.2040,-0.3530,0.859
18.8670,-1.0190,-0.0650,-0.6980,1.237
18.8760,-1.1840,0.0920,-1.0030,1.554
18.8870,-1.2900,0.2400,-1.2340,1.801
18.8960,-1.2610,0.3250,-1.3470,1.874
18.9090,-1.0520,0.3440,-1.3290,1.730
18.9150,-0.7890,0.3090,-1.2050,1.473
18.9390,-0.5770,0.2190,-1.0640,1.230
18.9390,-0.4520,0.1290,-0.8910,1.007
18.9460,-0.3680,0.0510,-0.6830,0.778
18.9560,-0.3540,-0.0760,-0.5140,0.629
18.9660,-0.2720,-0.2920,-0.4290,0.586
18.9760,-0.1510,-0.4300,-0.3870,0.598
18.9860,-0.0440,-0.4870,-0.3330,0.592
18.9960,0.0340,-0.4360,-0.2010,0.481
19.0080,0.0570,-0.3390,-0.0700,0.351
19.0150,0.1990,-0.3530,0.0470,0.408
19.0470,0.2730,-0.4250,0.0580,0.508
19.0470,0.2240,-0.3140,0.0200,0.386
19.0480,-0.0140,0.1030,0.0610,0.121
19.0560,-0.2140,0.6930,0.2320,0.761
19.0650,-0.2990,1.5970,0.3290,1.658
19.0760,-0.3430,2.7750,0.0950,2.798
19.0860,-0.6500,4.0970,-0.2020,4.153
19.0960,-1.2540,5.6630,-0.3520,5.811
19.1060,-2.1770,7.2510,-0.3540,7.579
19.1160,-3.3340,8.5000,-0.2390,9.134
19.1410,-4.2440,9.2490,0.1550,10.177
19.1420,-4.9960,9.6320,0.7380,10.876
19.1450,-5.6030,9.7920,1.2300,11.349
19.1550,-6.0120,9.6470,1.5580,11.473
19.1660,-6.4900,9.0390,1.7120,11.259
19.1750,-6.8870,8.1010,1.7520,10.776
19.1850,-7.0930,7.1000,1.9360,10.221
19.1940,-6.9730,6.3230,1.2260,9.492
19.2080,-6.3450,5.4260,0.2490,8.352
19.2150,-5.4590,4.6490,-0.4210,7.183
19.2360,-4.1800,3.8160,-0.8580,5.725
19.2360,-2.1200,2.5370,-0.9060,3.428
19.2460,0.9180,0.5210,-0.1800,1.071
19.2550,4.5180,-2.2120,1.1130,5.152
19.2660,8.3300,-4.9650,1.6150,9.831
19.2760,12.0410,-8.0950,1.0590,14.548
19.2860,14.2400,-10.2620,-0.9920,17.580
19.2950,15.1580,-11.3010,-3.5770,19.242
19.3070,15.2630,-11.4770,-5.6710,19.921
19.3150,14.6820,-11.2750,-6.8700,19.745
19.3460,13.0190,-10.3430,-7.0380,18.056
19.3470,11.2280,-9.7620,-6.3740,16.186
19.3470,9.8980,-10.4730,-5.9180,15.578
19.3560,8.9270,-12.4470,-5.9390,16.428
19.3660,8.4420,-14.9000,-5.9250,18.121
19.3750,8.2790,-17.1320,-5.2540,19.740
19.3860,8.5380,-17.9570,-3.3420,20.162
19.3950,9.0820,-17.4360,-0.5260,19.667
19.4070,9.7930,-17.1290,1.7260,19.806
19.4150,10.9610,-17.2450,3.1420,20.674
19.4360,12.0130,-17.5390,3.8580,21.606
19.4370,12.0920,-18.0410,3.8230,22.052
19.4460,11.3240,-18.0430,3.5100,21.589
19.4550,10.2770,-17.8450,3.1250,20.828
19.4660,9.4300,-17.2960,3.1060,19.943
19.4750,8.6880,-16.3890,3.1670,18.818
19.4850,7.5320,-15.2180,3.9220,17.427
19.4950,4.4310,-13.0370,5.2060,14.721
19.5090,0.0530,-10.4290,4.9180,11.531
19.5150,-3.8240,-8.0490,3.9870,9.762
19.5360,-7.3240,-4.5930,3.6590,9.387
19.5360,-10.0840,0.3510,4.2380,10.944
19.5460,-11.2410,5.0980,5.3670,13.459
19.5550,-11.7660,10.0460,5.8680,16.547
19.5660,-12.4410,16.5510,5.3910,21.396
19.5760,-13.3220,22.9320,4.2740,26.863
19.5850,-12.7460,25.6660,2.8950,28.803
19.5950,-9.9100,21.6160,0.5560,23.786
19.6060,-7.4520,13.8650,-1.8210,15.846
19.6150,-8.6980,8.4490,-3.2910,12.565
19.6380,-11.1580,5.3020,-3.9070,12.957
19.6380,-12.2470,3.7280,-3.5940,13.297
19.6460,-11.7720,4.2170,-2.3860,12.730
19.6550,-9.0410,5.7190,-0.5690,10.713
19.6650,-5.5380,6.8880,1.2010,8.919
19.6760,-1.6250,7.3590,2.8210,8.047
19.6870,1.7070,6.7950,4.3190,8.230
19.6960,2.5620,5.7130,5.5160,8.344
19.7070,0.9870,4.9040,6.0220,7.829
19.7150,-1.1170,4.6290,5.9230,7.600
19.7460,-3.0410,4.8330,5.3520,7.826
19.7470,-4.3020,5.6190,4.6060,8.444
19.7470,-4.8930,6.5530,3.8530,9.040
19.7550,-5.0230,7.3400,2.9240,9.362
19.7660,-5.0660,7.6360,1.8700,9.353
19.7750,-5.4410,7.5400,0.9570,9.347
19.7850,-6.3180,7.4820,0.3720,9.800
19.7960,-7.2840,7.4350,-0.0550,10.409
19.8090,-7.6440,7.2030,-0.4040,10.511
19.8140,-7.6300,6.8580,-1.0300,10.311
19.8460,-7.3320,6.7600,-1.6830,10.114
19.8460,-6.6350,6.9220,-2.0770,9.811
19.8470,-5.9470,7.2450,-2.1570,9.618
19.8540,-5.4140,7.7880,-1.7860,9.652
19.8650,-5.2370,8.3560,-1.4300,9.965
19.8750,-5.3500,8.7530,-1.2390,10.333
19.8860,-5.8470,9.2350,-1.0640,10.982
19.8950,-6.3730,9.5590,-1.0300,11.535
19.9050,-6.7750,9.7350,-1.0150,11.904
19.9160,-6.9850,10.0600,-0.8820,12.279
19.9530,-6.9720,10.4170,-0.6990,12.554
19.9540,-6.9450,10.6020,-0.5600,12.687
19.9540,-7.5470,10.4830,-0.1920,12.918
19.9550,-7.9670,10.5490,0.7740,13.242
19.9650,-8.0530,10.5540,1.4400,13.353
19.9740,-7.8510,9.7400,0.4300,12.518
19.9850,-7.2830,8.2050,-1.3970,11.060
19.9950,-6.0670,6.1750,-2.3450,8.969
20.0070,-4.3950,3.6940,-1.8480,6.031
20.0150,-1.4030,0.0540,-0.4150,1.464
20.0450,2.2640,-4.7820,0.1540,5.293
20.0460,5.0510,-9.0930,-0.3510,10.408
20.0460,5.6180,-9.5350,-0.7720,11.094
20.0540,6.5980,-8.6770,-0.0660,10.901
20.0650,8.5040,-8.8810,-0.0030,12.296
20.0740,9.7510,-8.4720,-0.5800,12.930
20.0850,10.5150,-8.1820,-1.0020,13.361
20.0950,10.8460,-9.0500,-0.8260,14.150
20.1070,9.8660,-10.0460,0.2420,14.083
20.1140,7.7800,-10.5950,1.4180,13.221
20.1370,6.2120,-11.2080,2.1710,12.997
20.1380,5.6730,-11.6750,1.9170,13.121
20.1440,6.3040,-11.7040,0.8180,13.319
20.1550,7.5330,-11.3850,-0.6670,13.668
20.1650,8.6900,-10.6310,-2.0720,13.886
20.1750,9.4730,-9.4500,-3.0740,13.729
20.1850,9.2310,-7.9500,-3.4680,12.667
20.1940,8.4630,-6.6830,-3.1150,11.224
20.2070,7.4900,-6.1670,-2.5160,10.023
20.2140,6.9100,-6.3820,-2.1440,9.648
20.2360,7.0070,-7.1310,-2.0380,10.203
20.2370,7.6910,-7.9470,-1.9570,11.231
20.2440,8.3980,-8.5140,-1.9210,12.112
20.2530,8.8310,-8.8850,-1.9440,12.677
20.2640,8.7020,-8.8420,-1.9310,12.555
20.2740,7.9350,-8.3290,-1.8320,11.649
20.2840,6.8110,-7.7120,-1.6620,10.422
20.2940,5.8590,-7.0590,-1.4720,9.291
20.3050,4.8790,-6.2600,-1.2250,8.031
20.3170,3.6640,-5.4840,-0.9530,6.664
20.3380,2.4310,-4.8740,-0.6670,5.487
20.3380,1.4550,-4.4830,-0.3750,4.728
20.3440,0.7420,-4.2080,-0.2040,4.278
20.3540,0.3900,-4.0820,-0.0790,4.101
20.3650,0.3300,-3.9150,-0.0350,3.929
20.3750,0.4470,-3.9220,-0.1240,3.949
20.3850,0.4250,-4.0070,-0.3890,4.048
20.3940,0.0130,-3.8180,-0.6540,3.874
20.4100,-0.6880,-3.3150,-0.7710,3.472
20.4140,-1.2470,-2.7560,-0.7350,3.113
20.4460,-1.5220,-2.1790,-0.5530,2.715
20.4470,-1.6000,-1.5910,-0.3000,2.276
20.4470,-1.5520,-1.1070,-0.0180,1.906
20.4540,-1.3120,-0.8270,0.1330,1.557
20.4640,-1.2110,-0.6230,0.1150,1.367
20.4740,-1.5360,-0.4280,0.0820,1.597
20.4840,-2.0140,-0.1670,0.1820,2.029
20.4940,-2.3850,0.2080,0.4140,2.430
20.5080,-2.6200,0.6610,0.6020,2.768
20.5140,-2.7200,1.1420,0.7030,3.033
20.5470,-2.7200,1.5140,0.7170,3.194
20.5470,-2.5680,1.6870,0.7350,3.159
20.5480,-2.3000,1.7780,0.6550,2.980
20.5540,-2.1660,1.8150,0.5600,2.881
20.5650,-2.1880,1.8040,0.4100,2.865
20.5740,-2.3730,1.8310,0.1620,3.002
20.5840,-2.6020,1.9950,-0.1250,3.281
20.5940,-2.7050,2.1940,-0.4300,3.509
20.6080,-2.7400,2.3500,-0.7900,3.695
20.6140,-2.6510,2.4600,-1.0930,3.778
20.6390,-2.5110,2.5060,-1.3400,3.792
20.6390,-2.4120,2.5860,-1.4840,3.835
20.6450,-2.3010,2.6820,-1.5440,3.856
20.6540,-2.0460,2.7650,-1.5930,3.791
20.6640,-1.8370,2.8680,-1.6000,3.763
20.6740,-1.7610,2.9870,-1.5170,3.785
20.6860,-1.7050,3.0270,-1.3900,3.742
20.6940,-1.6990,3.0260,-1.3280,3.716
20.7040,-1.8030,3.0140,-1.2530,3.729
20.7140,-2.0340,3.0240,-1.1310,3.816
20.7240,-2.3000,3.1040,-0.9590,3.981
20.7630,-2.5420,3.2180,-0.7170,4.163
20.7630,-2.6270,3.1180,-0.4410,4.101
20.7640,-2.6350,2.8490,-0.1780,3.885
20.7650,-2.5910,2.5110,0.0810,3.609
20.7740,-2.4530,1.9680,0.3420,3.163
20.7830,-2.3140,1.3790,0.5280,2.745
20.7930,-2.2160,0.9180,0.6040,2.473
20.8070,-2.2760,0.6010,0.5500,2.417
20.8150,-2.4550,0.3800,0.4090,2.518
20.8420,-2.5420,0.2230,0.1990,2.560
20.8420,-2.1090,-0.1270,0.0160,2.113
20.8430,-1.0390,-0.9570,-0.2500,1.435
20.8530,-0.2150,-1.8160,-0.5890,1.921
20.8640,0.0260,-2.0780,-0.8080,2.230
20.8740,-0.1090,-1.4340,-0.6890,1.595
20.8840,-0.2240,-0.5780,-0.3340,0.704
20.8940,0.0760,-0.2840,-0.1370,0.324
20.9080,0.5570,-0.3040,-0.2280,0.674
20.9140,1.0030,-0.3410,-0.3820,1.126
20.9440,1.3960,-0.4240,-0.4640,1.531
20.9440,1.9260,-0.5610,-0.6110,2.097
20.9450,2.5210,-0.7500,-0.8490,2.764
20.9540,3.0370,-0.8900,-1.1070,3.353
20.9690,3.3890,-0.8910,-1.2810,3.731
20.9740,3.5460,-0.7210,-1.2020,3.813
20.9840,3.3110,-0.3370,-1.0020,3.476
20.9940,3.3020,0.0660,-0.7100,3.378
21.0040,3.4750,0.3800,-0.2970,3.508
21.0140,3.4710,0.6940,0.0650,3.540
21.0440,3.3870,1.0160,0.3940,3.558
21.0450,3.1470,1.2440,0.6830,3.452
21.0450,2.7850,1.3630,0.9360,3.239
21.0550,2.2980,1.4240,1.1200,2.926
21.0650,1.5940,1.4750,1.1580,2.461
21.0740,0.6110,1.4880,0.7910,1.793
21.0840,-0.0140,1.2360,0.2020,1.252
21.0940,-0.4420,0.9710,-0.1750,1.081
21.1090,-0.9640,0.8110,-0.4620,1.342
21.1150,-1.3810,0.6270,-0.6430,1.647
21.1480,-1.7190,0.4220,-0.7080,1.906
21.1480,-1.8940,0.2250,-0.6830,2.026
21.1490,-1.9350,0.1200,-0.6550,2.046
21.1540,-1.9450,0.0750,-0.7280,2.078
21.1640,-1.9340,0.0880,-0.8200,2.102
21.1730,-1.8850,0.1490,-0.9710,2.126
21.1840,-1.5540,0.1490,-1.0400,1.876
21.1950,-1.0830,0.2320,-0.8610,1.403
21.2050,-0.7450,0.3740,-0.5430,0.995
21.2140,-0.5630,0.4620,-0.3260,0.798
21.2420,-0.3030,0.4440,-0.1530,0.559
21.2420,-0.0010,0.3760,0.0880,0.386
21.2430,0.2190,0.3260,0.3490,0.525
21.2540,0.4150,0.3310,0.6500,0.839
21.2650,0.6170,0.3440,0.9440,1.179
21.2740,0.8250,0.3660,1.2570,1.547
21.2840,1.0260,0.4380,1.5810,1.935
21.2940,1.1680,0.5720,1.9000,2.302
21.3050,1.2600,0.7250,2.1630,2.606
21.3140,1.3170,0.8830,2.3960,2.873
21.3240,1.3850,1.0000,2.5750,3.090
21.3610,1.4420,1.1090,2.7260,3.277
21.3620,1.3250,1.2890,2.8850,3.426
21.3620,1.1350,1.5440,2.9450,3.514
21.3640,1.1920,1.5660,2.8030,3.425
21.3740,1.8870,0.5840,2.3020,3.033
21.3850,2.7420,-0.9160,1.6610,3.334
21.3930,2.9810,-1.6400,1.2800,3.635
21.4040,2.6730,-1.3410,1.2250,3.232
21.4140,2.3070,-0.7580,1.2450,2.729
21.4230,2.3330,-0.3900,1.3690,2.733
21.4650,2.5290,-0.0890,1.7230,3.061
21.4650,2.5260,0.2910,2.1840,3.352
21.4660,2.5350,0.7220,2.4920,3.627
21.4660,2.7650,1.0490,2.5650,3.915
21.4730,2.9990,1.4110,2.3620,4.070
21.4840,3.2100,1.6560,1.8750,4.070
21.5010,3.1080,1.7980,1.1800,3.780
21.5090,2.8310,1.8840,0.5380,3.443
21.5130,2.6150,1.9630,0.0180,3.270
21.5390,2.3910,2.0610,-0.4490,3.188
21.5400,1.9540,2.0020,-1.0390,2.984
21.5430,1.6250,1.8910,-1.6220,2.974
21.5540,1.4360,1.7650,-2.1490,3.130
21.5640,1.2870,1.7350,-2.5920,3.374
21.5740,1.2120,1.6770,-2.9480,3.602
21.5840,1.1120,1.4680,-3.4110,3.876
21.5960,0.9870,1.1490,-4.1320,4.401
21.6030,0.8010,0.6320,-5.0500,5.152
21.6130,0.3160,0.1020,-5.9510,5.960
21.6240,-0.3410,-0.1810,-6.2330,6.245
21.6410,-1.0230,-0.1110,-5.9120,6.001
21.6440,-1.1950,-0.1800,-5.1040,5.245
21.6540,-0.8420,-0.2250,-3.9680,4.063
21.6660,-0.2570,-0.2330,-2.6370,2.660
21.6740,0.2430,-0.1710,-1.3880,1.419
21.6850,0.3520,-0.1190,-0.4740,0.602
21.6940,0.3060,-0.1780,0.1380,0.380
21.7040,0.1670,-0.2790,0.5910,0.675
21.7140,-0.0340,-0.2820,1.0050,1.044
21.7250,-0.2470,-0.2700,1.3510,1.400
21.7330,-0.5180,-0.2650,1.5970,1.700
21.7470,-0.8100,-0.2320,1.7320,1.926
21.7530,-1.0050,-0.1570,1.7930,2.061
21.7630,-1.0900,-0.0880,1.7510,2.064
21.7730,-1.1750,0.0010,1.5980,1.983
21.7830,-1.2120,0.1600,1.2970,1.782
21.7940,-1.1080,0.3610,0.9080,1.477
21.8050,-0.8580,0.4790,0.5220,1.113
21.8140,-0.5760,0.5610,0.1880,0.826
21.8240,-0.3230,0.5830,-0.0680,0.670
21.8460,-0.1180,0.5330,-0.2870,0.617
21.8470,0.0380,0.4580,-0.4500,0.643
21.8530,0.1380,0.3960,-0.5880,0.722
21.8640,0.1490,0.3650,-0.7250,0.825
21.8740,-0.0250,0.2960,-0.8500,0.900
21.8850,-0.2880,0.1170,-0.9720,1.020
21.8930,-0.4410,-0.0300,-1.0080,1.101
21.9030,-0.5690,-0.0950,-0.9530,1.114
21.9140,-0.6710,-0.1050,-0.7830,1.037
21.9240,-0.6930,-0.0980,-0.5670,0.901
21.9460,-0.6260,-0.0310,-0.3030,0.696
21.9460,-0.7040,-0.1870,0.0140,0.729
21.9540,-0.8960,-0.5740,0.3760,1.129
21.9630,-1.0420,-1.3610,0.8260,1.903
21.9730,-1.4950,-2.3310,1.0490,2.961
21.9840,-1.7940,-2.7320,0.8390,3.374
21.9940,-1.6320,-2.6130,0.0240,3.081
22.0030,-1.0920,-2.2110,-0.9510,2.643
22.0130,-0.1090,-1.6930,-1.9390,2.576
22.0230,0.7840,-1.2210,-2.7180,3.081
22.0460,1.1880,-0.8160,-3.2670,3.571
22.0460,1.0560,-0.4620,-3.4700,3.656
22.0530,0.6840,-0.4620,-3.2420,3.345
22.0630,0.4850,-0.7780,-2.6180,2.774
22.0730,0.3740,-1.1600,-1.8830,2.243
22.0840,0.3830,-1.5280,-1.2510,2.012
22.0930,0.5440,-1.8440,-0.9280,2.135
22.1030,0.6180,-2.1090,-0.8700,2.364
22.1130,0.6280,-2.0860,-0.6940,2.286
22.1230,0.3250,-1.8540,-0.2560,1.900
22.1420,-0.2240,-1.5820,0.3630,1.638
22.1430,-0.9070,-1.1510,1.0830,1.822
22.1530,-1.5150,-0.7200,1.8070,2.466
22.1630,-1.9300,-0.3620,2.5220,3.196
22.1730,-2.1110,-0.1700,3.1410,3.788
22.1830,-1.9540,-0.1360,3.4950,4.006
22.1940,-1.7140,-0.2020,3.5980,3.991
22.2040,-1.5030,-0.2270,3.4920,3.808
22.2130,-1.4440,-0.1260,3.3180,3.621
22.2240,-1.6120,-0.0550,3.0680,3.466
22.2460,-1.9020,-0.0750,2.7380,3.335
22.2480,-1.9840,-0.1620,2.4750,3.176
22.2530,-1.7710,-0.2570,2.3370,2.943
22.2630,-1.2670,-0.4060,2.1440,2.523
22.2740,-0.6050,-0.5420,1.8140,1.988
22.2850,0.0550,-0.6690,1.4440,1.592
22.2930,0.6200,-0.8060,1.0880,1.489
22.3040,0.8910,-0.8120,0.8030,1.448
22.3160,1.0150,-0.7640,0.6460,1.425
22.3240,1.0880,-0.7220,0.6260,1.448
22.3440,1.1210,-0.6450,0.6800,1.461
22.3440,1.1540,-0.5090,0.7980,1.493
22.3530,1.1410,-0.3280,0.9620,1.528
22.3630,1.0820,-0.1850,1.1560,1.594
22.3730,1.0820,-0.0900,1.3620,1.742
22.3850,1.2460,-0.1880,1.5410,1.991
22.3930,1.4510,-0.5390,1.7010,2.300
22.4030,1.2880,-0.8170,1.9030,2.439
22.4150,0.7680,-0.8060,2.2160,2.480
22.4230,0.1530,-0.6440,2.5580,2.642
22.4440,-0.3070,-0.5130,2.9090,2.970
22.4440,-0.5720,-0.1530,3.1430,3.198
22.4530,-0.6620,0.1840,3.0850,3.161
22.4630,-0.6210,0.5160,2.6410,2.762
22.4730,-0.6710,0.9250,2.0200,2.321
22.4850,-0.7720,1.4430,1.3280,2.108
22.4930,-0.9560,2.0840,0.5910,2.368
22.5030,-1.2320,2.7470,-0.1160,3.013
22.5130,-1.5860,3.5020,-0.7800,3.923
22.5240,-2.2490,4.4700,-1.3670,5.187
22.5500,-3.1220,5.7430,-1.8450,6.792
22.5510,-4.0740,7.0600,-2.2040,8.444
22.5520,-4.8920,8.1600,-2.4670,9.829
22.5620,-5.4330,8.8430,-2.6120,10.702
22.5720,-5.7540,8.6630,-2.8110,10.773
22.5830,-5.9710,7.8330,-2.9670,10.286
22.5940,-6.6600,6.8220,-3.0360,10.006
22.6040,-7.8430,5.8070,-2.8420,10.164
22.6140,-9.2070,5.0690,-2.3250,10.764
22.6240,-10.3730,4.7840,-1.3310,11.500
22.6430,-10.9360,4.7040,-0.1590,11.906
22.6460,-10.5410,4.4340,0.8380,11.466
22.6590,-8.7710,3.4880,1.5900,9.572
22.6620,-5.9020,1.8090,1.8410,6.442
22.6730,-2.2850,-0.6540,1.4720,2.796
22.6850,1.9630,-3.7050,0.7870,4.266
22.6940,5.7970,-6.8810,0.0910,8.998
22.7030,8.7250,-9.8670,-0.7700,13.194
22.7150,10.9830,-12.5640,-0.4500,16.694
22.7230,12.0870,-13.9430,0.9500,18.477
22.7500,12.5060,-13.7530,2.7540,18.792
22.7510,12.9210,-13.5100,3.1820,18.963
22.7520,13.3990,-13.1160,2.0790,18.865
22.7630,12.7540,-13.2960,0.0780,18.424
22.7730,11.5320,-14.5790,-1.8610,18.681
22.7840,10.3020,-16.8710,-3.7180,20.114
22.7930,9.3850,-19.5490,-5.4290,22.354
22.8040,7.9390,-20.7080,-6.6670,23.158
22.8120,6.4340,-20.1680,-7.3050,22.394
22.8230,6.0300,-19.0300,-7.1060,21.190
22.8330,6.1130,-18.2420,-6.0180,20.158
22.8490,6.1100,-17.6210,-4.3860,19.159
22.8540,6.1530,-16.9190,-2.5100,18.177
22.8640,6.5180,-16.2110,-0.8070,17.491
22.8730,7.0940,-15.5330,0.6300,17.088
22.8820,7.0640,-14.1950,1.9400,15.974
22.8930,6.0460,-12.1350,3.0150,13.889
22.9020,4.8060,-9.6750,3.2600,11.284
22.9120,3.3800,-7.0360,2.7140,8.264
22.9230,1.3340,-3.7380,2.3560,4.616
22.9400,-0.8170,-0.0740,2.6860,2.808
22.9410,-3.2490,3.6530,3.4580,5.988
22.9660,-5.8130,7.5320,4.3770,10.473
22.9670,-8.2860,11.5540,5.1990,15.139
22.9720,-10.4530,15.5130,5.5800,19.521
22.9830,-11.7750,18.8450,5.4820,22.887
22.9920,-10.7900,19.7260,4.7020,22.971
23.0030,-7.3380,16.6060,2.9110,18.387
23.0140,-4.0860,11.7940,0.6870,12.501
23.0220,-2.5430,8.9420,-1.3250,9.391
23.0510,-2.0650,7.3530,-3.1060,8.245
23.0520,-1.8350,5.8520,-4.5160,7.616
23.0520,-2.2760,4.7780,-5.0440,7.311
23.0640,-3.3740,4.5090,-4.3550,7.119
23.0730,-4.6130,4.7960,-2.5810,7.137
23.0830,-5.1330,4.8930,-0.5320,7.111
23.0930,-5.3300,4.6350,1.2430,7.172
23.1020,-5.5810,4.5400,2.6440,7.665
23.1120,-5.8700,4.6400,3.4940,8.258
23.1220,-6.5280,4.9470,3.6750,8.977
23.1330,-7.6980,5.4980,3.2960,10.018
23.1430,-8.8330,5.9090,2.6230,10.946
23.1700,-9.7630,6.0740,1.9180,11.657
23.1710,-10.5910,6.2190,1.3270,12.353
23.1710,-10.9190,6.3670,0.8880,12.671
23.1820,-10.5050,6.4910,0.5000,12.359
23.1920,-9.3890,6.5200,-0.0870,11.431
23.2020,-7.8650,6.4590,-0.9280,10.219
23.2110,-6.0640,6.3140,-2.1040,9.004
23.2230,-4.4750,6.0760,-3.2740,8.226
23.2340,-3.3810,5.9560,-4.1230,7.994
23.2420,-2.5280,5.8090,-4.4020,7.714
23.2730,-2.0110,5.8520,-4.3900,7.587
23.2730,-2.3660,6.6990,-4.3210,8.315
23.2740,-3.7270,8.0060,-4.1550,9.760
23.2820,-5.3170,9.0000,-3.7810,11.116
23.2920,-6.8230,10.0130,-3.1930,12.530
23.3030,-7.9380,10.5700,-2.2660,13.412
23.3120,-8.7170,10.8660,-1.2140,13.983
23.3220,-9.5320,10.8090,-0.7850,14.433
23.3360,-9.8330,10.4320,-1.1860,14.385
23.3420,-9.9440,9.4380,-2.0100,13.856
23.3560,-10.1470,7.8200,-2.7030,13.093
23.3640,-10.1280,6.1920,-2.7280,12.180
23.3720,-8.6070,4.0630,-2.3480,9.803
23.3810,-5.8860,1.0760,-2.1070,6.344
23.3910,-2.4260,-2.5960,-1.9710,4.063
23.4030,1.1500,-6.2610,-1.6890,6.586
23.4120,3.8290,-9.0170,-1.4490,9.903
23.4210,5.9740,-11.0120,-1.3540,12.601
23.4360,7.4640,-11.8990,-0.6830,14.063
23.4420,8.2690,-12.1120,1.1870,14.713
23.4570,9.1090,-12.1270,3.5400,15.575
23.4610,9.7920,-11.5350,4.8790,15.898
23.4720,10.2980,-11.3040,4.8170,16.032
23.4820,10.2570,-11.6490,4.4120,16.136
23.4920,8.8630,-11.7300,3.6760,15.154
23.5010,7.5650,-11.6140,3.1950,14.224
23.5120,6.6720,-11.8290,2.7280,13.852
23.5220,6.5350,-11.9890,2.0240,13.804
23.5310,7.4590,-11.9910,1.1920,14.172
23.5420,9.2390,-11.7620,0.2990,14.960
23.5600,11.3630,-11.1970,-0.6380,15.966
23.5620,13.0510,-10.1460,-1.5300,16.602
23.5720,13.4710,-8.7620,-2.0200,16.196
23.5820,12.5290,-7.6470,-1.9470,14.807
23.5920,10.5550,-6.8780,-1.2600,12.661
23.6030,8.0410,-6.1760,-0.3730,10.146
23.6110,5.9350,-5.3680,0.2070,8.005
23.6220,4.5420,-4.6650,0.3250,6.519
23.6350,3.6710,-4.0740,0.1680,5.487
23.6410,3.0180,-3.5710,0.0020,4.676
23.6630,2.2630,-3.0740,-0.0940,3.818
23.6640,1.5510,-2.5990,-0.0460,3.027
23.6720,0.8990,-2.1860,0.0250,2.364
23.6890,0.2770,-1.7920,0.0500,1.814
23.6910,-0.1650,-1.3630,0.0790,1.375
23.7140,-0.5030,-0.8900,0.1270,1.030
23.7150,-0.7960,-0.3560,0.1560,0.886
23.7220,-1.0230,0.2780,0.2180,1.082
23.7320,-1.1360,0.9360,0.2570,1.494
23.7430,-1.3260,1.5150,0.2660,2.031
23.7530,-1.5380,2.0230,0.2190,2.551
23.7620,-1.6970,2.3410,0.1520,2.895
23.7820,-1.8920,2.5500,-0.0160,3.175
23.7830,-2.2250,2.8050,-0.2540,3.589
23.7920,-2.5990,3.0100,-0.3580,3.993
23.8050,-2.9150,3.0700,-0.3420,4.247
23.8150,-3.1430,3.0880,-0.2700,4.414
23.8210,-3.4120,3.0300,-0.2830,4.572
23.8360,-3.5910,2.9110,-0.4090,4.641
23.8420,-3.6380,2.8600,-0.6260,4.670
23.8720,-3.4730,2.8200,-0.8940,4.562
23.8720,-3.1760,2.7130,-1.1950,4.345
23.8730,-2.7770,2.5050,-1.5050,4.031
23.8820,-2.3010,2.1780,-1.7660,3.627
23.8910,-1.7790,1.7330,-1.8740,3.111
23.9050,-1.3060,1.2210,-1.8590,2.579
23.9110,-0.9080,0.6830,-1.6990,2.044
23.9220,-0.6140,0.1500,-1.4970,1.625
23.9350,-0.4000,-0.3110,-1.3530,1.445
23.9420,-0.2450,-0.6990,-1.2720,1.472
23.9670,-0.2910,-1.0210,-1.2840,1.666
23.9670,-0.5320,-1.2660,-1.3360,1.916
23.9710,-0.8460,-1.4350,-1.3980,2.175
23.9810,-1.2750,-1.4990,-1.4460,2.442
23.9910,-1.7040,-1.5220,-1.4340,2.697
24.0010,-1.9870,-1.4890,-1.3130,2.809
24.0110,-2.2090,-1.4360,-1.1050,2.857
24.0210,-2.3650,-1.4200,-0.8470,2.886
24.0340,-2.5080,-1.3810,-0.5880,2.923
24.0410,-2.6400,-1.2390,-0.3910,2.942
24.0670,-2.7750,-1.0300,-0.3120,2.976
24.0670,-2.8610,-0.8140,-0.3900,3.000
24.0710,-2.8980,-0.6310,-0.5400,3.015
24.0820,-2.8900,-0.4530,-0.7120,3.011
24.0910,-2.8640,-0.1990,-0.8510,2.994
24.1020,-2.7460,0.0040,-0.9520,2.906
24.1110,-2.4790,0.0100,-1.0310,2.685
24.1220,-2.1420,-0.1320,-1.1070,2.415
24.1340,-1.9040,-0.3210,-1.1360,2.240
24.1420,-1.7500,-0.4410,-1.0870,2.107
24.1620,-1.6230,-0.5140,-0.9960,1.972
24.1620,-1.4320,-0.6630,-0.9190,1.826
24.1710,-1.2570,-0.6610,-0.8560,1.658
24.1820,-1.1330,-0.6000,-0.8290,1.527
24.1910,-1.0320,-0.4540,-0.8300,1.400
24.2020,-0.9070,-0.2590,-0.8180,1.249
24.2120,-0.7430,-0.0240,-0.8200,1.107
24.2210,-0.5590,0.1640,-0.8330,1.016
24.2340,-0.3540,0.2520,-0.8450,0.950
24.2410,-0.0490,0.1830,-0.8690,0.889
24.2580,0.3290,-0.0430,-0.9530,1.009
24.2600,0.6290,-0.2990,-1.0960,1.299
24.2710,0.8320,-0.6390,-1.2070,1.599
24.2810,0.7380,-0.9570,-1.2090,1.709
24.2920,0.3770,-1.0320,-1.0260,1.503
24.3010,-0.0040,-0.9530,-0.7630,1.221
24.3150,-0.0710,-0.9030,-0.5690,1.070
24.3210,0.1090,-0.8920,-0.5110,1.034
24.3310,0.3480,-0.8310,-0.5480,1.054
24.3410,0.5300,-0.7430,-0.6270,1.107
24.3530,0.6720,-0.6210,-0.7300,1.171
24.3730,0.8700,-0.5420,-0.7790,1.287
24.3730,1.0790,-0.4340,-0.6890,1.352
24.3810,1.1360,-0.2950,-0.4260,1.249
24.3910,1.0990,-0.1620,-0.0700,1.113
24.4020,1.1080,0.0140,0.4180,1.184
24.4130,1.1760,0.2320,0.9700,1.542
24.4260,1.2580,0.4390,1.5090,2.013
24.4340,1.3910,0.5080,1.8850,2.397
24.4410,1.6370,0.5810,2.3260,2.903
24.4640,1.6600,0.4470,2.6240,3.137
24.4640,1.6010,0.3210,2.7550,3.203
24.4700,1.3190,0.2050,2.7360,3.044
24.4810,0.9460,0.1510,2.8200,2.978
24.4910,0.5900,0.1240,2.9710,3.032
24.5030,0.3920,0.1190,3.1580,3.184
24.5110,0.4610,0.0750,3.3640,3.396
24.5230,0.7610,0.1040,3.5560,3.638
24.5450,1.1370,0.1870,3.7120,3.887
24.5460,1.6110,0.3040,3.7680,4.109
24.5510,2.2040,0.4530,3.7980,4.414
24.5620,2.8160,0.6050,3.7670,4.742
24.5760,3.3630,0.7670,3.6530,5.024
24.5800,3.8760,1.0340,3.6200,5.403
24.5910,4.2630,1.2350,3.5410,5.678
24.6010,4.6440,1.3090,3.4330,5.922
24.6130,4.8590,1.3370,3.1960,5.968
24.6210,4.9310,1.3480,2.7710,5.815
24.6300,4.7490,1.4070,2.3050,5.463
24.6400,4.3600,1.4030,1.8630,4.945
24.6520,4.0460,1.3610,1.4810,4.518
24.6620,3.7520,1.3180,1.2370,4.165
24.6700,3.2960,1.2520,1.0510,3.679
24.6810,2.8030,1.2380,0.9480,3.208
24.6900,2.3980,1.2530,0.9080,2.854
24.7010,2.1120,1.2500,0.8840,2.609
24.7120,1.9880,1.1660,0.8730,2.465
24.7200,1.8920,1.1610,0.8900,2.392
24.7340,1.7460,1.2540,0.9360,2.345
24.7410,1.6170,1.2790,0.9340,2.263
24.7570,1.5350,1.2530,0.9360,2.191
24.7610,1.4520,1.2680,0.9390,2.144
24.7700,1.3540,1.3090,0.9360,2.103
24.7800,1.2410,1.3590,0.8910,2.045
24.7900,1.1340,1.3160,0.7550,1.894
24.8000,1.0320,1.0830,0.5590,1.597
24.8120,0.8860,0.8180,0.3600,1.258
24.8200,0.8010,0.3790,0.0720,0.889
24.8330,0.8930,-0.3280,-0.2450,0.982
24.8410,1.0380,-1.1080,-0.5540,1.616
24.8590,1.0460,-1.6880,-0.8660,2.166
24.8600,0.7530,-1.8620,-1.0350,2.259
24.8710,0.3040,-1.6880,-0.9080,1.941
24.8820,-0.1550,-1.4550,-0.4820,1.541
24.8910,-0.4980,-1.2960,0.1290,1.394
24.9020,-0.6900,-1.2050,0.7540,1.580
24.9110,-0.7890,-1.0570,1.2840,1.841
24.9210,-0.7770,-0.9260,1.7320,2.112
24.9350,-0.7080,-0.7640,2.1110,2.354
24.9400,-0.6530,-0.6180,2.4150,2.577
24.9590,-0.6030,-0.4850,2.6180,2.730
24.9610,-0.5080,-0.3390,2.7280,2.796
24.9710,-0.3930,-0.2660,2.5750,2.618
24.9810,-0.1250,-0.2150,2.1630,2.177
24.9910,0.0670,-0.1180,1.5470,1.553
25.0010,0.1880,-0.0130,0.8320,0.853
25.0130,0.2330,0.0560,0.1580,0.287
25.0210,0.1300,0.1860,-0.4020,0.462
25.0350,-0.0790,0.2440,-1.0470,1.078
25.0410,-0.2770,0.2150,-1.6620,1.699
25.0650,-0.4450,0.2430,-2.1340,2.193
25.0670,-0.4750,0.2830,-2.4640,2.525
25.0730,-0.4930,0.2710,-2.6680,2.727
25.0800,-0.4420,0.2000,-2.7730,2.815
25.0900,-0.3430,0.0100,-2.7090,2.731
25.1020,-0.1960,-0.2520,-2.4530,2.474
25.1110,-0.1210,-0.4810,-2.1090,2.167
25.1210,-0.1290,-0.7550,-1.7430,1.904
25.1310,-0.2260,-1.0010,-1.3540,1.699
25.1410,-0.4500,-1.0460,-0.8910,1.446
25.1720,-0.7230,-0.9790,-0.4330,1.292
25.1720,-1.0440,-0.8540,-0.0560,1.350
25.1730,-1.2680,-0.6890,0.1890,1.455
25.1810,-1.3590,-0.5030,0.3200,1.484
25.1900,-1.3320,-0.3650,0.3320,1.420
25.2010,-1.2580,-0.2050,0.1900,1.289
25.2140,-1.1160,-0.0190,0.0300,1.117
25.2200,-0.9830,0.1090,-0.0930,0.993
25.2310,-0.9170,0.2570,-0.2440,0.983
25.2410,-0.7770,0.3410,-0.4140,0.944
25.2510,-0.6770,0.3930,-0.6190,0.998
25.2600,-0.7580,0.4850,-0.7810,1.192
25.2830,-0.9220,0.5010,-0.8740,1.366
25.2840,-1.0320,0.4100,-0.9050,1.433
25.2910,-1.0530,0.2770,-0.8960,1.410
25.3000,-1.0440,0.1410,-0.7890,1.316
25.3130,-0.9750,0.0750,-0.5750,1.134
25.3200,-0.8240,-0.0350,-0.3430,0.893
25.3320,-0.5870,-0.1670,-0.1120,0.620
25.3400,-0.3230,-0.3150,0.1180,0.466
25.3530,-0.1040,-0.5340,0.2690,0.607
25.3600,0.1930,-0.9840,0.2840,1.042
25.3920,0.4520,-1.4770,0.1110,1.549
25.3920,0.4390,-1.6720,-0.1510,1.735
25.3930,0.3970,-1.8280,-0.2810,1.892
25.4020,0.3820,-1.8590,-0.2900,1.920
25.4100,0.1750,-1.5010,-0.2230,1.528
25.4200,-0.1470,-0.9480,-0.0230,0.960
25.4330,-0.4870,-0.3740,0.1960,0.645
25.4410,-0.7650,0.1040,0.3130,0.833
25.4750,-1.0120,0.4800,0.2240,1.142
25.4750,-1.0980,0.7590,0.0050,1.335
25.4760,-0.9980,0.9360,-0.3070,1.402
25.4810,-0.8460,1.0230,-0.5300,1.429
25.4900,-0.6880,1.0300,-0.6450,1.397
25.5000,-0.4430,0.9170,-0.5760,1.170
25.5120,-0.1040,0.6880,-0.4340,0.820
25.5200,0.1640,0.4260,-0.3250,0.560
25.5320,0.3020,0.1630,-0.2750,0.440
25.5390,0.3500,-0.1260,-0.2570,0.452
25.5720,0.2720,-0.3620,-0.1820,0.488
25.5730,0.1970,-0.6080,0.0450,0.641
25.5730,0.1670,-0.8890,0.3390,0.966
25.5810,0.1140,-1.1090,0.7180,1.326
25.5900,0.1120,-1.3740,1.1460,1.793
25.6000,0.1220,-1.6460,1.5390,2.257
25.6100,-0.1390,-1.7070,1.9090,2.565
25.6200,-0.6110,-1.6480,2.3440,2.930
25.6360,-1.1080,-1.5630,2.7620,3.361
25.6400,-1.4890,-1.3990,3.0810,3.697
25.6730,-1.4680,-1.3120,3.1760,3.737
25.6730,-0.9900,-1.2840,2.7930,3.229
25.6740,-0.3440,-1.2230,1.9110,2.295
25.6810,0.2060,-0.9840,0.8570,1.321
25.6910,0.1870,-0.5300,0.1340,0.578
25.7000,-0.1720,0.1750,-0.1900,0.310
25.7130,-0.6100,0.9320,-0.3170,1.158
25.7200,-1.0680,1.7680,-0.4910,2.123
25.7300,-1.3180,2.4430,-0.7560,2.877
25.7400,-1.2030,3.1530,-1.0640,3.538
25.7510,-0.9890,4.0020,-1.2960,4.321
25.7600,-0.9130,4.6980,-1.3720,4.979
25.7890,-1.1430,5.4660,-1.4440,5.768
25.7900,-1.6870,6.3290,-1.4600,6.711
25.7900,-2.5320,7.2010,-1.3590,7.753
25.8010,-3.6410,7.9560,-0.9380,8.800
25.8110,-4.7130,8.4610,-0.1960,9.687
25.8200,-5.5110,8.5700,0.8000,10.220
25.8360,-5.9870,8.2670,1.8370,10.371
25.8400,-6.2260,7.8150,2.7100,10.353
25.8710,-6.1860,7.3690,3.3360,10.183
25.8710,-5.8080,6.8550,3.7570,9.739
25.8710,-5.2250,6.4180,4.0010,9.192
25.8800,-4.3250,5.9980,3.9960,8.405
25.8890,-2.7860,5.3680,4.0390,7.273
25.9000,-0.8280,4.3030,3.9060,5.870
25.9100,1.1110,2.3640,3.4430,4.322
25.9200,3.1730,-0.4470,2.8040,4.258
25.9340,5.4910,-3.9030,2.2600,7.106
25.9390,8.1080,-7.5280,1.9800,11.240
25.9700,11.2630,-10.1460,1.8510,15.272
25.9710,14.6610,-11.2940,1.5120,18.568
25.9710,17.0240,-10.8350,0.5910,20.188
25.9800,17.8220,-9.5360,-0.0830,20.213
25.9900,16.8940,-8.3090,-0.2190,18.828
26.0000,14.8880,-8.1120,0.1620,16.955
26.0130,12.9060,-10.1030,0.0630,16.390
26.0200,12.4630,-13.9840,-1.3570,18.781
26.0310,12.9850,-18.1920,-3.7150,22.657
26.0410,13.4400,-20.8630,-5.6390,25.450
26.0530,13.9130,-21.3090,-5.5470,26.046
26.0590,14.9170,-20.9180,-3.3750,25.913
26.0820,14.9010,-20.6950,-1.0300,25.522
26.0830,14.5230,-20.3880,0.5030,25.037
26.1010,13.4790,-20.1360,0.9640,24.250
26.1010,11.0220,-19.9760,0.4210,22.819
26.1260,7.7110,-19.2620,0.7710,20.762
26.1270,4.5390,-17.7430,2.4440,18.477
26.1350,2.3150,-15.6750,4.0970,16.366
26.1390,0.1310,-12.9910,4.1880,13.650
26.1610,-2.5130,-10.1110,2.5190,10.719
26.1620,-5.3120,-6.9190,0.7220,8.753
26.1980,-7.8100,-3.4890,0.5430,8.571
26.1990,-9.6980,-0.4420,2.6930,10.075
26.2000,-12.1580,2.9040,5.6180,13.704
26.2020,-14.4820,6.7010,7.6570,17.699
26.2090,-15.9060,10.6690,8.3180,20.881
26.2230,-16.3860,14.3340,7.9480,23.176
26.2320,-15.5460,16.4670,6.7080,23.619
26.2500,-12.4880,15.1960,4.4200,20.159
26.2510,-8.5470,11.2290,1.5520,14.197
26.2590,-6.6340,7.9660,-1.2320,10.440
26.2690,-6.1430,6.4120,-3.4130,9.513
26.2800,-5.7200,5.7850,-4.9090,9.502
26.2900,-4.9460,5.8430,-6.3980,9.977
26.3000,-3.6440,5.4490,-7.1950,9.733
26.3100,-2.2790,5.3980,-7.3320,9.386
26.3200,-1.9190,5.6590,-6.5720,8.882
26.3320,-2.0400,6.1990,-4.6050,7.987
26.3390,-2.4190,6.2160,-2.5140,7.128
26.3490,-2.2650,5.4060,-0.4410,5.878
26.3600,-2.4480,5.3130,1.3430,6.002
26.3690,-3.2080,5.8820,2.6460,7.204
26.3790,-3.9720,6.0570,3.3120,7.965
26.3890,-5.0150,5.9400,3.4900,8.521
26.4000,-6.6230,5.8200,3.6020,9.524
26.4100,-8.5620,5.6170,3.7420,10.902
26.4190,-9.8080,5.4960,3.7450,11.850
26.4320,-10.3740,5.4910,3.3490,12.206
26.4400,-10.4000,5.4220,2.5390,12.000
26.4490,-10.0460,5.3440,1.4430,11.470
26.4630,-9.2170,5.3230,0.3460,10.649
26.4690,-8.2780,5.2030,-0.5530,9.793
26.4830,-7.3540,5.1730,-1.1560,9.065
26.4890,-6.3800,5.3170,-1.5830,8.455
26.5000,-5.5320,5.6140,-1.8350,8.092
26.5120,-5.1340,6.1420,-1.9650,8.243
26.5190,-4.9650,6.9470,-1.7970,8.726
26.5300,-5.0420,7.9900,-1.4800,9.563
26.5400,-5.1670,9.0530,-1.1920,10.492
26.5500,-5.2820,9.8450,-0.8980,11.208
26.5590,-5.3130,10.2870,-0.4160,11.585
26.5720,-5.5410,10.3110,0.2680,11.709
26.5790,-6.1140,10.1090,0.9710,11.854
26.5890,-6.4580,9.7620,1.5310,11.805
26.5990,-6.5260,9.3150,1.8690,11.526
26.6090,-6.3810,8.7620,1.9840,11.019
26.6190,-5.9380,7.9320,1.9320,10.095
26.6320,-5.2690,6.2810,1.4430,8.324
26.6390,-3.7550,3.0710,0.6380,4.893
26.6550,-1.0180,-1.9500,-0.0040,2.200
26.6580,1.6770,-7.1880,-0.6440,7.409
26.6690,4.0700,-10.4910,-1.2620,11.323
26.6790,7.5860,-12.1270,-1.4140,14.374
26.6890,12.2670,-13.4080,-1.9970,18.282
26.6990,16.7100,-14.7520,-3.0450,22.497
26.7100,19.6130,-16.8190,-4.1580,26.169
26.7190,19.8030,-16.8230,-5.0810,26.476
26.7300,16.9870,-13.8680,-3.9800,22.287
26.7390,12.7830,-10.4840,-0.6270,16.544
26.7520,9.0490,-8.3120,2.8450,12.612
26.7600,6.3580,-6.8800,5.0620,10.648
26.7690,4.6380,-5.6690,5.9940,9.464
26.7790,4.2180,-4.5910,5.9920,8.647
26.7890,4.7180,-3.5550,5.5830,8.128
26.7990,5.4220,-2.7810,4.9790,7.869
26.8090,6.0950,-2.3430,4.0020,7.659
26.8190,6.9040,-2.3440,2.7360,7.788
26.8330,7.4580,-2.4780,1.4600,7.993
26.8390,7.6470,-2.6850,0.4970,8.120
26.8490,7.7870,-2.8650,-0.0490,8.297
26.8590,7.5180,-2.8810,-0.4760,8.065
26.8690,6.8790,-2.2150,-0.7650,7.267
26.8780,6.3610,-1.5080,-1.0600,6.623
26.8890,6.1550,-1.1090,-1.5440,6.442
26.8990,6.2330,-0.9910,-2.0770,6.644
26.9090,6.5090,-0.9090,-2.2080,6.933
26.9190,7.0980,-0.8520,-1.7800,7.367
26.9320,7.6770,-0.8040,-0.8620,7.767
26.9390,8.2790,-0.6930,0.3680,8.316
26.9560,8.5140,-0.7740,1.5040,8.680
26.9580,8.1750,-0.8190,2.4710,8.579
26.9690,7.4640,-0.7810,3.3600,8.223
26.9790,6.4600,-0.8840,4.1230,7.714
26.9890,5.2520,-0.8470,4.4970,6.966
26.9990,4.1060,-0.9150,4.4320,6.111
27.0110,3.0930,-1.0480,4.0090,5.171
27.0180,2.3150,-0.9990,3.4230,4.251
27.0290,1.6200,-0.8560,2.9790,3.497
27.0390,1.3430,-0.7520,2.6820,3.092
27.0510,1.4610,-0.8560,2.3340,2.884
27.0590,1.5040,-0.9470,1.7270,2.478
27.0730,1.5330,-0.9840,1.0910,2.123
27.0780,1.7320,-1.1410,0.5480,2.145
27.0890,1.8160,-1.0050,0.2320,2.088
27.0990,1.9220,-0.8480,-0.0150,2.101
27.1090,2.2680,-0.9000,-0.1700,2.446
27.1190,2.5840,-1.0290,0.0880,2.783
27.1300,2.6400,-1.0420,0.4780,2.878
27.1390,2.6110,-1.0260,0.7500,2.904
27.1510,2.6250,-1.0340,0.9150,2.966
27.1590,2.8970,-1.1170,0.7410,3.192
27.1690,2.9630,-1.3980,0.4930,3.313
27.1780,2.6990,-1.7900,0.3570,3.258
27.1890,2.0460,-2.0840,0.2500,2.931
27.1990,1.5620,-2.2980,0.5560,2.834
27.2090,0.8180,-2.4430,0.8580,2.715
27.2190,0.1750,-2.3990,0.6700,2.497
27.2280,0.5390,-2.4640,-0.1390,2.526
27.2390,0.9920,-2.4070,-0.7650,2.713
27.2520,0.8950,-2.2050,-1.0060,2.584
27.2580,0.0620,-2.2340,-1.2460,2.559
27.2680,-0.4520,-2.2050,-1.2480,2.574
27.2780,-0.5100,-2.2190,-1.0240,2.497
27.2890,-0.3220,-2.2160,-0.6690,2.337
27.2990,-0.2250,-2.1840,-0.7340,2.315
27.3080,-0.1960,-2.2300,-1.0890,2.489
27.3190,-0.6000,-2.4860,-1.1600,2.808
27.3290,-0.7600,-2.5990,-1.1420,2.939
27.3390,-0.2760,-2.3380,-1.1890,2.637
27.3480,0.6170,-2.2280,-1.5300,2.772
27.3590,1.0690,-2.2300,-1.8930,3.114
27.3700,0.8560,-2.0650,-2.2830,3.195
27.3780,0.4280,-2.0030,-2.7990,3.468
27.3880,-0.3350,-1.7030,-3.4130,3.829
27.3990,-0.7060,-1.6630,-3.9140,4.311
27.4090,-0.8180,-1.8080,-4.1830,4.630
27.4180,-0.5880,-2.0660,-3.9110,4.462
27.4280,-0.0900,-2.4520,-3.3320,4.138
27.4390,0.4150,-2.4810,-2.9280,3.860
27.4490,0.8680,-2.6840,-2.7830,3.963
27.4580,0.8760,-2.9050,-2.9210,4.212
27.4690,0.6860,-3.0280,-2.9630,4.292
27.4780,0.9310,-3.0490,-2.7880,4.235
27.4880,0.8380,-2.9040,-2.6940,4.049
27.4980,0.0120,-2.7150,-2.9180,3.986
27.5080,-0.7150,-2.5490,-3.4390,4.340
27.5180,-0.6830,-2.7050,-4.1370,4.990
27.5280,-0.0970,-2.6710,-4.2280,5.002
27.5380,0.6740,-2.0250,-3.7980,4.357
27.5480,0.0830,-1.0890,-3.7320,3.889
27.5580,0.1130,-0.9000,-4.0530,4.153
27.5700,0.6730,-0.9020,-4.0790,4.231
27.5800,0.8570,-0.7840,-3.7960,3.970
27.5900,0.6360,-0.5480,-3.7000,3.794
27.5980,0.1310,-0.3540,-4.2560,4.273
27.6100,0.9250,-0.6240,-5.0420,5.164
27.6190,0.9690,-0.9470,-4.7690,4.958
27.6280,-0.0550,-0.6630,-3.4360,3.500
27.6470,-0.7970,0.0120,-2.3080,2.442
27.6490,-0.8130,0.0280,-2.0140,2.172
27.6580,-0.6730,-0.1600,-2.1310,2.240
27.6710,-0.9330,-0.1310,-2.3290,2.512
27.7130,-0.5840,-0.0870,-2.3630,2.436
27.7140,0.4310,0.0880,-2.1320,2.177
27.7150,1.2980,0.5450,-1.9680,2.420
27.7150,1.6820,0.8020,-2.0560,2.775
27.7200,1.6080,0.7750,-1.7680,2.512
27.7320,1.2320,0.7940,-0.9030,1.722
27.7370,0.7470,0.8880,-0.0750,1.163
27.7490,0.6360,0.8720,0.1590,1.091
27.7760,0.6590,0.9710,-0.1830,1.188
27.7760,0.7180,1.0100,-0.7630,1.455
27.7890,1.2890,1.1500,-0.8160,1.910
27.7890,2.5310,1.4590,0.1150,2.924
27.8160,2.6530,1.7180,0.9880,3.312
27.8170,1.8760,1.9580,1.4750,3.087
27.8170,0.7750,2.0950,2.0100,3.005
27.8380,-0.3570,1.8150,1.5210,2.395
27.8380,-1.2150,1.7390,0.5380,2.189
27.8530,-1.5680,1.9280,-0.2670,2.499
27.8680,-1.7790,2.0770,-0.8550,2.865
27.8690,-1.8190,2.0080,-1.1130,2.929
27.8810,-1.7180,1.6410,-1.1370,2.634
27.8890,-1.1520,1.2770,-0.8730,1.929
27.9020,-0.5260,0.9680,-0.5870,1.248
27.9090,-0.1460,0.6590,-0.6380,0.929
27.9200,0.0530,0.3410,-0.8260,0.895
27.9280,0.2670,0.1320,-1.0820,1.122
27.9380,0.5390,0.1680,-1.0750,1.214
27.9470,0.7260,0.5290,-0.9950,1.341
27.9580,0.7580,0.7730,-0.8150,1.355
27.9680,0.7420,0.8150,-0.5160,1.217
27.9780,0.6350,0.8590,-0.3880,1.137
27.9880,0.5090,0.8490,-0.8470,1.303
27.9980,0.7800,0.6150,-1.5950,1.879
28.0070,1.1920,0.3310,-2.0040,2.355
28.0170,1.3890,0.1220,-1.7650,2.249
28.0290,1.2120,0.1040,-1.0740,1.623
28.0390,0.8000,0.1100,-0.3200,0.869
28.0480,0.4040,0.0230,0.1730,0.440
28.0610,0.2140,-0.0990,0.4610,0.518
28.0670,-0.1390,0.1040,0.5040,0.533
28.0780,-0.1860,0.1060,0.2110,0.301
28.1030,-0.1250,0.0030,-0.3760,0.396
28.1090,-0.0490,0.0600,-0.9050,0.908
28.1100,-0.0660,0.2040,-1.2410,1.259
28.1180,-0.0690,0.2970,-1.2800,1.316
28.1280,0.0510,0.3630,-1.0100,1.074
28.1420,0.1260,0.3830,-0.7040,0.811
28.1470,0.2920,0.1060,-0.7770,0.837
28.1570,0.5190,-0.2060,-1.2650,1.383
28.1680,0.7320,-0.1820,-1.6760,1.838
28.1780,0.6740,0.0350,-1.7870,1.910
28.1880,0.2800,-0.0150,-1.8430,1.864
28.2000,-0.0460,-0.0620,-1.5830,1.585
28.2070,-0.1690,-0.2760,-1.1930,1.236
28.2190,-0.1700,-0.3010,-0.5590,0.657
28.2300,0.0430,-0.3610,-0.1810,0.406
28.2380,0.2470,-0.8850,-0.2770,0.960
28.2960,0.3190,-0.9540,-0.8010,1.286
28.3080,0.0230,-0.8550,-1.5630,1.782
28.3120,-0.3280,-0.4910,-2.1550,2.234
28.3130,-1.0220,-0.2410,-2.6170,2.820
28.3130,-4.5180,0.5280,-3.0310,5.466
28.3140,-2.6650,-0.0820,-1.7310,3.179
28.3500,-2.9620,0.1340,-1.6680,3.402
28.3510,-2.2940,-0.2330,-0.8080,2.443
28.3520,-1.5860,-0.4840,-0.4860,1.728
28.3530,-0.3350,-0.3560,-0.6510,0.814
28.3530,0.7740,-0.0530,-0.6520,1.013
28.3570,1.1030,0.1040,-0.0710,1.110
28.3670,0.9740,0.2180,0.5220,1.126
28.3770,0.6110,0.2860,0.8410,1.078
28.3870,-0.2640,-0.1060,1.1070,1.143
28.4000,-1.0370,-0.2300,0.9500,1.425
28.4110,-1.9140,0.0190,0.3670,1.949
28.4190,-2.2840,0.1960,0.2770,2.309
28.4280,1.3520,0.2730,0.9290,1.663
28.4380,3.8080,1.4780,2.1810,4.631
28.4470,2.3300,0.4680,1.2070,2.665
28.4620,-0.3730,0.0950,-1.0270,1.097
28.5080,-0.8880,0.5470,-2.0480,2.298
28.5090,-1.3330,0.6230,-1.9250,2.423
28.5100,-1.9730,0.8810,-1.1880,2.466
28.5140,-1.5460,0.8090,0.0900,1.747
28.5370,-0.3830,0.5570,0.6600,0.945
28.5510,0.0430,0.4720,0.2500,0.536
28.5530,0.1180,0.4840,-0.3340,0.600
28.5530,-0.0280,0.5350,-0.7520,0.923
28.5540,-0.2300,0.5610,-1.1570,1.306
28.5580,-0.3460,0.6370,-1.3520,1.534
28.5680,-0.3160,0.7740,-1.6620,1.860
28.5790,-0.1350,0.7150,-2.0790,2.203
28.5870,0.2590,0.4190,-2.3060,2.358
28.5970,0.6180,0.0250,-2.1180,2.206
28.6070,0.5080,-0.1490,-1.8030,1.879
28.6170,0.3110,-0.1100,-1.1900,1.235
28.6270,-0.1720,0.0590,-0.5710,0.599
28.6370,-0.3800,0.0470,0.1050,0.397
28.6470,-0.5070,-0.1330,0.8210,0.974
28.6580,-0.6400,-0.3510,1.2610,1.457
28.6680,-0.8680,-0.4980,1.0770,1.470
28.6790,-1.4910,-0.2760,0.2100,1.531
28.6900,-2.0010,0.3000,0.7960,2.174
28.6980,-1.1410,0.3450,0.9970,1.554
28.7080,-0.1950,-0.1980,0.8770,0.920
28.7180,0.4290,-0.7330,0.8330,1.190
28.7320,0.6280,-0.7950,0.9720,1.404
28.7360,0.4660,-0.4710,1.0270,1.222
28.7570,0.0560,-0.2170,1.0560,1.080
28.7590,-0.1860,-0.1430,0.8090,0.842
28.8240,-0.1380,-0.1270,0.4220,0.462
28.8370,-0.1080,-0.0610,0.1830,0.221
28.8380,-0.1080,0.0930,0.1620,0.216
28.8400,0.0420,0.1170,0.1020,0.161
28.8410,0.1220,0.1450,-0.1540,0.244
28.8420,0.0840,0.1400,-0.3420,0.379
28.8440,-0.0080,0.1930,-0.3060,0.362
28.8460,-0.1110,0.2630,-0.1270,0.312
28.8640,-0.2410,0.3620,-0.0540,0.438
28.8680,-0.3080,0.3070,-0.1420,0.457
28.8720,-0.2330,0.2050,-0.2060,0.372
28.8760,-0.1510,0.1360,-0.2010,0.286
28.8870,-0.1300,0.0340,-0.1920,0.234
28.8970,-0.1480,0.0030,-0.1120,0.186
28.9080,-0.2560,0.0280,0.0630,0.265
28.9150,-0.4290,0.0410,0.1780,0.466
28.9270,-0.4410,0.0530,0.3010,0.537
28.9360,-0.4560,0.0260,0.4160,0.618
28.9460,-0.2430,-0.0180,0.0940,0.261
28.9550,-0.3860,-0.0880,-0.1070,0.410
28.9660,-0.5430,-0.0830,0.1580,0.572
28.9750,-0.4970,0.1180,0.6710,0.843
28.9870,-0.2830,0.2390,1.0530,1.116
28.9960,-0.1320,0.2010,0.8110,0.846
29.0060,0.0460,0.0770,0.3380,0.350
29.0150,0.1740,0.1030,-0.0630,0.212
29.0270,0.1840,0.1270,-0.2310,0.321
29.0360,0.1590,0.0820,-0.2070,0.274
29.0460,0.2320,-0.0190,-0.0970,0.252
29.0550,0.3210,-0.0850,-0.0080,0.332
29.0660,0.4570,-0.1280,0.1980,0.514
29.0760,0.4840,-0.0880,0.3980,0.633
29.0880,0.2950,-0.0490,0.5740,0.647
29.0960,-0.0470,0.1630,0.5630,0.588
29.1070,-0.4370,0.8590,0.3180,1.015
29.1150,-0.4650,1.3390,-0.0970,1.421
29.1260,0.4140,0.8030,-0.1450,0.915
29.1370,1.7190,0.0040,-0.0700,1.720
29.1450,2.5430,-0.5660,0.0560,2.606
29.1550,2.5080,-0.7620,0.5260,2.673
29.1670,1.6000,-0.7450,0.8090,1.942
29.1760,0.5190,-0.6320,0.7190,1.089
29.1860,-0.3300,-0.6410,0.3420,0.798
29.1950,-0.8580,-0.6540,-0.0110,1.079
29.2060,-0.9390,-0.5230,-0.1600,1.087
29.2170,-0.7540,-0.2640,-0.0500,0.800
29.2250,-0.3000,-0.2510,-0.0430,0.394
29.2360,-0.2200,-0.1490,0.6470,0.699
29.2450,0.0290,0.0900,0.9860,0.991
29.2550,0.1670,0.0410,0.7990,0.817
29.2660,0.2300,-0.1380,0.5720,0.632
29.2760,0.4040,-0.2590,0.1970,0.519
29.2860,0.5620,-0.2500,0.1000,0.623
29.2950,0.6900,-0.2410,0.2470,0.771
29.3060,0.7340,-0.2540,0.3940,0.871
29.3150,0.6420,-0.2570,0.3390,0.770
29.3270,0.3890,-0.1980,0.2730,0.515
29.3360,0.0990,-0.2350,-0.0810,0.268
29.3460,-0.2230,-0.4460,-0.4430,0.667
29.3550,-0.1800,-0.3680,-0.4210,0.587
29.3670,-0.4090,-0.1640,-0.4220,0.610
29.3760,-0.9730,-0.2870,-0.8970,1.354
29.3870,-0.8680,-0.3790,-0.9870,1.368
29.3960,-0.8620,-0.6180,-1.0000,1.458
29.4060,-0.8240,-0.6220,-1.0510,1.473
29.4150,-0.8170,-0.4150,-1.5820,1.828
29.4270,-0.9850,-0.0310,-1.4520,1.755
29.4360,-1.1950,0.2250,-1.0210,1.588
29.4460,-1.1930,0.3920,-0.6520,1.415
29.4550,-0.7160,0.3530,-0.3050,0.855
29.4680,-0.3430,0.0100,-0.1180,0.363
29.4760,-0.5370,0.3480,-0.2020,0.671
29.4860,-0.4160,0.6440,-0.2270,0.800
29.4950,0.0100,0.2520,-0.0160,0.253
29.5060,0.4020,-0.1840,0.1910,0.482
29.5160,0.4130,-0.2350,0.3380,0.583
29.5260,0.1600,-0.0970,0.6010,0.629
29.5380,-0.1010,-0.0630,0.7600,0.769
29.5450,-0.2570,-0.1110,0.7200,0.773
29.5550,-0.2760,-0.1640,0.6400,0.716
29.5650,-0.3140,-0.2740,0.4420,0.607
29.5750,-0.3450,-0.2260,0.3870,0.566
29.5930,-0.4130,-0.0430,0.1710,0.449
29.5950,-1.0670,0.1010,-0.1710,1.085
29.6080,-0.9080,0.4300,-0.3590,1.067
29.6180,-0.6960,0.4360,-2.0040,2.166
29.6280,0.3090,-0.1300,-0.7120,0.787
29.7140,-0.1080,0.3580,0.1690,0.410
29.7150,-0.0600,0.5860,0.2320,0.633
29.7150,-0.0400,0.3480,0.0950,0.363
29.7170,0.0040,0.1440,-0.2140,0.258
29.7180,0.1960,0.0510,-0.3040,0.365
29.7180,0.1800,0.0150,-0.2590,0.316
29.7190,0.0910,-0.0290,-0.1520,0.180
29.7210,0.1530,-0.0940,-0.0620,0.190
29.7270,0.2120,-0.1280,-0.0440,0.252
29.7350,0.1910,-0.1300,-0.0810,0.245
29.7460,0.1870,-0.1540,-0.0610,0.250
29.7810,0.1510,-0.1760,0.0250,0.233
29.7820,-0.1430,0.0040,0.0770,0.162
29.7820,-0.4140,0.2420,0.1200,0.494
29.7840,-0.3960,0.2630,0.1010,0.486
29.7980,-0.2400,0.1830,0.0560,0.307
29.8090,-0.0650,0.1660,-0.0450,0.184
29.8150,-0.0350,0.1130,-0.1260,0.173
29.8250,0.0600,0.1640,-0.1600,0.237
29.8350,0.1160,0.1850,-0.2460,0.329
29.8630,0.2060,0.1810,-0.4560,0.532
29.8640,0.2720,0.1910,-0.5690,0.659
29.8670,0.2840,0.1840,-0.6370,0.721
29.8830,0.3560,0.1610,-0.7830,0.875
29.8850,0.2910,0.1130,-0.7580,0.820
29.8960,0.1920,0.1020,-0.6200,0.657
29.9200,0.0340,0.1110,-0.3550,0.373
29.9210,-0.0410,0.0510,-0.1540,0.167
29.9260,0.0080,-0.0550,-0.0310,0.064
29.9430,0.0670,-0.1740,-0.0040,0.186
29.9460,0.0900,-0.1650,-0.1150,0.220
29.9550,0.0560,-0.1360,0.0090,0.147
29.9660,0.1160,-0.1680,0.1160,0.235
29.9770,0.0000,-0.0080,0.0700,0.070
29.9850,-0.1180,-0.0230,-0.0100,0.121
29.9960,-0.1900,-0.1240,-0.0570,0.234
30.0050,-0.1130,-0.1770,0.1070,0.236
30.0150,0.0290,-0.2010,0.2550,0.326
30.0250,0.0790,-0.1330,0.3150,0.351
30.0350,0.1860,-0.0110,0.2750,0.332
30.0450,0.2350,0.0380,0.1560,0.285
30.0550,0.2580,0.0140,0.0590,0.265
30.0650,0.2030,-0.0640,0.0660,0.223
30.0750,0.0480,-0.0690,0.1270,0.152
30.0850,-0.1420,0.0440,0.1680,0.224
30.0950,-0.2970,0.1370,0.1400,0.356
30.1050,-0.2840,0.1190,0.0250,0.309
30.1150,-0.1220,0.0250,0.0280,0.128
30.1250,0.0060,-0.0540,0.0540,0.077
30.1350,0.0870,-0.0630,0.1420,0.178
30.1450,0.1090,0.0370,0.2960,0.318
30.1550,0.1400,0.1790,0.3370,0.406
30.1650,0.1460,0.2770,0.3290,0.454
30.1750,0.1210,0.1900,0.3470,0.414
30.1850,0.1060,0.0520,0.3090,0.331
30.1950,0.2010,-0.0670,0.2230,0.308
30.2080,0.2930,-0.1060,0.0950,0.326
30.2150,0.4290,-0.0790,-0.0620,0.441
30.2260,0.5400,-0.0020,-0.2220,0.584
30.2350,0.5980,0.1000,-0.3310,0.691
30.2450,0.5430,0.2360,-0.3750,0.701
30.2580,0.2470,0.3890,-0.4250,0.627
30.2650,-0.2150,0.5080,-0.4720,0.726
30.2750,-0.5410,0.5100,-0.5020,0.897
30.2860,-0.5290,0.4110,-0.4560,0.810
30.2970,-0.4620,0.3270,-0.3820,0.683
30.3060,-0.5180,0.3160,-0.3340,0.693
30.3150,-0.5210,0.2570,-0.3690,0.688
30.3250,-0.4790,0.2000,-0.4120,0.663
30.3360,-0.3970,0.1150,-0.2990,0.510
30.3450,-0.2830,-0.0460,-0.0640,0.294
30.3550,-0.1320,-0.3230,0.0590,0.354
30.3660,-0.0150,-0.6320,0.0810,0.637
30.3780,0.0960,-0.7140,0.1440,0.735
30.3850,0.2770,-0.6360,0.2600,0.741
30.3950,0.3680,-0.5630,0.4320,0.799
30.4050,0.3030,-0.5470,0.5930,0.862
30.4150,0.1200,-0.4390,0.7290,0.859
30.4250,0.1060,-0.3180,0.7780,0.847
30.4350,0.2540,-0.2170,0.7350,0.807
30.4450,0.3940,-0.1310,0.6280,0.753
30.4550,0.4690,-0.0890,0.3530,0.594
30.4650,0.5440,-0.0010,-0.0010,0.544
30.4750,0.5820,0.2260,-0.1930,0.653
30.4860,0.3940,0.6920,0.0970,0.802
30.4950,-0.0180,0.8990,0.1730,0.916
30.5060,-0.0210,0.5730,0.3190,0.656
30.5160,0.3990,0.2110,0.3820,0.591
