time,ax,ay,az,aT
0.0350,-0.0880,0.0620,1.2970,1.301
0.0350,0.0740,-0.2060,1.4740,1.490
0.0360,0.1330,-0.6240,1.4350,1.570
0.0360,0.1450,-1.2390,1.9750,2.336
0.0410,0.1490,-1.9450,2.7020,3.333
0.0530,-0.2060,-1.7590,1.8910,2.591
0.0610,-0.2580,-1.5340,2.1760,2.675
0.0790,-0.1850,-1.4330,1.9470,2.425
0.0800,-0.0230,-1.3320,1.2360,1.817
0.0910,-0.0930,-1.5360,0.9360,1.801
0.1030,-0.0520,-1.4520,0.8700,1.693
0.1110,0.3290,-1.3180,0.1380,1.365
0.1230,0.7740,-0.8480,-0.5450,1.271
0.1310,1.0250,-0.3210,-0.9770,1.452
0.1420,0.7520,0.0860,-0.7540,1.068
0.1530,0.4230,0.2350,-0.4300,0.647
0.1660,0.5990,0.1360,-0.5390,0.817
0.1720,0.6890,0.1600,-0.3900,0.808
0.1810,0.6150,0.0430,-0.2920,0.682
0.1910,0.6940,-0.1680,-0.6380,0.958
0.2010,0.5840,-0.2890,-0.5440,0.849
0.2110,0.4470,-0.4490,-0.5470,0.837
0.2220,0.3950,-0.6860,-1.0760,1.336
0.2310,-0.0970,-0.3730,-0.7620,0.854
0.2410,-7.7400,8.0860,1.8010,11.337
0.2530,-3.0550,6.0590,2.0360,7.084
0.2640,0.0900,0.5670,-3.4520,3.499
0.2720,0.8290,3.2060,-2.9090,4.408
0.2810,-0.5510,2.3390,-1.1160,2.650
0.2910,-1.4140,0.4510,0.7250,1.652
0.3030,-1.2560,-0.1390,0.3950,1.324
0.3110,-0.0960,-0.2540,-0.5060,0.574
0.3320,0.2530,-0.1680,-0.8170,0.872
0.3320,0.0060,-0.0140,-0.6840,0.684
0.3410,-0.1520,-0.0350,-0.8530,0.867
0.3510,-0.1090,0.0920,-0.7560,0.769
0.3660,0.1500,0.2170,-0.4050,0.483
0.3730,0.2690,0.4020,-0.3660,0.607
0.3810,0.2030,0.5480,-0.6100,0.845
0.3910,-0.2240,0.4660,-0.8290,0.977
0.4010,-0.6900,0.4570,-0.5890,1.016
0.4110,-1.0200,0.4720,-0.3390,1.174
0.4210,-1.0010,0.1840,-0.6550,1.210
0.4310,-0.4890,0.1730,-0.5850,0.782
0.4410,-0.1870,0.1370,-0.7350,0.771
0.4530,-0.1310,0.2150,-0.7760,0.816
0.4630,0.6290,0.3410,0.9010,1.151
0.4720,1.0830,0.2910,1.9650,2.262
0.4820,1.1750,0.3650,-0.0490,1.231
0.4910,1.7840,0.5720,-2.3450,3.001
0.5010,0.2220,0.6460,-2.3430,2.441
0.5110,-0.9290,0.5480,-2.0680,2.332
0.5220,-1.1640,0.2060,-1.8500,2.195
0.5310,-0.5830,-0.0130,-1.1160,1.259
0.5410,-0.3270,-0.0900,-0.2140,0.401
0.5520,-0.7110,-0.2350,0.4780,0.888
0.5630,-0.8310,-0.3230,1.0340,1.365
0.5720,-0.8160,-0.3310,1.2580,1.536
0.5820,-0.5980,-0.3160,1.2360,1.409
0.5910,-0.3770,-0.1900,1.4890,1.548
0.6010,-0.2780,0.0870,1.8520,1.875
0.6120,-0.1900,0.2450,2.0390,2.062
0.6220,-0.1280,0.2650,1.8570,1.880
0.6320,-0.2470,0.2610,1.3080,1.356
0.6410,-0.4080,0.3750,0.5570,0.786
0.6510,-0.6030,0.4830,-0.2470,0.811
0.6630,-0.7980,0.5650,-0.9550,1.367
0.6710,-0.8670,0.6750,-1.5830,1.927
0.6810,-0.8640,0.6580,-2.1110,2.374
0.6910,-0.8210,0.6290,-2.3690,2.585
0.7010,-0.8500,0.6820,-2.4140,2.649
0.7110,-1.0210,0.6590,-2.5020,2.781
0.7210,-1.1210,0.5070,-2.5980,2.875
0.7310,-1.1150,0.2390,-2.7310,2.960
0.7410,-1.3790,0.2070,-3.0090,3.316
0.7520,-1.7370,0.1640,-3.3290,3.758
0.7640,-2.1080,0.1870,-3.8760,4.416
0.7720,-1.9870,0.0260,-4.4970,4.916
0.7810,-1.5080,0.1420,-4.8980,5.127
0.7910,-0.8920,0.5210,-5.0310,5.136
0.8010,-0.1000,0.6490,-4.4790,4.527
0.8120,0.0650,0.3590,-3.5430,3.562
0.8210,-0.4330,-0.0570,-2.3680,2.408
0.8300,-1.0610,-0.3210,-1.1630,1.607
0.8410,-1.3930,-0.5540,-0.4400,1.562
0.8530,-1.4910,-0.7800,-0.5870,1.782
0.8600,-1.5140,-0.7590,-1.3310,2.154
0.8710,-1.4740,-0.9320,-2.2080,2.814
0.8800,-1.5170,-0.9350,-2.7180,3.250
0.8910,-1.8330,-0.9910,-2.5320,3.279
0.9010,-1.8810,-1.2960,-1.7840,2.898
0.9110,-1.5840,-1.4220,-0.8770,2.302
0.9200,-1.1870,-1.5350,-0.2430,1.956
0.9320,2.2370,-4.0530,0.2330,4.635
0.9410,3.9510,-6.4590,-0.2040,7.574
0.9530,-0.8690,-1.9780,-1.3320,2.538
0.9610,-3.6340,0.1720,-1.8600,4.086
0.9710,-5.2430,0.1590,-2.2240,5.697
0.9800,-4.6210,-0.5120,-2.3220,5.197
0.9920,-2.2590,-1.8340,-2.3120,3.716
1.0010,-0.0040,-2.9610,-2.1720,3.672
1.0140,1.1770,-3.2770,-1.8580,3.947
1.0210,1.2730,-3.0310,-1.2780,3.527
1.0300,0.7010,-2.6090,-0.8610,2.835
1.0410,0.0030,-2.3470,-0.5030,2.400
1.0500,-0.4870,-2.3940,-0.0970,2.445
1.0620,-0.7160,-2.8670,0.0560,2.956
1.0710,-0.6640,-3.5540,0.0510,3.616
1.0810,-0.2700,-4.4150,0.0200,4.423
1.0910,0.0340,-5.2030,0.1540,5.205
1.1020,0.2110,-5.6460,0.6400,5.686
1.1120,0.5820,-5.7850,1.3720,5.974
1.1220,1.2550,-5.7980,2.2100,6.331
1.1310,2.0760,-5.4660,3.1480,6.641
1.1410,3.1930,-5.0460,3.9760,7.174
1.1510,4.4300,-4.8770,4.7980,8.151
1.1620,5.4320,-4.4750,5.5920,8.989
1.1880,6.1690,-3.1780,5.9580,9.146
1.1890,6.6900,-3.1520,6.0700,9.567
1.1910,6.8830,-2.6730,5.7590,9.364
1.2010,6.7210,-2.6480,5.3420,8.984
1.2200,6.1850,-2.4260,5.1010,8.376
1.2240,5.4070,-1.5580,4.8350,7.419
1.2350,5.1520,-0.7460,5.1080,7.293
1.2420,4.7980,0.1980,5.4300,7.249
1.2530,4.1420,0.9530,5.5440,6.986
1.2790,3.4330,1.3320,5.1890,6.363
1.2800,2.8750,1.4750,4.3390,5.410
1.2910,2.3000,1.9090,3.1940,4.374
1.2980,1.7030,2.4560,2.0140,3.604
1.3070,1.2310,2.8890,1.0550,3.313
1.3160,0.9060,3.4380,0.5450,3.597
1.3390,0.6680,4.1420,0.3300,4.208
1.3510,0.3480,5.0270,0.3490,5.051
1.3520,-0.1920,5.9460,0.3340,5.958
1.3540,-1.0990,6.6260,0.1750,6.719
1.3890,-2.0210,7.0980,0.2300,7.384
1.3970,-2.7440,7.0460,0.5120,7.579
1.3980,-3.5630,6.5430,0.7470,7.488
1.3980,-4.7090,6.1530,1.0900,7.824
1.4030,-5.3240,6.3250,1.4500,8.394
1.4100,-5.3300,6.3410,2.1640,8.562
1.4200,-4.8920,5.0530,2.6310,7.509
1.4300,-4.2970,3.2630,2.7280,6.046
1.4400,-3.3470,2.1110,2.7320,4.809
1.4500,-1.8340,1.3900,2.5390,3.427
1.4620,0.1350,0.4930,1.8320,1.902
1.4710,2.4340,-0.5370,0.6400,2.573
1.4820,4.5330,-1.8850,-0.6110,4.947
1.4910,6.0370,-3.9640,-1.9180,7.472
1.5010,7.4180,-6.3240,-3.3350,10.303
1.5100,9.7800,-8.7360,-3.9280,13.689
1.5200,12.9390,-10.0610,-3.3850,16.736
1.5290,15.2280,-10.4300,-2.2110,18.589
1.5410,16.3010,-10.5160,-1.0540,19.427
1.5500,15.5340,-11.3670,-0.8500,19.267
1.5600,13.6020,-12.7550,-1.4500,18.703
1.5720,12.3130,-13.8300,-2.1610,18.643
1.5980,12.3320,-15.3740,-2.9640,19.930
1.6010,13.1230,-16.5540,-3.5290,21.417
1.6110,14.8590,-18.0370,-3.4400,23.621
1.6250,16.7350,-20.3400,-2.4640,26.455
1.6310,16.7750,-21.7100,-0.8960,27.450
1.6370,13.7920,-21.5180,-0.8440,25.573
1.6420,9.4620,-21.5550,-1.9360,23.620
1.6580,4.9670,-21.6040,-2.0900,22.266
1.6650,1.2070,-19.6720,-0.9080,19.730
1.6740,-0.6560,-16.7610,0.8410,16.795
1.6820,-1.0480,-13.9100,2.7610,14.220
1.6900,-1.2470,-10.1310,5.7030,11.693
1.7060,-2.7530,-6.1860,9.4980,11.664
1.7110,-6.3010,-2.5190,13.1600,14.807
1.7690,-11.0830,1.0830,15.4710,19.062
1.7730,-15.8470,5.7590,16.3610,23.494
1.7760,-20.4800,12.7590,14.8020,28.308
1.7800,-22.8190,17.6250,10.5980,30.719
1.7810,-20.8600,15.6920,4.6830,26.520
1.7830,-13.8150,10.7670,-0.3040,17.518
1.7840,-5.7990,7.3510,-2.6650,9.735
1.7920,0.3750,4.8950,-3.8580,6.244
1.8050,3.0110,3.9220,-4.4250,6.635
1.8380,2.1340,4.8660,-3.7520,6.505
1.8380,-0.8770,6.7070,-2.0010,7.054
1.8430,-3.8230,7.4070,-0.7220,8.367
1.8430,-5.2470,6.3410,-0.6640,8.257
1.8560,-5.3820,4.9170,-0.7410,7.327
1.8750,-5.5040,4.4200,-0.0520,7.059
1.8760,-6.1490,4.3770,1.0760,7.624
1.8830,-7.1390,4.4110,1.7130,8.565
1.8900,-8.2450,4.6010,1.9110,9.633
1.9000,-9.2320,5.1170,1.8620,10.718
1.9100,-10.2240,5.6350,1.6970,11.797
1.9210,-11.0920,6.3180,1.4100,12.843
1.9300,-11.1030,6.9950,0.9270,13.155
1.9410,-9.7290,7.2490,0.4670,12.142
1.9500,-7.5750,7.1990,0.0140,10.450
1.9610,-5.5300,6.9620,-0.4760,8.904
1.9700,-4.2450,6.2950,-0.7190,7.627
1.9800,-3.5520,5.7860,-0.8270,6.839
1.9940,-3.5680,5.5640,-1.0950,6.700
2.0010,-4.3630,5.8120,-1.4040,7.402
2.0110,-5.5840,6.1220,-2.0690,8.541
2.0200,-6.6040,6.4660,-2.9040,9.688
2.0300,-6.8090,6.9310,-3.7570,10.417
2.0400,-6.2400,7.4800,-4.3020,10.649
2.0500,-5.6150,8.1070,-4.2590,10.742
2.0610,-5.4440,8.5000,-3.8510,10.804
2.0700,-5.7220,8.7740,-3.1620,10.942
2.0800,-6.2210,8.8900,-2.3700,11.106
2.0900,-6.6970,8.8950,-1.5820,11.246
2.1030,-7.0940,8.9290,-0.8410,11.435
2.1100,-7.4800,8.9070,-0.1150,11.632
2.1200,-7.9660,8.9420,0.4130,11.983
2.1310,-8.1460,9.1830,0.5310,12.287
2.1410,-7.9560,8.8600,0.2390,11.910
2.1510,-7.5720,8.2170,-0.3480,11.179
2.1600,-7.3610,7.6000,-0.8280,10.613
2.1710,-6.8950,6.5850,-1.1370,9.602
2.1800,-4.6460,3.6730,-1.6590,6.150
2.1920,-0.5030,-1.0130,-2.0850,2.372
2.2010,4.3550,-6.2640,-2.0560,7.901
2.2110,8.8530,-11.4070,-1.4150,14.509
2.2210,12.4400,-14.1170,0.6340,18.827
2.2300,13.6380,-14.0060,3.8960,19.933
2.2400,12.5220,-12.6410,7.6740,19.377
2.2510,10.6690,-11.4530,9.9920,18.570
2.2620,9.5190,-10.3100,8.6940,16.507
2.2700,6.7040,-10.7550,4.7660,13.540
2.2800,5.2230,-11.5900,0.5270,12.723
2.2900,3.4780,-12.5920,-0.9630,13.099
2.2990,2.7310,-12.3040,-0.4020,12.610
2.3110,3.7540,-12.2270,-0.0090,12.790
2.3200,5.4010,-12.7010,0.5320,13.812
2.3290,6.9740,-12.5390,0.9110,14.377
2.3390,7.8700,-11.7450,0.9870,14.172
2.3490,7.8240,-10.6220,0.7380,13.213
2.3590,7.1810,-8.9990,0.6070,11.529
2.3700,6.6060,-8.1090,0.9680,10.504
2.3800,6.4210,-7.5190,1.4130,9.988
2.3900,7.0140,-7.7260,1.4280,10.532
2.4000,7.7420,-8.3190,1.0600,11.413
2.4090,8.2760,-8.7680,0.5390,12.069
2.4200,8.1990,-8.6000,0.0080,11.882
2.4290,7.3710,-8.1780,-0.5780,11.025
2.4410,6.2060,-7.1950,-0.8910,9.543
2.4490,4.9700,-5.9460,-0.9220,7.804
2.4590,3.7550,-4.8130,-0.7700,6.153
2.4690,2.4840,-3.6330,-0.5560,4.436
2.4790,1.1570,-2.3630,-0.4130,2.663
2.4890,-0.0950,-1.2130,-0.4100,1.284
2.5000,-1.3840,-0.3860,-0.6540,1.579
2.5090,-2.2610,0.3560,-0.9990,2.497
2.5190,-2.4970,0.8860,-1.1090,2.872
2.5290,-2.3670,1.2370,-0.9640,2.839
2.5390,-2.2300,1.5230,-0.7250,2.796
2.5490,-2.1080,1.8130,-0.4490,2.816
2.5600,-1.9620,2.1680,-0.0710,2.925
2.5700,-1.9270,2.6160,0.2800,3.261
2.5790,-1.8100,3.1420,0.6890,3.691
2.5900,-1.4950,3.3730,1.0070,3.824
2.6000,-1.5340,3.0290,1.2530,3.619
2.6090,-1.2060,3.0150,1.3430,3.514
2.6190,-0.4560,3.5770,1.3760,3.860
2.6290,0.3410,4.0910,1.3330,4.316
2.6400,1.2910,4.5320,1.3460,4.901
2.6490,1.7650,4.1160,1.1190,4.616
2.6590,1.9520,3.9730,0.0710,4.427
2.6700,2.7050,5.1020,-0.2810,5.782
2.6790,3.4010,5.5230,-0.6500,6.519
2.6890,4.0370,4.7780,-1.0170,6.337
2.7000,4.4430,3.7380,-1.2180,5.933
2.7090,4.5950,3.0020,-1.2600,5.631
2.7190,4.4220,2.4480,-1.1730,5.189
2.7320,3.9050,1.8270,-0.9910,4.424
2.7390,3.1760,1.1720,-0.7300,3.463
2.7490,2.3200,0.5010,-0.4950,2.425
2.7600,1.2330,0.0250,-0.3030,1.270
2.7690,-0.1820,-0.0890,-0.0590,0.211
2.7790,-1.8000,0.1500,0.7180,1.944
2.7890,-2.6510,0.3920,1.3460,2.999
2.8000,-2.8860,0.3060,1.8180,3.425
2.8090,-3.0560,0.1550,2.3130,3.836
2.8190,-2.9080,-0.1250,2.5900,3.896
2.8300,-2.8830,-0.4610,2.7620,4.019
2.8410,-2.7340,-0.6540,2.8570,4.008
2.8500,-2.3880,-0.6940,2.8060,3.749
2.8590,-1.9860,-0.6750,2.6300,3.364
2.8700,-1.6290,-0.5940,2.5550,3.088
2.8800,-1.4610,-0.5170,2.6280,3.051
2.8900,-1.3950,-0.5620,2.6930,3.084
2.9010,-1.2560,-0.8350,2.7050,3.097
2.9090,-1.2880,-1.0920,2.5940,3.095
2.9200,-1.4020,-1.4010,2.0200,2.830
2.9290,-1.3290,-1.7890,1.1010,2.486
2.9380,-1.0510,-2.0700,-0.1910,2.329
2.9490,-1.0150,-1.9790,-1.2850,2.569
2.9590,-0.8840,-1.6280,-1.8060,2.587
2.9690,-0.4610,-1.3560,-2.0680,2.516
2.9790,0.1780,-1.2190,-2.0380,2.381
2.9890,0.3380,-1.1110,-2.3500,2.621
3.0000,0.0460,-1.0640,-2.5490,2.763
3.0090,-0.3900,-0.7620,-2.4290,2.575
3.0190,-0.7560,-0.2260,-2.2170,2.353
3.0280,-0.7180,0.1490,-2.1890,2.309
3.0400,-0.2890,0.3940,-8.1140,8.129
3.0490,-0.4490,2.6160,-4.7990,5.484
3.0590,0.0050,2.6330,-5.6290,6.214
3.0690,3.4920,0.6270,-5.5620,6.597
3.0800,5.7030,-0.0840,-4.9480,7.551
3.0890,5.1250,0.6500,-3.2720,6.115
3.0990,3.4030,0.9220,-2.3220,4.222
3.1090,1.3340,1.3470,-1.6050,2.484
3.1200,-0.1900,0.8780,-1.1330,1.446
3.1290,-1.6320,-0.0510,-0.1990,1.645
3.1390,-2.9250,-0.5100,1.6200,3.382
3.1490,-3.0370,-0.9580,3.8120,4.967
3.1600,-3.0750,-1.0710,4.4460,5.511
3.1710,-3.3940,-0.3720,4.3850,5.558
3.1810,-3.5860,0.7210,4.5220,5.816
3.1900,-3.7330,1.5300,3.8550,5.580
3.2000,-2.0660,0.9370,3.2810,3.989
3.2090,-0.3740,0.7200,2.1720,2.319
3.2190,0.9320,0.7140,1.2850,1.741
3.2290,1.6170,0.4250,1.0970,2.000
3.2400,1.6830,0.2100,1.3530,2.170
3.2490,0.8580,0.2610,1.8710,2.075
3.2580,0.2080,0.5800,2.3810,2.459
3.2680,0.0170,0.8780,1.9280,2.119
3.2800,0.3220,1.0260,1.0670,1.515
3.2890,0.1440,0.6500,0.6940,0.962
3.2980,-0.1430,0.6660,0.2280,0.718
3.3080,-0.4520,0.9380,-0.0520,1.043
3.3180,-0.6150,1.1560,0.1520,1.318
3.3280,-0.3010,1.2950,0.4430,1.401
3.3380,-0.4620,1.2260,0.5150,1.408
3.3480,-0.7130,1.1050,0.4030,1.375
3.3580,-0.9310,0.9440,0.3920,1.383
3.3690,-1.1000,0.8580,0.5200,1.489
3.3780,-1.1920,0.7910,0.8150,1.646
3.3880,-1.2490,0.7820,0.6290,1.602
3.4000,-1.5300,0.6010,-0.0120,1.644
3.4080,-1.5860,0.5870,-0.8000,1.871
3.4180,-1.2010,0.5710,-1.2010,1.792
3.4290,-0.8680,0.2040,-0.8900,1.260
3.4390,-0.4440,0.1920,0.0500,0.486
3.4480,0.0670,0.3530,0.8920,0.962
3.4580,0.6950,0.5200,1.4140,1.659
3.4680,1.0110,0.4670,1.1760,1.620
3.4780,0.8590,0.2640,-0.1550,0.912
3.4880,0.6210,0.4670,-0.3600,0.856
3.4980,0.2330,0.7290,-0.7900,1.100
3.5080,-0.1620,0.8590,-1.2790,1.549
3.5180,-0.7870,0.8520,-1.3250,1.761
3.5280,-1.5040,0.8810,-1.2330,2.135
3.5380,-1.8520,0.9380,-1.0720,2.336
3.5480,-2.2410,1.1210,-1.3260,2.835
3.5580,-2.2350,0.9740,-1.5730,2.901
3.5690,-2.0020,0.9390,-1.0520,2.449
3.5790,-1.8710,0.6390,-0.2590,1.994
3.5880,-1.7820,-0.1180,0.6060,1.886
3.5980,-1.5520,-0.9380,0.8270,1.993
3.6080,-0.9840,-1.6490,0.4720,1.977
3.6180,-0.6530,-0.9380,-0.7330,1.358
3.6280,-1.8160,0.9070,-1.1120,2.315
3.6380,-2.3670,2.2420,-0.6150,3.318
3.6480,-1.6090,2.0000,0.1580,2.572
3.6590,-2.1080,1.4260,-1.0560,2.755
3.6680,-1.2610,0.8070,-2.3740,2.807
3.6780,-0.1320,0.5500,-3.0730,3.125
3.6880,1.3060,0.9920,-3.2240,3.617
3.6990,2.4850,1.5700,-3.7260,4.746
3.7080,3.5740,1.0120,-4.5360,5.863
3.7180,3.4850,1.1870,-4.5110,5.823
3.7280,3.3630,1.0800,-4.6430,5.834
3.7380,2.9190,0.3050,-5.2120,5.982
3.7480,2.0600,-0.1790,-5.8530,6.208
3.7580,1.3450,-0.3050,-6.0430,6.198
3.8900,1.2250,-0.8370,-5.9670,6.149
3.8910,1.1950,-1.5410,-5.9470,6.259
3.8910,0.8260,-1.7600,-5.4750,5.810
3.8920,0.1170,-1.7950,-4.9230,5.241
3.8920,-0.3060,-1.9660,-4.3430,4.777
3.8930,-0.6450,-2.2140,-3.6260,4.297
3.8930,-1.1660,-2.2260,-2.5610,3.588
3.8940,-1.7670,-2.3330,-1.9360,3.509
3.8940,-2.0860,-2.4790,-1.6690,3.645
3.8950,-2.3790,-2.5670,-1.3570,3.754
3.8950,-2.7850,-2.5530,-0.8950,3.883
3.8960,-2.7060,-2.4520,-0.8790,3.756
3.8960,-2.4750,-3.6140,-0.6740,4.432
3.8990,-1.7210,-3.9440,-0.7010,4.360
3.9080,-0.9890,-3.9040,-0.5180,4.061
3.9200,-0.2340,-4.1900,-0.4690,4.223
3.9290,0.8990,-4.6280,-0.1890,4.718
3.9400,1.7980,-4.5760,0.3140,4.927
3.9480,2.2430,-4.1190,0.6840,4.740
3.9600,2.6050,-3.6680,0.7700,4.564
3.9690,3.1340,-3.3140,0.9850,4.666
3.9800,3.8760,-3.1550,1.2090,5.142
3.9900,5.0020,-3.0870,1.4460,6.053
3.9990,6.2010,-3.0490,1.7140,7.119
4.0110,7.2340,-2.8360,2.1570,8.064
4.0200,7.9660,-2.4490,2.8080,8.794
4.0280,8.1720,-1.5880,3.4950,9.029
4.0400,7.9580,-0.4390,3.7400,8.804
4.0490,7.3030,0.4970,3.7120,8.207
4.0600,6.7270,1.1560,3.4480,7.647
4.0690,6.1760,1.4320,2.9970,7.013
4.0790,5.3970,1.5590,2.4100,6.113
4.0880,4.6030,1.7450,1.7820,5.235
4.0990,4.1370,1.7180,1.2750,4.657
4.1090,3.8750,1.5840,0.7460,4.252
4.1200,3.5640,1.6740,0.3440,3.953
4.1300,2.9760,2.0560,0.2040,3.623
4.1400,2.3780,2.4740,0.3160,3.446
4.1510,1.9010,2.7750,0.5530,3.409
4.1590,1.5630,3.0470,0.8620,3.531
4.1690,1.1990,3.5710,1.2260,3.961
4.1800,1.0290,4.1940,1.4610,4.559
4.1890,0.9980,4.6460,1.5310,4.993
4.1980,0.7990,4.9590,1.4670,5.233
4.8390,0.2200,5.5890,1.5670,5.809
4.8410,-0.6320,6.3260,1.8500,6.621
4.8430,-1.5060,7.1260,2.1240,7.587
4.8440,-2.5870,8.1680,2.5300,8.934
4.8440,-6.7680,6.0930,4.9970,10.388
4.8450,-7.3650,6.7060,3.2510,10.478
4.8460,-8.0700,7.1010,1.2320,10.820
4.8460,-8.9180,7.5020,-0.8370,11.684
4.8470,-9.1020,7.8600,-2.4910,12.281
4.8480,-8.3920,8.3260,-3.9360,12.460
4.8480,-6.7100,8.3540,-5.0100,11.829
4.8490,-4.9980,8.2250,-5.4750,11.073
4.8490,-3.8290,8.1870,-5.0410,10.349
4.8500,-3.2470,8.1470,-3.9740,9.629
4.8500,-3.0200,8.0530,-2.8520,9.061
4.8570,-3.1790,7.7710,-1.8400,8.595
4.8670,-4.0060,7.5400,-1.1550,8.616
4.8770,-5.1130,7.5680,-0.7790,9.166
4.8880,-6.2070,7.8410,-0.6070,10.019
4.8970,-6.8190,8.2630,-0.3030,10.718
4.9070,-6.6630,8.9170,-0.5340,11.144
4.9180,-5.7040,9.5320,-0.2290,11.111
4.9270,-4.7260,10.0790,0.0100,11.132
4.9380,-4.3040,10.4450,0.2100,11.299
4.9480,-4.7250,10.8320,0.2750,11.821
4.9580,-5.4140,11.1580,0.2240,12.404
4.9680,-6.0540,11.1610,-0.0060,12.697
4.9780,-6.7810,10.7010,-0.5140,12.679
4.9880,-7.4030,9.9090,-0.9970,12.409
4.9980,-8.2300,9.3840,-0.7030,12.501
5.0070,-9.0160,9.3140,0.2980,12.966
5.0170,-8.6650,9.5510,1.5130,12.984
5.0270,-6.3230,8.7200,2.0500,10.965
5.0370,-2.3610,5.6890,1.2440,6.284
5.0480,2.2370,0.5430,-0.3900,2.335
5.0580,7.0120,-6.3030,-2.2200,9.686
5.0680,10.4730,-12.9790,-3.3410,17.009
5.0780,9.9900,-14.0350,-3.0300,17.492
5.0880,6.9430,-11.8950,-1.4030,13.844
5.0970,4.9030,-11.8510,0.8950,12.856
5.1070,3.0840,-11.7920,2.7300,12.491
5.1170,1.1410,-10.3930,2.8250,10.830
5.1270,0.9630,-11.2320,1.6010,11.386
5.1370,1.3970,-13.2390,0.3950,13.318
5.1470,2.2380,-14.4020,0.8450,14.599
5.1570,4.4000,-14.8230,2.2340,15.623
5.1670,5.9790,-13.7080,3.3980,15.336
5.1770,8.2070,-12.7020,2.9280,15.404
5.1870,7.4920,-13.4400,1.8190,15.494
5.1970,7.8150,-12.0520,0.0450,14.364
5.2070,7.1670,-11.2080,-0.8520,13.331
5.2170,6.0990,-10.2680,-1.2710,12.010
5.2270,5.4170,-10.0500,-1.5240,11.518
5.2370,5.3080,-9.9760,-1.6370,11.418
5.2500,5.2750,-9.9600,-1.5900,11.382
5.2570,5.3400,-10.0890,-1.6280,11.531
5.2670,5.1670,-10.1190,-1.8600,11.513
5.2770,5.0390,-9.8510,-2.0710,11.257
5.2870,5.2120,-9.4890,-2.1050,11.029
5.3050,5.3660,-9.0280,-1.8900,10.671
5.3070,5.0190,-8.2600,-1.5270,9.785
5.3180,4.2520,-7.2920,-1.1060,8.513
5.3280,3.2550,-6.1110,-0.7190,6.961
5.3370,2.2790,-4.8090,-0.5270,5.348
5.3470,1.6280,-3.8110,-0.6760,4.199
5.3570,1.1920,-3.1890,-1.0770,3.571
5.3670,0.7930,-2.7940,-1.3690,3.211
5.3770,0.3090,-2.3490,-1.4470,2.776
5.3870,-0.1870,-1.7390,-1.3160,2.189
5.3970,-0.6250,-1.1150,-1.0260,1.639
5.4070,-1.0170,-0.5760,-0.7500,1.389
5.4170,-1.2690,-0.0360,-0.4080,1.333
5.4270,-1.1300,0.5190,-0.0650,1.245
5.4370,-0.6900,0.9980,0.2250,1.234
5.4470,-0.2620,1.3490,0.3650,1.422
5.4610,0.0270,1.6340,0.4160,1.686
5.4670,0.0250,1.9590,0.4340,2.007
5.4780,-0.3150,2.3550,0.4310,2.415
5.4870,-0.7390,2.7480,0.3880,2.872
5.4970,-1.0450,3.1040,0.3070,3.290
5.5070,-1.2550,3.4440,0.1980,3.671
5.5170,-1.3900,3.7820,0.0390,4.030
5.5280,-1.4010,4.0810,-0.1560,4.318
5.5370,-1.4470,4.2520,-0.3330,4.504
5.5470,-1.6200,4.3200,-0.4550,4.636
5.5570,-1.9260,4.5030,-0.4890,4.922
5.5670,-2.3390,4.6730,-0.5330,5.253
5.5790,-2.6790,4.8220,-0.5510,5.544
5.5870,-2.7700,4.9420,-0.5580,5.693
5.5970,-2.7380,5.0580,-0.5200,5.775
5.6070,-2.5630,5.2110,-0.4690,5.826
5.6170,-2.2670,5.2580,-0.4490,5.743
5.6270,-1.9450,5.1220,-0.5580,5.507
5.6380,-1.6100,4.8600,-0.7830,5.179
5.6470,-1.3080,4.5270,-1.0100,4.819
5.6570,-1.0780,4.1370,-1.3340,4.478
5.6710,-0.8330,3.6310,-1.7270,4.106
5.6770,-0.4650,2.9460,-2.1850,3.697
5.6870,-0.1010,2.1540,-2.6380,3.407
5.6970,0.1720,1.3130,-2.9650,3.247
5.7070,0.3520,0.4100,-3.1600,3.206
5.7170,0.5790,-0.5800,-3.0750,3.182
5.7270,0.8070,-1.5700,-2.8510,3.353
5.7370,0.8490,-2.5230,-2.5190,3.665
5.7470,0.5510,-3.1760,-1.9170,3.750
5.7580,0.0550,-3.3480,-1.0720,3.516
5.7680,-0.4300,-3.1320,-0.0810,3.162
5.7770,-0.8430,-2.7490,0.8480,2.998
5.7870,-1.0900,-2.3410,1.6390,3.059
5.7980,-1.1880,-1.8800,2.3070,3.204
5.8070,-1.2320,-1.3060,2.8230,3.346
5.8170,-1.1920,-0.6900,3.1910,3.476
5.8270,-1.1620,-0.1060,3.4090,3.603
5.8370,-1.0720,0.3620,3.4210,3.603
5.8470,-0.7860,0.6610,3.2480,3.406
5.8570,-0.4530,0.7840,2.9310,3.068
5.8670,-0.1400,0.7050,2.5220,2.622
5.8770,-0.0270,0.7070,1.9650,2.088
5.8870,-0.0610,0.7550,1.3030,1.507
5.8970,-0.0510,0.6990,0.6260,0.940
5.9060,0.0030,0.5580,-0.0190,0.558
5.9170,0.0590,0.3890,-0.5270,0.658
5.9260,0.1750,0.1740,-0.9360,0.968
5.9360,0.3130,-0.2060,-1.3040,1.357
5.9470,0.5030,-0.6920,-1.5830,1.799
5.9570,0.6160,-0.9950,-1.5770,1.964
5.9670,0.5430,-0.9300,-1.2800,1.673
5.9760,0.2970,-0.5200,-0.8540,1.043
5.9860,-0.0350,-0.0740,-0.4510,0.458
5.9970,-0.3200,0.1340,-0.1270,0.369
6.0070,-0.6750,0.1640,0.2190,0.728
6.0160,-1.2630,0.6400,0.6600,1.562
6.0270,-1.8840,1.4940,1.0560,2.626
6.0370,-2.2620,2.3760,1.3370,3.543
6.0470,-2.1540,3.2760,1.4750,4.189
6.5130,-1.6910,4.2150,1.4330,4.762
6.5140,-1.3340,5.2860,1.1800,5.578
6.5150,-1.6280,6.6180,0.8040,6.863
6.5160,-2.4780,7.9130,0.3740,8.300
6.5160,-2.5410,-6.3810,5.7300,8.945
6.5170,-1.6630,-3.5120,4.8310,6.200
6.5170,-2.8480,-1.9700,2.7590,4.428
6.5180,-6.3240,-0.1900,1.4450,6.490
6.5180,-10.0200,2.8330,1.5990,10.535
6.5190,-12.8970,7.8110,3.2240,15.419
6.5200,-14.1260,14.2090,4.9500,20.638
6.5210,-12.7050,21.1900,5.6670,25.349
6.5220,-5.5630,23.3150,1.8420,24.040
6.5220,5.0110,17.5490,-7.8130,19.852
6.5260,8.4670,12.3250,-16.8230,22.508
6.5360,4.4350,10.9350,-20.7570,23.877
6.5460,0.1380,10.1340,-18.6910,21.262
6.5560,-0.9470,8.6930,-11.6500,14.567
6.5670,-1.1920,8.1520,-2.7150,8.675
6.5760,-1.1650,7.6330,5.0310,9.216
6.5860,-0.3070,5.9910,9.2580,11.032
6.5960,-0.0890,4.4730,10.6760,11.576
6.6060,-1.8050,4.4140,10.3540,11.399
6.6160,-3.6680,4.8450,8.4050,10.372
6.6260,-4.9560,5.4360,6.2440,9.649
6.6360,-6.3030,6.4620,4.3760,10.032
6.6470,-7.6050,6.9740,2.7860,10.688
6.6560,-8.9920,7.6940,2.1280,12.024
6.6670,-9.3940,8.4520,1.6140,12.739
6.6760,-8.5560,9.1650,0.6170,12.553
6.6860,-6.4340,9.2140,-0.3950,11.245
6.6960,-4.5010,9.2920,-1.2790,10.404
6.7060,-3.1960,9.2830,-1.7250,9.968
6.7160,-2.2870,9.0420,-1.7630,9.492
6.7260,-1.9910,8.8280,-1.5080,9.175
6.7360,-2.2990,8.7260,-0.9920,9.078
6.7460,-2.7230,8.5740,-0.4150,9.006
6.7560,-3.3650,8.3420,0.1230,8.996
6.7660,-4.1760,8.1200,0.7740,9.164
6.7760,-4.7170,8.1370,1.3290,9.499
6.7860,-4.5100,8.3140,1.5170,9.579
6.7960,-3.7530,8.7270,1.1850,9.573
6.8060,-3.1880,9.3990,0.2100,9.927
6.8160,-3.1090,10.0620,-1.0700,10.586
6.8260,-3.4410,10.3740,-2.3090,11.171
6.8360,-3.9130,10.4160,-3.2450,11.590
6.8460,-4.7190,10.5000,-4.1280,12.229
6.8550,-5.2380,10.1250,-4.6730,12.320
6.8650,-5.5750,9.6350,-4.8770,12.153
6.8750,-6.4180,9.4790,-4.8200,12.421
6.8860,-6.8090,9.4970,-3.9660,12.340
6.8950,-6.4330,9.9970,-2.8230,12.219
6.9060,-4.9790,10.2240,-2.2260,11.588
6.9160,-3.0620,9.0110,-3.0100,9.982
6.9270,-3.0190,7.7060,-4.2800,9.317
6.9350,-3.3390,5.6550,-5.2420,8.403
6.9460,-2.3130,1.7590,-5.7420,6.435
6.9560,-0.8380,-2.3510,-5.1410,5.715
6.9660,0.3590,-5.3810,-3.2320,6.287
6.9750,0.6530,-6.1790,-0.6930,6.252
6.9860,0.6700,-6.0730,1.9040,6.400
6.9960,2.3300,-6.7930,3.7730,8.112
7.0070,4.8850,-7.2660,4.5580,9.871
7.0160,7.1370,-7.3580,3.8480,10.949
7.0300,9.2040,-7.8210,1.9530,12.235
7.0360,10.9320,-9.0940,-0.0300,14.220
7.0470,10.8700,-10.0830,-1.1270,14.869
7.0560,10.3100,-10.4350,-1.2980,14.727
7.0680,9.1490,-8.9950,-2.0510,12.993
7.0760,8.2020,-8.5690,-1.6800,11.980
7.0870,8.3460,-9.2480,-2.2060,12.651
7.0960,8.3750,-9.2690,-2.9840,12.844
7.1050,8.1770,-9.0310,-3.3480,12.635
7.1150,8.0980,-8.6400,-3.6740,12.399
7.1250,8.3950,-8.4090,-3.6900,12.442
7.1360,8.5770,-8.2420,-3.3580,12.360
7.1450,8.6380,-8.2180,-2.5360,12.189
7.1550,8.9610,-8.5590,-1.7820,12.519
7.1650,9.2340,-9.0280,-1.5390,13.005
7.1750,9.0990,-9.3200,-1.4530,13.106
7.1850,8.7280,-9.8510,-1.2420,13.220
7.1950,8.0420,-10.2080,-0.7630,13.018
7.2050,7.0110,-9.9790,-0.5850,12.210
7.2150,5.7860,-9.6890,-1.2470,11.354
7.2250,4.9530,-9.5980,-2.1110,11.005
7.2350,4.5650,-9.5980,-2.9850,11.040
7.2460,4.4170,-9.6270,-4.0430,11.337
7.2550,4.1310,-9.2950,-5.0200,11.343
7.2650,3.6530,-8.6250,-5.4230,10.823
7.2750,3.4070,-8.1450,-5.3220,10.309
7.2850,3.4440,-7.8050,-4.7760,9.777
7.2950,3.3680,-7.4020,-3.8070,8.979
7.3050,3.1750,-7.0980,-2.8980,8.298
7.3150,2.7680,-6.8700,-1.9510,7.659
7.3250,2.0260,-6.7360,-0.9270,7.095
7.3350,0.9080,-6.6360,0.0720,6.698
7.3450,-0.4150,-6.3670,1.0980,6.474
7.3550,-1.5340,-6.1900,2.2420,6.760
7.3650,-2.4360,-6.0740,3.5420,7.441
7.3750,-3.2160,-6.1870,4.9040,8.525
7.3850,-4.1880,-5.9850,6.5370,9.803
7.3950,-5.5130,-5.4210,7.8290,11.003
7.4060,-6.1660,-4.9110,8.5180,11.606
7.4150,-6.2660,-4.5870,8.4390,11.468
7.4250,-6.3400,-4.2020,7.8300,10.916
7.4360,-6.5940,-3.8410,7.0210,10.370
7.4450,-6.8410,-3.5290,6.0560,9.794
7.4560,-6.7300,-3.2740,5.0780,9.044
7.4650,-6.3390,-2.9700,4.3210,8.226
7.4750,-5.9750,-2.3680,4.1100,7.629
7.4850,-5.6730,-1.5190,4.3740,7.323
7.4950,-5.0950,-0.8390,4.6580,6.954
7.5060,-4.5070,-0.4830,4.7590,6.572
7.5180,-4.1880,-0.3640,4.7520,6.345
7.5260,-4.1940,-0.3570,4.7000,6.309
7.5350,-4.4210,-0.1540,4.6080,6.388
7.5450,-4.2390,0.2330,4.2710,6.022
7.5550,-3.6390,0.6570,3.6660,5.207
7.5650,-2.9150,0.9600,2.9120,4.231
7.5750,-2.2840,1.1710,2.1070,3.321
7.5860,-1.7560,1.3450,1.4610,2.651
7.5950,-1.4220,1.6300,0.9790,2.374
7.6050,-1.3600,1.9840,0.6270,2.486
7.6150,-1.4720,2.3220,0.4270,2.782
7.6260,-1.6080,2.6270,0.2900,3.094
7.6350,-1.9970,2.8960,0.1670,3.522
7.6460,-2.6980,3.1830,0.0070,4.173
7.6550,-3.3070,3.4540,-0.0660,4.782
7.6660,-3.7610,3.6320,-0.1420,5.230
7.6750,-4.0540,3.7000,-0.1180,5.490
7.6860,-4.2550,3.8060,0.0070,5.709
7.6950,-4.2810,3.8480,0.0700,5.757
7.7050,-4.2230,3.8760,-0.0610,5.732
7.7150,-4.1640,3.9440,-0.2690,5.742
7.7250,-4.1540,4.0140,-0.4590,5.795
7.7350,-4.0820,4.0560,-0.4890,5.775
7.7460,-3.9370,4.1900,-0.3980,5.763
7.7550,-3.6000,4.2370,-0.2820,5.567
7.7650,-3.0650,4.1400,-0.1970,5.155
7.7750,-2.7060,3.9240,-0.1280,4.768
7.7850,-2.3120,3.5860,0.1540,4.269
7.7950,-1.7040,3.0900,0.7800,3.614
7.8050,-1.3310,2.5440,1.3310,3.165
7.8150,-1.0900,2.0730,1.7540,2.926
7.8250,-0.9240,1.7300,1.9980,2.800
7.8350,-0.7500,1.3980,1.8930,2.470
7.8450,-0.5800,1.0470,1.3590,1.811
7.8550,-0.3930,0.6420,0.5580,0.937
7.8650,-0.2350,0.3020,-0.2280,0.445
7.8750,-0.0240,-0.0240,-0.7020,0.703
7.8860,0.4280,-0.5570,-1.0110,1.231
7.8950,1.0070,-1.2590,-1.2210,2.022
7.9050,1.3350,-1.6950,-1.2990,2.518
7.9150,1.2710,-1.7470,-1.4120,2.581
7.9260,1.0520,-1.7910,-1.5600,2.598
7.9350,1.0820,-1.9660,-1.7900,2.871
7.9450,1.4880,-2.2360,-2.1230,3.424
7.9580,2.1230,-2.7040,-2.4790,4.238
7.9670,2.7060,-3.1270,-2.7620,4.973
7.9770,3.0800,-3.3210,-2.8020,5.326
7.9890,3.1670,-3.2940,-2.5090,5.213
7.9970,3.1680,-3.1790,-2.0310,4.926
8.0080,3.1130,-3.1010,-1.5270,4.652
8.0170,2.8780,-2.8410,-0.9730,4.159
8.0280,2.6310,-2.3280,-0.2840,3.525
8.0370,2.2970,-1.5690,0.4170,2.813
8.0480,1.9470,-0.6530,0.9860,2.278
8.0550,1.7640,0.1060,1.4010,2.255
8.0670,1.7770,0.6380,1.5780,2.461
8.0770,1.9720,1.1960,1.5840,2.798
8.0860,2.2660,1.7940,1.3740,3.200
8.0950,2.5300,2.2310,0.9760,3.512
8.1070,2.7890,2.4420,0.4950,3.740
8.1170,2.9470,2.5540,0.0710,3.900
8.1270,2.9950,2.6840,-0.2470,4.029
8.1360,3.0740,2.7840,-0.4110,4.168
8.1460,3.1470,2.8200,-0.5190,4.257
8.1560,3.3000,2.7420,-0.5490,4.326
8.1660,3.5940,2.5300,-0.5590,4.431
8.1770,3.9030,2.2830,-0.5370,4.553
8.1870,4.1900,2.0030,-0.5210,4.673
8.1970,4.5620,1.6110,-0.5000,4.864
8.2070,4.9670,1.1220,-0.4630,5.113
8.2170,5.2550,0.7420,-0.2920,5.315
8.2250,5.3190,0.6280,0.0840,5.357
8.2350,5.0800,0.6790,0.6130,5.162
8.2450,4.7040,0.7450,1.1360,4.896
8.2550,4.2240,0.8210,1.5850,4.586
8.2670,3.7760,0.9050,1.9710,4.355
8.2770,3.4080,0.9290,2.2030,4.163
8.2880,3.0520,0.9270,2.4010,3.992
8.2970,2.6290,1.0550,2.4530,3.747
8.3080,2.2940,1.1570,2.3380,3.474
8.3170,2.1060,1.2180,2.1170,3.225
8.3270,1.9710,1.3120,1.8300,2.993
8.3340,1.8940,1.4090,1.4880,2.790
8.3630,1.8300,1.4740,1.1250,2.605
8.3660,1.6470,1.5780,0.8090,2.420
8.3690,1.4600,1.6680,0.6110,2.299
8.3750,1.3280,1.6860,0.4660,2.196
8.3850,1.3250,1.5710,0.3660,2.087
8.3960,1.3830,1.4180,0.3150,2.006
8.4050,1.4440,1.2100,0.2220,1.897
8.4140,1.5390,0.8630,0.0200,1.765
8.4240,1.4850,0.5870,-0.1510,1.604
8.4350,1.2790,0.4560,-0.2380,1.379
8.4440,1.0550,0.3740,-0.2380,1.144
8.4550,0.8790,0.2710,-0.1110,0.927
8.4640,0.7730,0.2120,0.1560,0.817
8.4750,0.6490,0.1350,0.5350,0.852
8.4850,0.5250,0.0720,0.8730,1.021
8.4950,0.4240,-0.0090,1.0360,1.119
8.5070,0.4960,-0.3310,0.9460,1.118
8.5170,0.9030,-1.1840,0.4690,1.561
8.5250,1.0070,-1.7740,0.0010,2.040
8.5360,0.4720,-1.4640,-0.1180,1.543
8.5460,-0.1080,-1.1380,-0.0190,1.143
8.5560,-0.4480,-1.2730,0.2850,1.379
8.5670,-0.5040,-1.8570,0.6760,2.039
8.5750,-0.1830,-2.7190,1.0270,2.912
8.5880,0.2240,-3.3020,1.1810,3.514
8.5950,0.4550,-3.4890,1.0930,3.684
8.6050,0.4710,-3.1290,0.6820,3.237
8.6150,0.3850,-2.4220,0.0940,2.454
8.6250,0.2140,-1.6820,-0.5250,1.775
8.6350,0.2200,-0.9950,-1.0640,1.473
8.6470,0.3400,-0.3170,-1.5570,1.625
8.6560,0.3540,0.3980,-2.0000,2.070
8.6650,0.2650,1.0910,-2.3240,2.581
8.6750,0.0920,1.6890,-2.4250,2.957
8.6850,-0.1220,2.1420,-2.5070,3.300
8.6950,-0.2500,2.2970,-2.5900,3.471
8.7050,-0.3190,2.1730,-2.7310,3.505
8.9010,-0.5600,2.0120,-3.0340,3.683
8.9030,-0.7770,1.6780,-3.2380,3.729
8.9050,-1.1050,1.3180,-3.3380,3.755
8.9070,-1.5220,1.0700,-3.2190,3.718
8.9080,-1.8770,0.9290,-2.8770,3.559
8.9100,-2.0210,0.7750,-2.3580,3.201
8.9110,-1.8570,0.6310,-1.7090,2.601
8.9130,-1.5380,0.5520,-1.0280,1.931
8.9140,-1.1900,0.4530,-0.4040,1.336
8.9160,-0.8320,0.3320,0.1210,0.904
8.9170,-0.7010,0.2450,0.5350,0.915
8.9190,-0.7790,0.1740,0.8010,1.131
8.9200,-0.7730,0.1300,0.9770,1.253
8.9210,-0.5920,0.0550,1.0740,1.228
8.9230,-0.4580,-0.0870,1.0500,1.149
8.9250,-0.4250,-0.1610,0.9330,1.038
8.9260,-0.3870,-0.1670,0.7590,0.868
8.9280,-0.0990,-0.2650,0.5080,0.581
8.9290,0.1640,-0.3950,0.2130,0.478
8.9300,0.0590,-0.3760,-0.0910,0.391
8.9310,-0.1590,-0.1840,-0.3940,0.463
8.9330,-0.2900,-0.0790,-0.6630,0.728
8.9340,-0.3210,-0.0630,-0.8530,0.914
8.9450,-0.2730,-0.0400,-0.9870,1.025
8.9540,-0.2740,0.0690,-1.0620,1.099
8.9640,-0.3940,0.1790,-1.0960,1.178
8.9740,-0.5070,0.2410,-1.0920,1.228
8.9860,-0.5330,0.1930,-1.0660,1.207
8.9960,-0.5330,0.1040,-1.1010,1.228
9.0060,-0.5050,0.0660,-0.9640,1.090
9.0160,-0.4370,0.0510,-0.7690,0.886
9.0250,-0.4820,-0.0020,-0.5600,0.739
9.0350,-0.6160,-0.0790,-0.3530,0.714
9.0450,-0.7710,-0.1470,-0.1340,0.796
9.0540,-0.8250,-0.2400,0.0660,0.862
9.0660,-0.8080,-0.3560,0.2650,0.922
9.0750,-0.9170,-0.4760,0.4220,1.116
9.0860,-1.0850,-0.5160,0.5690,1.329
9.0950,-1.1820,-0.5100,0.7120,1.471
9.1070,-1.1550,-0.4520,0.8480,1.502
9.1140,-1.1080,-0.3900,0.9440,1.507
9.1250,-1.0540,-0.3610,0.9570,1.469
9.1410,-1.0000,-0.3280,0.9750,1.435
9.1440,-0.9040,-0.2680,0.9300,1.324
9.1550,-0.8250,-0.2290,0.8330,1.195
9.1650,-0.8030,-0.2380,0.6260,1.046
9.1750,-0.8470,-0.2390,0.3630,0.952
9.1850,-0.8880,-0.1660,0.0630,0.906
9.1950,-0.9140,-0.0190,-0.2090,0.938
9.2040,-0.8310,0.0760,-0.5210,0.984
9.2150,-0.6900,0.0970,-0.8130,1.071
9.2260,-0.6130,0.1640,-1.0760,1.249
9.2350,-0.6440,0.2660,-1.2820,1.459
9.2440,-0.6120,0.3030,-1.4130,1.569
9.2550,-0.5680,0.2850,-1.5050,1.634
9.2680,-0.5130,0.2740,-1.5200,1.627
9.2740,-0.3740,0.2100,-1.5030,1.563
9.2870,-0.2080,0.0960,-1.4580,1.476
9.2960,-0.0220,-0.0270,-1.4860,1.486
9.3070,0.1710,-0.1490,-1.5930,1.609
9.3150,0.2170,-0.2730,-1.7070,1.742
9.3270,0.1700,-0.2950,-1.7930,1.825
9.3360,0.1240,-0.2490,-1.7600,1.782
9.3450,0.2130,-0.1180,-1.6970,1.714
9.3560,0.4230,-0.0430,-1.5960,1.652
9.3640,0.5940,0.0480,-1.5120,1.625
9.3740,0.5960,0.1370,-1.4490,1.573
9.3860,0.4060,0.0830,-1.3560,1.418
9.3950,0.1940,-0.2140,-1.2160,1.250
9.4040,0.1610,-0.9750,-0.9690,1.384
9.4150,0.0870,-1.8140,-0.7210,1.954
9.4240,-0.3240,-1.9620,-0.2260,2.001
9.4340,-0.4060,-1.3180,0.2030,1.394
9.4440,-0.2450,-0.6870,0.2520,0.772
9.4560,-0.1100,-0.1760,0.0840,0.224
9.4660,-0.0390,0.2830,-0.0480,0.290
9.4740,0.0240,0.3510,0.0050,0.352
9.4830,0.0120,0.3630,0.0790,0.372
9.4930,0.0430,0.2320,0.1500,0.280
9.5030,0.2520,-0.1720,0.1970,0.363
9.5140,0.6870,-0.8500,0.1370,1.101
9.5260,1.2750,-1.6990,0.0260,2.124
9.5340,1.7490,-2.3760,0.0620,2.951
9.5440,2.0660,-2.8680,0.2230,3.542
9.5550,2.1070,-3.0660,0.5570,3.762
9.5640,1.8020,-2.8770,1.0810,3.563
9.5770,1.1980,-2.4270,1.7820,3.241
10.3240,0.5010,-1.9360,2.5430,3.235
10.3250,-0.1110,-1.4730,3.1960,3.521
10.3260,-0.7130,-1.0460,3.7070,3.917
10.3270,-1.2870,-0.7270,4.0450,4.307
10.3280,-1.7220,-0.4800,4.1590,4.527
10.3300,-1.9700,-0.2290,4.1330,4.584
10.3320,6.8450,-12.4170,5.7290,15.292
10.3340,3.3620,-10.3680,5.6850,12.293
10.3370,-0.1560,-8.0030,4.6000,9.232
10.3380,-3.9190,-4.9800,3.5980,7.287
10.3400,-7.7320,-2.2330,3.2900,8.694
10.3410,-11.0830,0.6300,3.8370,11.745
10.3430,-13.8910,3.8520,4.7800,15.187
10.3460,-15.4750,7.1310,4.9460,17.742
10.3480,-16.0040,10.8750,4.0300,19.764
10.3500,-16.1400,14.7640,2.9730,22.075
10.3520,-15.4110,16.7340,2.2720,22.862
10.3540,-11.2180,13.8030,0.8530,17.807
10.3550,-4.5560,8.6930,-1.3510,9.907
10.3570,1.3340,6.4100,-3.3300,7.346
10.3630,5.3030,6.1650,-3.8980,9.018
10.3730,6.7320,6.1370,-2.8830,9.555
10.3860,5.7550,5.8100,-1.0320,8.243
10.4020,2.9140,5.4850,0.8480,6.269
10.4040,-1.3590,5.1670,1.8500,5.654
10.4180,-4.9100,4.1820,1.5920,6.643
10.4230,-7.2090,3.0290,1.1310,7.901
10.4370,-8.8050,2.9500,1.1550,9.358
10.4470,-10.1480,3.6940,1.4880,10.901
10.4530,-11.0060,4.6620,1.8140,12.090
10.4630,-11.7670,5.5700,1.9590,13.165
10.4730,-12.3630,6.3010,1.9070,14.007
10.4830,-12.3260,6.7050,1.7600,14.142
10.4930,-11.3610,6.7550,1.5610,13.309
10.5040,-9.5810,6.6250,0.9390,11.686
10.5130,-7.4980,6.5660,0.2080,9.969
10.5230,-5.7830,6.6370,-0.5540,8.820
10.5350,-4.6420,6.7140,-1.3570,8.275
10.5430,-3.8540,6.7260,-1.9680,7.998
10.5530,-3.3610,6.7280,-2.1960,7.835
10.5660,-3.0930,6.9300,-2.2170,7.906
10.5730,-2.9910,7.0760,-1.9500,7.926
10.5860,-3.0410,7.1840,-1.5340,7.951
10.5930,-3.4470,7.5750,-1.1370,8.400
10.6100,-4.4530,8.3420,-0.9280,9.502
10.6130,-5.6280,9.0450,-0.8810,10.689
10.6240,-6.6370,9.3110,-1.0350,11.481
10.6350,-7.3680,9.5270,-0.9950,12.085
10.6430,-8.1500,9.9070,-0.8060,12.854
10.6550,-9.0850,10.3790,-0.4740,13.802
10.6650,-10.0580,10.7610,-0.1240,14.730
10.6730,-11.1240,11.1190,0.1130,15.729
10.6830,-11.4000,11.0140,0.7290,15.868
10.6940,-10.8530,10.0340,1.4950,14.856
10.7040,-9.3810,8.1100,1.5790,12.501
10.7140,-7.4080,5.7460,1.0920,9.439
10.7240,-4.6000,2.5340,0.2750,5.259
10.7340,-0.4320,-1.8780,-0.6520,2.034
10.7440,4.3680,-7.2220,-1.5100,8.574
10.7540,9.1310,-10.4640,-1.8220,14.007
10.7640,12.7140,-10.8660,-1.9460,16.838
10.7740,15.3110,-12.0720,-2.1000,19.610
10.7840,16.5330,-14.4900,-1.6800,22.048
10.7940,16.2120,-15.2510,-0.9060,22.277
10.8040,15.7300,-16.9710,-0.6200,23.148
10.8140,13.6600,-16.5120,0.9410,21.451
10.8240,10.3210,-17.9410,1.4910,20.752
10.8340,7.3610,-15.7680,1.3490,17.454
10.8440,3.4750,-12.0150,2.8330,12.824
10.8540,1.5320,-12.1050,2.8440,12.529
10.8640,1.9020,-11.8640,1.5150,12.111
10.8740,3.0490,-11.0330,-0.2940,11.450
10.8830,5.0160,-10.5910,-1.9140,11.874
10.8940,8.0290,-9.9110,-3.2730,13.168
10.9030,9.9220,-8.8140,-4.8490,14.130
10.9130,9.8150,-7.6160,-7.0150,14.267
11.0620,8.5640,-6.0850,-9.7400,14.326
11.0630,6.6260,-3.7420,-11.6870,13.946
11.0660,4.7700,-1.6180,-11.7550,12.789
11.0680,3.4870,-0.4010,-9.4690,10.099
11.0700,2.8540,0.1620,-6.1700,6.800
11.0710,2.2860,0.7870,-2.9290,3.798
11.0730,1.5270,1.6740,-0.2670,2.282
11.0740,0.7570,2.4630,1.6320,3.050
11.0760,0.0960,2.9680,2.4750,3.866
11.0770,-0.2140,3.3020,2.6350,4.230
11.0790,-0.3690,3.4530,2.1800,4.100
11.0800,-0.6170,3.3330,1.4380,3.682
11.0820,-1.0200,3.1500,0.7740,3.400
11.0830,-1.3790,3.1180,0.1780,3.414
11.0850,-1.5790,3.0310,-0.3070,3.431
11.0860,-1.7480,2.9850,-0.5340,3.500
11.0880,-1.8830,2.9560,-0.4040,3.528
11.0920,-1.8710,3.0260,-0.3380,3.574
11.1020,-1.6550,2.9570,-0.4520,3.419
11.1120,-1.2530,2.8250,-0.5570,3.140
11.1240,-0.7040,2.6270,-0.6730,2.802
11.1330,0.0340,2.4090,-0.8080,2.541
11.1450,0.6180,2.2100,-0.8750,2.456
11.1540,0.8340,2.1010,-0.7670,2.387
11.1630,0.7850,1.9940,-0.6560,2.241
11.1740,0.7070,1.7790,-0.4520,1.967
11.1870,0.7030,1.4890,-0.1910,1.658
11.1970,0.5700,1.2430,0.1100,1.372
11.2030,0.2880,1.0750,0.4410,1.197
11.2140,-0.0670,1.1100,0.8630,1.408
11.2250,-0.3750,1.2350,1.3070,1.837
11.2360,-0.6000,1.3860,1.7740,2.330
11.2420,-0.7140,1.4390,2.1240,2.663
11.2530,-0.8060,1.4600,2.3990,2.922
11.2630,-0.8340,1.4560,2.6750,3.158
11.2730,-0.7980,1.1600,2.8440,3.173
11.2840,-0.5880,0.7410,2.9520,3.100
11.2940,-0.3210,0.0390,2.4940,2.515
11.3020,-0.1570,-1.0370,1.2860,1.659
11.3120,-0.2170,-1.5860,-0.0340,1.601
11.3230,-0.2350,-1.3510,-0.9130,1.647
11.3340,0.0830,-1.3180,-1.5820,2.061
11.3450,0.5940,-1.4630,-2.5090,2.965
11.3530,0.8670,-1.3940,-3.5940,3.951
11.3650,0.7850,-1.1730,-4.6060,4.817
11.3750,0.3210,-0.8420,-5.2760,5.352
11.3860,-0.1050,-0.2790,-5.5050,5.513
11.3920,0.0570,0.4130,-5.3480,5.364
11.4080,0.9160,0.5990,-4.7060,4.832
11.4170,1.9730,0.6350,-3.6720,4.217
11.4250,2.7370,0.7280,-2.6100,3.851
11.4370,3.0980,0.8600,-1.7680,3.669
11.4470,3.2080,0.9560,-1.0670,3.513
11.4540,3.1300,0.9290,-0.5270,3.307
11.4650,2.7900,0.6730,-0.1610,2.875
11.4760,2.0850,0.3070,-0.0760,2.109
11.4820,1.2210,0.0020,-0.1680,1.233
11.4920,0.3170,-0.2410,-0.1570,0.428
11.5060,-0.5830,-0.4040,-0.0280,0.710
11.5170,-1.4840,-0.5210,0.1210,1.577
11.5250,-2.2640,-0.5540,0.2660,2.346
11.5320,-2.8700,-0.4690,0.4540,2.943
11.5440,-3.1570,-0.3910,0.6530,3.247
11.5570,-3.1670,-0.4260,0.8580,3.309
11.5660,-2.8550,-0.5390,1.0680,3.096
11.5740,-2.4330,-0.6610,1.3090,2.841
11.5840,-1.9710,-0.6190,1.6430,2.640
11.5940,-1.5180,-0.4950,1.9740,2.539
11.6040,-1.1230,-0.3710,2.2640,2.554
11.6140,-0.7680,-0.3060,2.4430,2.579
11.6240,-0.5220,-0.1870,2.4880,2.549
11.6320,-0.3770,0.0090,2.4580,2.487
11.6420,-0.3260,0.1940,2.3310,2.362
11.6520,-0.2560,0.2950,2.1440,2.179
11.8610,-0.0890,0.3440,2.0150,2.046
11.8630,0.1240,0.3740,1.9220,1.962
11.8640,0.3910,0.3470,1.8030,1.877
11.8660,0.6880,0.3120,1.6250,1.792
11.8670,1.0060,0.2810,1.4420,1.781
11.8690,1.3260,0.2610,1.2170,1.819
11.8700,1.7330,0.2170,0.9360,1.982
11.8720,2.1350,0.1560,0.6250,2.230
11.8730,2.4280,0.1540,0.3530,2.458
11.8750,2.6510,0.2000,0.1240,2.661
11.8760,2.7810,0.2650,-0.0840,2.795
11.8770,2.7830,0.3490,-0.2520,2.816
11.8790,2.7060,0.4510,-0.3630,2.767
11.8800,2.5710,0.5620,-0.4620,2.672
11.8810,2.4380,0.5610,-0.6030,2.573
11.8830,2.2660,0.4230,-0.7420,2.422
11.8840,2.0530,0.3380,-0.9040,2.269
11.8860,1.7810,0.3050,-1.0680,2.099
11.8870,1.4230,0.2790,-1.1750,1.866
11.8890,1.0460,0.1900,-1.1670,1.579
11.8900,0.6740,0.0290,-1.1160,1.304
11.8910,0.2560,-0.1160,-1.0310,1.069
11.8930,-0.1410,-0.2050,-0.9430,0.975
11.8940,-0.5100,-0.3050,-0.8190,1.012
11.9020,-0.7710,-0.3930,-0.6470,1.081
11.9120,-0.9120,-0.4240,-0.4190,1.090
11.9210,-0.9820,-0.4730,-0.2170,1.111
11.9320,-0.9370,-0.6220,-0.0440,1.126
11.9420,-0.6740,-0.9640,-0.0310,1.177
11.9530,-0.3400,-1.4010,-0.1420,1.449
11.9630,-0.2560,-1.5200,-0.2370,1.560
11.9730,-0.4870,-1.2090,-0.1910,1.317
11.9860,-0.7800,-0.7950,-0.0460,1.115
11.9950,-0.8510,-0.5970,0.1350,1.048
12.0060,-0.8650,-0.4610,0.3420,1.038
12.0170,-1.0080,-0.2410,0.6000,1.198
12.0220,-1.1160,-0.0650,0.8060,1.378
12.0360,-1.1570,-0.0540,0.8430,1.433
12.0460,-1.0210,-0.1450,0.7660,1.285
12.0560,-0.7960,-0.1710,0.5780,0.998
12.0660,-0.5620,-0.2780,0.2240,0.666
12.0710,-0.3770,-0.4780,-0.2540,0.660
12.0810,-0.1870,-0.7250,-0.7800,1.081
12.0960,0.1450,-0.8630,-1.2640,1.537
12.1020,0.4900,-0.9220,-1.6870,1.984
12.1120,0.7200,-0.8590,-1.9880,2.282
12.1230,0.8840,-0.8110,-2.2430,2.544
12.1320,0.9150,-0.7220,-2.3900,2.659
12.1420,0.7650,-0.6250,-2.5340,2.720
12.1520,0.5010,-0.6460,-2.6570,2.780
12.1660,0.1340,-0.7440,-2.6880,2.792
12.1760,-0.2980,-0.7600,-2.6110,2.736
12.1840,-0.8200,-0.7780,-2.4800,2.725
12.1960,-1.3420,-0.7980,-2.3160,2.793
12.2040,-1.7830,-0.7160,-2.0940,2.842
12.2140,-2.1770,-0.5500,-1.8280,2.895
12.2230,-2.4550,-0.3370,-1.5400,2.918
12.2330,-2.5750,-0.1380,-1.2920,2.884
12.2430,-2.6210,0.0300,-1.0320,2.817
12.2530,-2.6630,0.2960,-0.7870,2.793
12.2620,-2.6500,0.5870,-0.5590,2.771
12.2720,-2.4570,0.8840,-0.2630,2.624
12.2820,-2.1260,1.0730,0.1720,2.388
12.2920,-1.7460,1.1250,0.5810,2.157
12.3050,-1.3780,1.1450,1.0470,2.075
12.3140,-1.0720,1.2370,1.5540,2.257
12.3260,-0.7370,1.4280,2.0060,2.570
12.3360,-0.4050,1.6620,2.3010,2.867
12.3460,-0.2750,2.0530,2.4360,3.198
12.3560,-0.4850,2.7640,2.4320,3.713
12.3660,-0.9670,3.7530,2.4120,4.565
12.3770,-1.4710,4.9040,2.4470,5.675
12.3820,-1.9810,6.1270,2.5140,6.913
12.3940,-2.4760,7.4160,2.5690,8.230
12.4030,-2.8450,8.6470,2.4730,9.433
12.4130,-3.0740,9.5410,2.0280,10.227
12.4230,-3.1370,9.8970,1.3520,10.470
12.4330,-2.9760,9.4750,0.4740,9.943
12.4410,-2.5230,8.3550,-0.4140,8.737
12.4540,-2.2300,7.0150,-1.2400,7.465
12.4630,-2.3290,5.7510,-2.0710,6.541
12.4740,-2.6910,4.5630,-2.9420,6.060
12.4820,-2.9240,3.1370,-3.7130,5.672
12.5000,-2.5040,1.2350,-3.9190,4.812
12.5020,-0.8870,-0.8280,-3.2760,3.493
12.5160,1.1220,-3.0680,-2.1470,3.909
12.5240,3.8380,-5.6310,-0.8410,6.866
12.5300,7.5390,-9.3730,0.2700,12.032
12.5400,10.9250,-12.5370,2.1380,16.766
12.5510,12.6380,-13.3210,4.2880,18.856
12.5610,13.0260,-12.5650,6.4080,19.199
12.5730,13.5820,-11.5080,7.9370,19.491
12.5810,14.2980,-10.7300,8.1770,19.658
12.5910,14.3140,-10.5580,6.8070,19.045
12.6030,13.6250,-11.4820,4.0900,18.281
12.6110,12.9410,-13.6590,0.7030,18.829
12.6250,12.5010,-16.5000,-2.5860,20.862
12.6310,11.7840,-18.6860,-4.8920,22.627
12.6410,11.0350,-19.6190,-5.8550,23.258
12.6520,10.7000,-19.7320,-5.0530,23.008
12.6610,10.5180,-19.5240,-2.8180,22.355
12.6700,9.9970,-19.0560,0.7430,21.532
12.6800,8.8140,-18.5250,5.3750,21.207
12.6920,7.2380,-17.9150,9.7010,21.620
12.7000,5.3580,-17.1710,12.5330,21.923
12.7110,3.2240,-15.6010,12.9040,20.501
12.7210,1.5190,-13.2760,10.3300,16.890
12.7310,1.2260,-10.9070,5.7660,12.398
12.7400,0.6210,-7.5220,0.9100,7.602
12.7540,-1.7810,-2.8970,-3.3520,4.775
12.7650,-5.3650,1.5190,-6.9270,8.892
12.7740,-10.3150,5.6260,-11.5320,16.463
12.7830,-14.6770,10.1760,-13.0980,22.148
12.7940,-16.4080,14.6240,-9.6490,24.004
12.8050,-15.8010,18.4450,-5.3640,24.873
12.8130,-12.7350,20.0220,-1.8500,23.801
12.8220,-7.7580,17.6940,-2.5690,19.490
12.8360,-4.0550,12.9530,-5.6880,14.717
12.8430,-3.9530,9.1110,-8.2730,12.926
12.8520,-5.1920,6.5370,-9.8100,12.881
12.8620,-6.3930,5.1110,-8.5270,11.820
12.8730,-6.4230,4.8190,-5.5610,9.767
12.8820,-5.1460,5.3250,-1.8250,7.627
12.8920,-3.4590,6.0640,1.9270,7.242
12.9020,-2.0170,6.2980,4.8120,8.179
12.9120,-1.1080,5.8570,6.6110,8.902
12.9200,-1.0640,5.5950,7.3910,9.331
12.9330,-1.7710,5.8720,7.4770,9.671
12.9430,-3.0990,6.5880,6.6090,9.833
12.9550,-4.2540,7.1180,5.4100,9.901
12.9610,-5.4740,7.7590,3.7390,10.205
12.9730,-6.6620,8.1470,1.7570,10.670
12.9800,-7.4720,8.1150,0.0160,11.031
12.9910,-7.9570,8.1590,-1.8630,11.548
13.0020,-7.9590,8.0850,-3.4820,11.867
13.0110,-7.5210,7.8380,-4.5460,11.776
13.0220,-6.7940,7.7040,-5.0890,11.463
13.0310,-5.8520,7.5620,-4.9510,10.768
13.0410,-4.6750,7.3980,-4.2840,9.744
13.0510,-3.6200,7.1620,-3.5460,8.773
13.0620,-2.9530,7.0660,-2.7560,8.139
13.0700,-2.5190,7.1670,-1.9060,7.832
13.0810,-2.2190,7.3770,-1.1310,7.786
13.0910,-2.1220,7.7710,-0.5980,8.078
13.1000,-2.5980,8.6700,-0.3510,9.058
13.1100,-3.4280,9.8310,-0.3700,10.418
13.1210,-4.2850,11.0260,-0.5380,11.842
13.1310,-4.9060,11.7080,-0.9530,12.730
13.1440,-5.2840,11.6470,-1.8300,12.920
13.1510,-5.5050,11.2110,-3.0210,12.850
13.1600,-6.1950,10.6970,-4.2010,13.056
13.1700,-7.0460,10.2120,-5.0510,13.396
13.1800,-7.2360,9.4890,-5.2840,13.051
13.1900,-6.4980,8.3570,-4.9140,11.671
13.2070,-5.0360,6.9200,-4.3690,9.609
13.2110,-2.7490,4.3680,-4.1020,6.593
13.2200,-0.2570,0.6030,-3.8530,3.908
13.2300,2.1610,-3.9300,-3.4600,5.664
13.2420,4.6750,-8.5830,-2.3270,10.047
13.2520,7.3130,-11.4030,-0.7590,13.568
13.2600,10.6930,-13.2630,0.8550,17.058
13.2710,13.5290,-14.6480,2.8740,20.146
13.2810,15.0850,-15.0550,5.0080,21.893
13.2900,15.1900,-14.2690,6.5920,21.859
13.3040,12.2830,-13.0100,8.6840,19.888
13.3140,7.8780,-15.2950,6.0340,18.232
13.3200,2.6590,-14.5370,6.2420,16.042
13.3350,-1.8440,-11.6550,6.2360,13.346
13.3450,-2.9760,-11.4240,4.7980,12.743
13.3540,-1.8990,-10.8830,3.3520,11.545
13.3650,-0.6620,-9.8910,2.3090,10.178
13.3740,1.2820,-8.9750,1.1870,9.143
13.3820,3.4050,-8.3650,0.1570,9.033
13.3960,4.7150,-8.0330,-0.6000,9.334
13.4050,5.1320,-7.8020,-0.9590,9.388
13.4140,5.1050,-7.5740,-0.8130,9.170
13.4250,5.0710,-7.2120,-0.2700,8.820
13.4330,5.3540,-6.5750,0.6900,8.507
13.4480,5.9900,-5.8170,1.8460,8.551
13.4540,6.6470,-4.9440,2.8220,8.752
13.4650,7.0730,-4.1080,3.4060,8.860
13.4710,7.3220,-3.1620,3.7360,8.807
13.4810,7.4180,-2.3220,3.7430,8.627
13.4910,7.3130,-1.4240,3.5720,8.262
13.5020,7.1720,-0.5520,3.3020,7.915
13.5120,6.9800,0.0290,2.8550,7.541
13.5220,6.5230,0.3980,2.2000,6.896
13.5330,5.6550,0.6460,1.3890,5.859
13.5410,4.5100,0.8410,0.5620,4.622
13.5530,3.1550,1.0000,-0.2220,3.317
13.5620,1.7890,1.1000,-0.8960,2.283
13.5700,0.6580,1.0990,-1.4520,1.936
13.5830,-0.1560,0.9430,-1.8170,2.053
13.5940,-0.7730,0.8430,-2.0210,2.322
13.6040,-1.0860,0.7890,-1.9430,2.362
13.6150,-1.2950,0.7920,-1.7850,2.343
13.6250,-1.5470,0.8960,-1.5160,2.344
13.6310,-1.7400,0.9650,-1.1790,2.313
13.6400,-1.8380,1.0250,-0.7120,2.222
13.6540,-1.8480,1.1300,-0.2150,2.177
13.6610,-1.7960,1.2670,0.2130,2.208
13.6700,-1.6520,1.3630,0.5240,2.205
13.6820,-1.3560,1.2730,0.6410,1.967
13.6950,-1.1160,1.0620,0.8050,1.738
13.7030,-1.0010,0.9240,0.9590,1.666
13.7100,-1.0350,0.7970,1.0660,1.686
13.7230,-1.1600,0.7420,1.1110,1.769
13.7310,-1.2460,0.7680,1.1980,1.891
13.7420,-1.3080,0.8780,1.2740,2.026
13.7500,-1.2620,0.9960,1.2910,2.062
13.7600,-1.1370,1.0530,1.3090,2.029
13.7710,-0.9750,1.0200,1.2610,1.892
13.7830,-0.8090,0.8970,1.1950,1.699
13.7950,-0.6460,0.7450,1.1210,1.493
13.8040,-0.5410,0.6700,1.0870,1.387
13.8120,-0.5410,0.7200,1.1310,1.446
13.8220,-0.5520,0.8590,1.1020,1.502
13.8310,-0.5560,1.0510,1.0410,1.580
13.8420,-0.5200,1.2690,0.8740,1.626
13.8510,-0.4770,1.3400,0.6710,1.573
13.8630,-0.3580,1.2760,0.4100,1.387
13.8700,-0.1920,1.1560,0.1440,1.181
13.8820,-0.0490,1.0050,-0.1270,1.014
13.8920,0.0640,0.8810,-0.3480,0.949
13.9020,0.1360,0.7980,-0.5250,0.965
13.9100,0.1790,0.7340,-0.6800,1.016
13.9240,0.1770,0.6690,-0.8200,1.073
13.9300,0.1680,0.6330,-0.9450,1.150
13.9450,0.2470,0.5970,-1.0750,1.254
13.9530,0.3540,0.5380,-1.1360,1.306
13.9600,0.5240,0.4770,-1.2050,1.398
13.9700,0.6940,0.4550,-1.2330,1.486
13.9800,0.7970,0.5550,-1.1790,1.528
13.9900,0.8930,0.6510,-1.0610,1.532
14.0000,0.9680,0.7160,-0.8570,1.478
14.0100,0.9870,0.7790,-0.5930,1.390
14.0220,1.0330,0.7990,-0.3140,1.343
14.0340,1.1710,0.7450,-0.1040,1.392
14.0440,1.3380,0.6200,0.0550,1.476
14.0550,1.4300,0.4490,0.1740,1.509
14.0650,1.4050,0.3170,0.2710,1.466
14.0700,1.2270,0.2930,0.3640,1.313
14.0820,0.9640,0.2990,0.4820,1.118
14.0930,0.7100,0.2250,0.5540,0.928
14.1040,0.5260,0.1130,0.5700,0.784
14.1100,0.3670,0.0040,0.4720,0.598
14.1200,0.1540,-0.0590,0.3350,0.373
14.1300,-0.0500,-0.0860,0.2020,0.225
14.1410,-0.1310,-0.1680,0.1120,0.241
14.1500,-0.1190,-0.2550,0.0810,0.293
14.1610,-0.0850,-0.3330,0.1060,0.360
14.1700,-0.0140,-0.3370,0.1700,0.378
14.1800,0.0600,-0.2990,0.3280,0.448
14.1900,0.1710,-0.2820,0.5090,0.607
14.2000,0.2730,-0.3200,0.6730,0.794
14.2100,0.3110,-0.3990,0.8750,1.011
14.2220,0.3430,-0.4790,1.0510,1.205
14.2300,0.2910,-0.5130,1.1320,1.276
14.7430,0.1870,-0.4200,1.1230,1.213
14.7450,0.1020,-0.3670,1.0030,1.073
14.7460,0.0390,-0.3570,0.8490,0.922
14.7470,0.0000,-0.3330,0.7250,0.798
14.7480,-0.0130,-0.2780,0.6020,0.663
14.7490,-0.0250,-0.1810,0.5080,0.540
14.7500,2.5770,1.3680,-2.7170,3.987
14.7530,2.6750,1.5260,-3.2920,4.508
14.7550,2.7710,1.7080,-3.7770,4.986
14.7560,2.9390,1.9070,-4.2270,5.490
14.7570,3.1400,2.0010,-4.5690,5.894
14.7580,3.3490,1.9440,-4.7000,6.090
14.7590,3.4790,1.8100,-4.5200,5.984
14.7600,3.4300,1.6510,-4.0990,5.594
14.7600,3.0820,1.4710,-3.4000,4.819
14.7610,2.5540,1.3280,-2.5610,3.853
14.7620,2.0080,1.1730,-1.7470,2.909
14.7630,1.4510,0.9630,-0.9680,1.992
14.7640,0.9570,0.7670,-0.3190,1.267
14.7650,0.5160,0.6390,0.1320,0.832
14.7690,0.1480,0.5840,0.3910,0.718
14.7790,-0.1310,0.5580,0.5160,0.771
14.7890,-0.3350,0.5450,0.5610,0.851
14.7990,-0.4920,0.5300,0.5490,0.908
14.8090,-0.6480,0.5510,0.4870,0.980
14.8210,-0.7650,0.5570,0.3940,1.025
14.8310,-0.8990,0.6060,0.2880,1.122
14.8410,-1.0380,0.6930,0.2400,1.271
14.8510,-1.0850,0.7780,0.1250,1.341
14.8590,-0.9800,0.8050,0.0460,1.269
14.8720,-0.7050,0.7330,-0.0340,1.018
14.8790,-0.3400,0.5520,-0.1520,0.666
14.8890,0.1100,0.1760,-0.3070,0.371
14.8990,0.5740,-0.3000,-0.3770,0.749
14.9130,0.7850,-0.5220,-0.3590,1.009
14.9240,0.7300,-0.3420,-0.3110,0.864
14.9330,0.5910,0.0370,-0.2600,0.647
14.9410,0.4830,0.3830,-0.2990,0.685
14.9510,0.3960,0.6000,-0.3830,0.815
14.9600,0.4510,0.6720,-0.4660,0.934
14.9740,0.5910,0.6570,-0.5920,1.064
14.9820,0.7310,0.6440,-0.6980,1.198
14.9890,0.7950,0.5340,-0.7770,1.233
15.0000,0.8480,0.3980,-0.8410,1.259
15.0120,0.8990,0.1270,-0.9370,1.305
15.0190,0.8970,-0.2460,-1.0410,1.396
15.0310,0.8240,-0.6820,-1.1200,1.549
15.0420,0.7860,-1.0710,-1.1410,1.751
15.0510,0.6480,-1.3460,-1.0350,1.817
15.0630,0.3490,-1.4400,-0.7800,1.674
15.0690,-0.1140,-1.3290,-0.4090,1.395
15.0800,-0.5930,-1.1320,0.0350,1.278
15.0910,-1.0630,-0.9670,0.4470,1.505
15.1010,-1.4910,-0.7650,0.8310,1.871
15.1100,-1.8250,-0.4990,1.1860,2.233
15.1210,-2.0360,-0.2990,1.4790,2.534
15.1310,-2.1100,-0.1920,1.7750,2.764
15.1410,-2.0390,-0.1880,2.0070,2.867
15.1500,-1.8840,-0.3010,2.2020,2.914
15.1610,-1.6070,-0.4320,2.3140,2.850
15.1690,-1.2930,-0.5260,2.2940,2.685
15.1800,-0.9640,-0.5950,2.0500,2.342
15.1920,-0.6140,-0.6520,1.6880,1.911
15.1990,-0.2850,-0.6060,1.3530,1.510
15.2130,-0.0700,-0.5110,1.0480,1.168
15.2190,0.0900,-0.3480,0.8340,0.908
15.2300,0.2750,-0.2620,0.7010,0.797
15.2390,0.4480,-0.2150,0.5220,0.721
15.2490,0.5490,-0.2000,0.3320,0.672
15.2640,0.6570,-0.1470,0.1730,0.695
15.2730,0.7250,-0.0920,0.0550,0.733
15.2820,0.7520,-0.0620,-0.0490,0.756
15.2890,0.7950,-0.0540,-0.1290,0.807
15.3000,0.8110,-0.0750,-0.1570,0.829
15.3080,0.7370,-0.1360,-0.1550,0.765
15.3190,0.5880,-0.1890,-0.0830,0.623
15.3340,0.4370,-0.2250,0.0250,0.492
15.3390,0.3180,-0.1600,0.1060,0.371
15.3530,0.1860,0.0150,0.1580,0.245
15.3590,0.0630,0.2200,0.2340,0.327
15.3730,-0.0280,0.3430,0.2320,0.415
15.3850,-0.1320,0.3890,0.1700,0.445
15.3880,-0.3280,0.4340,0.0270,0.545
16.9450,-0.5950,0.5080,-0.1270,0.793
16.9470,-0.9150,0.5990,-0.2520,1.122
16.9490,-1.3230,0.8030,-0.3310,1.583
16.9510,-1.7590,1.1320,-0.2200,2.103
16.9520,-2.2180,1.5230,-0.1370,2.694
16.9540,-1.1380,-3.9890,2.0470,4.626
16.9560,-1.5830,-2.9140,2.4490,4.122
16.9580,-1.4640,-2.1250,2.8030,3.810
16.9590,-1.2140,-1.4260,2.9820,3.521
16.9600,-0.9080,-0.7670,2.9840,3.212
16.9620,-0.5180,-0.2410,2.7990,2.857
16.9640,-0.0500,0.1150,2.5220,2.525
16.9650,0.2660,0.4090,2.1470,2.202
16.9660,0.4070,0.7040,1.9070,2.073
16.9680,0.3400,1.0110,1.5660,1.895
16.9690,0.0640,1.1050,0.7360,1.329
16.9700,-0.5000,0.7910,-0.7710,1.212
16.9710,-1.0900,0.4850,-2.3610,2.645
16.9730,-1.7960,0.3520,-3.8370,4.251
16.9740,-2.5210,0.1220,-5.1060,5.696
16.9770,-3.1970,-0.1660,-5.9910,6.793
16.9890,-3.6460,-0.4310,-6.2430,7.243
16.9970,-3.8700,-0.5540,-6.0210,7.179
17.0130,-3.9150,-0.6910,-5.5180,6.801
17.0170,-3.5890,-0.9030,-4.7460,6.018
17.0270,-3.0080,-1.0600,-3.9170,5.051
17.0370,-2.2680,-1.2070,-3.1060,4.031
17.0470,-1.6390,-1.2520,-2.2990,3.089
17.0570,-1.1360,-1.1960,-1.6420,2.327
17.0670,-0.7150,-0.8770,-1.0530,1.546
17.0760,-0.2630,-0.6570,-0.5430,0.892
17.0880,0.0760,-0.4470,-0.1170,0.468
17.0980,0.2680,-0.2600,0.2610,0.456
17.1100,0.4520,-0.0480,0.5230,0.693
17.1180,0.7250,-0.0960,0.5880,0.938
17.1300,0.7560,-0.1670,0.4390,0.890
17.1390,0.6580,-0.1990,0.3100,0.754
17.1500,0.4280,-0.2270,0.2130,0.529
17.1570,0.1070,-0.2850,0.0870,0.317
17.1700,-0.2520,-0.3460,-0.1000,0.440
17.1770,-0.5100,-0.3390,-0.2690,0.669
17.1880,-0.6200,-0.3200,-0.3410,0.777
17.2000,-0.7490,-0.1780,-0.3540,0.847
17.2070,-0.7580,-0.0130,-0.3360,0.829
17.2180,-0.5630,0.0770,-0.2670,0.628
17.2280,-0.3220,0.1620,-0.1830,0.404
17.2380,-0.1260,0.2830,-0.0530,0.314
17.2470,-0.0270,0.4490,0.0930,0.459
17.2570,0.0930,0.5570,0.1740,0.591
17.2670,0.2180,0.6520,0.1990,0.716
17.2790,0.2990,0.7880,0.1650,0.859
17.2880,0.4390,0.9200,0.1210,1.027
17.2980,0.6070,0.9730,0.0630,1.149
17.3100,0.9160,0.7540,-0.0920,1.190
17.3180,1.3900,0.4090,-0.3370,1.488
17.3300,1.9810,-0.1950,-0.6330,2.089
17.3370,2.5190,-0.7490,-0.8080,2.749
17.3490,2.8090,-1.2230,-0.7550,3.155
17.3590,2.5330,-0.9630,-0.4220,2.743
17.3680,1.8390,-0.2770,-0.1540,1.866
17.3780,1.1510,0.1910,-0.0930,1.170
17.3880,0.6850,0.3230,-0.1680,0.776
17.3990,0.3850,0.4060,-0.2550,0.615
17.4080,0.1670,0.5420,-0.3930,0.690
17.4190,0.0010,0.6370,-0.5580,0.847
17.4300,-0.1180,0.4430,-0.6570,0.801
17.4370,-0.1490,-0.0170,-0.5220,0.543
17.4500,-0.2670,-0.3370,-0.3150,0.533
17.4590,-0.5350,-0.4760,-0.2870,0.771
17.4690,-0.7530,-0.5760,-0.3500,1.011
17.4790,-0.7770,-0.7100,-0.4060,1.128
17.4900,-0.7290,-0.7330,-0.3220,1.083
17.4980,-0.5810,-0.6350,-0.0650,0.863
17.5090,-0.3480,-0.5310,0.2760,0.692
17.5190,-0.0640,-0.4850,0.6110,0.783
17.5300,0.1540,-0.4520,0.9110,1.029
17.5380,0.2660,-0.3770,1.1330,1.223
17.5470,0.2820,-0.2380,1.3460,1.396
17.5580,0.2690,-0.0730,1.5670,1.592
17.5670,0.3550,0.0160,1.7460,1.782
17.5770,0.4630,0.0420,1.8450,1.903
17.5900,0.5470,0.1070,1.8600,1.942
17.5980,0.6300,0.1500,1.7830,1.897
17.6070,0.7070,0.1650,1.5660,1.726
17.6190,0.7630,0.1720,1.2020,1.434
17.6290,0.7770,0.1610,0.8160,1.138
17.6380,0.7500,0.1710,0.3970,0.866
17.6470,0.7270,0.2200,0.0250,0.760
17.6560,0.7260,0.2490,-0.3630,0.849
17.6680,0.6940,0.3290,-0.6830,1.028
17.6780,0.7090,0.4060,-0.9890,1.283
17.6890,0.6930,0.4500,-1.1890,1.448
17.6990,0.6830,0.4360,-1.3140,1.544
17.7090,0.6510,0.4040,-1.3540,1.556
17.7180,0.5330,0.3670,-1.2100,1.372
17.7290,0.3080,0.4020,-0.9390,1.067
17.7390,0.0060,0.5390,-0.6770,0.865
17.7490,-0.2930,0.7520,-0.4560,0.927
17.7570,-0.6270,1.0630,-0.2500,1.259
17.7660,-1.0440,1.5120,-0.0590,1.838
17.7780,-1.4930,2.1500,0.1820,2.624
17.7890,-1.9210,2.8740,0.4230,3.483
17.7990,-2.2220,3.5140,0.6180,4.203
17.8090,-2.5030,4.0760,0.5960,4.820
17.8190,-2.9480,4.8500,0.4060,5.690
17.8280,-3.6870,5.8990,0.2310,6.960
17.8370,-4.5780,6.9970,0.1920,8.364
17.8480,-5.5280,7.7890,0.1920,9.553
17.8570,-6.2150,8.1910,0.5240,10.295
17.8680,-6.3700,8.2980,1.3970,10.554
17.8770,-6.1970,7.9180,2.4070,10.339
17.8880,-5.6680,7.0040,2.9660,9.486
17.8970,-4.7630,5.6610,2.6310,7.852
17.9080,-4.3390,4.1220,1.6390,6.205
17.9170,-4.5260,2.9150,0.5690,5.413
17.9280,-4.9580,2.0070,-0.3770,5.362
17.9370,-5.3010,1.0400,-0.9860,5.491
17.9480,-5.1940,-0.3270,-0.9990,5.299
17.9570,-4.2380,-2.1660,-0.0740,4.760
17.9670,-2.5080,-4.3790,1.4160,5.241
17.9780,0.1770,-6.5600,2.7110,7.100
17.9880,3.4070,-8.3810,3.4290,9.675
17.9970,6.4970,-9.5480,2.9310,11.915
18.0080,8.7330,-9.9200,1.6700,13.321
18.0170,10.1600,-10.1890,0.2290,14.391
18.0270,10.9980,-10.1330,-0.2360,14.956
18.0370,11.1600,-10.5000,-0.8340,15.346
18.0470,11.0050,-11.4910,-2.0510,16.042
18.0590,11.1600,-13.0460,-3.7560,17.574
18.0680,11.7540,-15.0220,-5.6010,19.879
18.0770,12.5300,-16.8730,-6.9830,22.146
18.0880,13.1420,-18.0180,-7.5190,23.535
18.0970,13.4700,-18.7010,-6.9980,24.086
18.1080,13.1840,-18.9750,-5.4480,23.739
18.1170,12.1550,-19.0730,-2.9690,22.811
18.1280,10.6170,-19.2400,-0.2730,21.977
18.1370,8.3070,-18.8180,2.1670,20.684
18.1610,6.1180,-17.9900,3.7870,19.376
18.1640,4.9220,-17.2040,4.4730,18.445
18.2550,4.2090,-15.7900,4.3900,16.921
18.2590,3.3850,-13.6120,4.0190,14.591
18.2610,2.4010,-10.8380,3.6630,11.690
18.2630,1.0170,-7.4060,3.0520,8.075
18.2640,-0.1490,-4.6250,1.3800,4.829
18.2660,-1.0800,-2.5050,-0.8240,2.850
18.2680,-3.0590,0.5450,-1.7070,3.545
18.2710,-5.7570,4.6450,-1.0680,7.474
18.2740,-8.9170,9.2510,0.5670,12.861
18.2770,-11.9290,14.1320,2.2990,18.636
18.2810,-13.9410,18.7240,3.2330,23.567
18.2840,-13.9080,20.5630,2.8180,24.984
18.2870,-9.8340,16.7860,0.5170,19.461
18.2980,-5.3870,10.8190,-2.0700,12.262
18.3070,-2.5620,6.5510,-3.7240,7.959
18.3180,-1.4730,4.3030,-4.5420,6.428
18.3280,-1.8780,3.7530,-4.6460,6.261
18.3370,-3.6020,4.5890,-3.8560,6.993
18.3470,-5.5900,5.9240,-2.2000,8.437
18.3580,-6.9220,6.7100,-0.2820,9.645
18.3680,-7.3910,6.2860,1.5470,9.825
18.3800,-7.4610,5.1170,3.2500,9.613
18.3870,-7.8030,4.6990,4.6480,10.226
18.3970,-8.5550,4.9680,5.5130,11.325
18.4080,-9.2310,5.7500,6.0980,12.468
18.4170,-9.5640,6.2350,5.9050,12.854
18.4270,-9.7460,6.7110,5.5990,13.091
18.4370,-9.7950,7.1590,5.1040,13.162
18.4470,-9.8240,7.3270,4.4130,13.026
18.4570,-9.5670,7.1700,3.4450,12.442
18.4670,-8.9090,6.9470,2.1460,11.499
18.4790,-8.0960,6.9410,0.5810,10.680
18.4870,-7.0950,7.1830,-0.9480,10.141
18.4970,-6.2030,7.5220,-2.1630,9.987
18.5070,-5.3810,7.7870,-3.0440,9.943
18.5170,-4.8660,8.0220,-3.5530,10.033
18.5270,-4.6050,8.2860,-3.6110,10.144
18.5380,-4.5380,8.5630,-3.2830,10.232
18.5470,-4.5750,8.8600,-2.7070,10.332
18.5570,-4.8250,9.1770,-2.0380,10.567
18.5670,-5.2070,9.4430,-1.4220,10.877
18.5780,-5.5350,9.5690,-0.7480,11.080
18.5880,-5.8290,9.6600,-0.1220,11.283
18.5960,-6.0330,9.7630,0.4880,11.487
18.6060,-6.0660,9.5500,0.9590,11.354
18.6160,-6.0800,9.1350,1.3160,11.052
18.6270,-6.2390,8.7990,1.6390,10.910
18.6360,-6.4450,8.5870,1.8840,10.901
18.6470,-6.2640,7.9720,1.8420,10.305
18.6560,-5.2220,6.0360,1.3950,8.102
18.6660,-3.7760,3.1790,0.7490,4.993
18.6760,-1.9760,-0.5340,0.1080,2.050
18.6870,0.3840,-5.0290,-0.3780,5.058
18.6950,3.1890,-9.2580,-0.2190,9.794
18.7060,5.3460,-10.9090,0.6670,12.167
18.7160,6.5540,-9.9430,1.9140,12.062
18.7260,8.5050,-11.6370,3.0850,14.740
18.7360,10.3050,-15.4950,3.8580,19.005
18.7460,10.6380,-17.3040,4.3140,20.766
18.7560,8.9900,-17.1530,4.5760,19.899
18.7670,5.4880,-16.4810,5.0000,18.076
18.7760,5.4980,-15.7520,4.9910,17.414
18.7860,3.5840,-14.8580,5.7340,16.324
18.7990,4.2300,-13.7550,3.4280,14.793
18.8060,6.3420,-13.6340,2.2690,15.207
18.8170,7.9270,-13.5270,1.1140,15.718
18.8270,9.3830,-12.5360,-0.3070,15.662
18.8370,10.3650,-11.3750,-1.7140,15.484
18.8470,10.5560,-10.1950,-2.7970,14.940
18.8560,9.9980,-9.0990,-3.3830,13.935
18.8670,9.0630,-8.1520,-3.6370,12.721
18.8770,7.9920,-7.4050,-3.7250,11.514
18.8880,6.9650,-6.7350,-3.6340,10.348
18.8970,5.8910,-5.8800,-3.7500,9.129
18.9070,4.9810,-5.0330,-5.0090,8.674
18.9170,4.2440,-4.3390,-6.8560,9.157
18.9270,3.3060,-3.5850,-7.9280,9.308
18.9370,2.4040,-2.8180,-7.5580,8.417
18.9470,1.7830,-2.0890,-5.7420,6.365
18.9570,1.4030,-1.4620,-3.3570,3.921
18.9670,1.1380,-0.8740,-0.9990,1.748
18.9760,0.8830,-0.2820,1.0780,1.422
18.9870,0.6400,0.1820,2.6400,2.723
18.9970,0.3150,0.6060,3.3920,3.460
19.0110,-0.0280,0.8680,3.4760,3.583
19.0160,-0.3270,0.9340,2.9890,3.149
19.0270,-0.8970,1.0370,2.2210,2.610
19.0360,-1.6210,1.2450,1.4770,2.522
19.0470,-2.2810,1.4710,0.9120,2.863
19.0560,-2.7640,1.5290,0.4590,3.192
19.0670,-3.0320,1.6840,0.1030,3.470
19.0760,-3.1830,1.9990,-0.1330,3.761
19.0860,-3.1120,2.3860,-0.2380,3.929
19.0970,-2.8730,2.7800,-0.2350,4.005
19.1070,-2.5800,3.1270,-0.2090,4.059
19.1160,-2.2630,3.3640,-0.2320,4.061
19.1270,-2.0090,3.4810,-0.2340,4.026
19.1360,-1.8340,3.5530,-0.2280,4.005
19.1470,-1.7530,3.6640,-0.2030,4.067
19.1570,-1.8200,3.7690,-0.2080,4.191
19.1670,-1.9010,3.8260,-0.2610,4.280
19.1760,-1.8590,3.7710,-0.3330,4.217
19.1880,-1.8030,3.6490,-0.4640,4.096
19.1960,-1.7100,3.5700,-0.6120,4.005
19.2100,-1.5940,3.4540,-0.7440,3.876
19.2210,-1.4640,3.2820,-0.8430,3.691
19.2250,-1.3260,3.0320,-0.8930,3.428
19.2360,-1.1110,2.6280,-0.9040,2.993
19.2460,-0.7600,1.9990,-0.8950,2.318
19.2550,-0.4120,1.2500,-0.8510,1.567
19.2660,-0.1720,0.5400,-0.6250,0.844
19.2760,-0.0070,-0.0470,-0.2820,0.286
19.2900,0.1590,-0.5470,0.0870,0.576
19.3000,0.3290,-1.0070,0.4640,1.157
19.3080,0.4930,-1.3840,0.8750,1.710
19.3240,0.5920,-1.5440,1.2940,2.100
19.3260,0.4840,-1.4230,1.7040,2.272
19.3370,0.1790,-1.0660,1.9650,2.243
19.3480,-0.1700,-0.6690,2.1100,2.220
19.3560,-0.5060,-0.2810,2.1170,2.195
19.3670,-0.7600,0.0060,1.9530,2.096
19.3770,-0.9640,0.2280,1.6950,1.963
19.3900,-1.0660,0.3730,1.2920,1.716
19.3960,-1.0620,0.4780,0.8780,1.458
19.4100,-0.8810,0.5170,0.3960,1.096
19.4180,-0.5990,0.4930,-0.0760,0.780
19.4290,-0.3490,0.3550,-0.5200,0.720
19.4370,-0.1090,0.1850,-0.9600,0.984
19.4500,0.1700,0.0510,-1.3540,1.366
19.4570,0.4570,-0.1630,-1.7510,1.817
19.4710,0.7450,-0.3630,-2.0760,2.235
19.4750,0.9600,-0.3540,-2.2490,2.471
19.4890,1.1630,-0.2990,-2.2920,2.588
19.4950,1.3390,-0.2830,-2.2120,2.601
19.5050,1.4730,-0.2250,-2.0120,2.504
19.5200,1.4730,-0.0470,-1.7300,2.273
19.5250,1.3730,0.1010,-1.4300,1.985
19.5380,1.1530,0.1250,-1.1890,1.661
19.5490,0.8420,0.1440,-1.0060,1.320
19.5550,0.5800,0.2310,-0.8480,1.053
19.5690,0.3850,0.2700,-0.7190,0.859
19.5800,0.2490,0.1530,-0.6170,0.683
19.5890,0.1730,0.0460,-0.4440,0.479
19.5990,0.1570,-0.0120,-0.2570,0.301
19.6090,0.2280,-0.0380,-0.0670,0.241
19.6190,0.3610,-0.0890,0.1050,0.386
19.6250,0.4620,-0.1010,0.2580,0.539
19.6350,0.5640,-0.0750,0.3840,0.686
19.6450,0.6520,-0.0540,0.4540,0.796
19.6550,0.6490,-0.0710,0.4910,0.817
19.6670,0.5290,-0.0850,0.5150,0.743
19.6750,0.3310,0.0510,0.4980,0.600
27.9740,0.1010,0.2770,0.4630,0.549
28.1030,0.6830,-0.1210,1.7340,1.868
28.1120,0.4220,-0.0740,1.0860,1.167
28.1290,0.1470,-0.0260,0.4320,0.457
28.1330,-0.2520,-0.0660,0.0420,0.264
28.1770,-0.9130,-0.0880,-0.0310,0.918
28.1810,-1.6320,-0.1410,-0.1940,1.650
28.1880,-0.5190,0.0270,-0.9850,1.114
28.1890,0.4070,-0.1290,-1.9650,2.011
28.1940,0.3280,0.0390,-3.0300,3.048
28.1970,-0.0190,0.4810,-4.0760,4.104
28.2050,-0.3600,0.5970,-4.9560,5.005
28.2120,-0.9560,0.6570,-5.0960,5.226
28.2250,-0.7650,0.5080,-4.9470,5.032
28.2310,-0.5060,0.5730,-4.6810,4.743
28.2640,-0.4750,0.3130,-4.3020,4.339
28.2650,-0.0750,0.5890,-3.9750,4.019
28.2650,0.6560,1.0000,-3.4020,3.606
28.2710,0.9070,1.3970,-3.8780,4.221
28.2810,1.6160,1.4410,-3.8080,4.381
28.2930,2.5360,0.9890,-3.1650,4.175
28.3000,2.8880,0.8210,-2.7640,4.081
28.3120,1.7600,2.1080,-1.0650,2.945
28.3200,0.3620,2.7640,-0.2290,2.797
28.3300,-1.0280,2.5040,0.1880,2.713
28.3400,-1.7080,2.0670,0.2880,2.697
28.3500,-1.1730,1.5980,0.3970,2.022
28.3600,-1.1190,1.4570,0.8790,2.037
28.3700,-0.9660,1.7750,1.3700,2.441
28.3810,-0.9050,2.1980,1.6450,2.891
28.3900,-0.1340,2.1730,2.1720,3.075
28.4000,1.0110,1.6290,2.4260,3.092
28.4100,1.9480,0.5650,2.4680,3.195
28.4200,3.2510,-1.3890,2.4580,4.306
28.4300,3.7080,-3.3110,1.3180,5.143
28.4400,1.4040,-2.7600,0.7800,3.193
28.4500,1.1830,-2.0930,-0.1180,2.407
28.4600,1.7040,-1.8300,-1.3500,2.842
28.4700,1.5330,-1.2740,-2.2610,3.014
28.4800,0.7100,-0.4300,-3.1650,3.272
28.4910,0.4030,-0.1110,-3.7580,3.781
28.5000,0.4920,0.1570,-4.0470,4.080
28.5100,0.5560,0.4340,-3.8930,3.956
28.5200,0.7470,0.8500,-3.5260,3.703
28.5300,1.1300,1.2540,-3.1310,3.557
28.5410,1.5300,1.4920,-2.7060,3.448
28.5510,1.6060,1.5300,-2.5010,3.343
28.5600,1.2550,1.4950,-2.4130,3.104
28.5700,0.7770,1.3180,-2.3010,2.763
28.5800,0.4990,1.1220,-2.1180,2.448
28.5900,0.2800,1.0390,-1.9780,2.252
28.6010,0.1110,0.9510,-1.8040,2.042
28.6100,-0.0140,1.0180,-1.2660,1.625
28.6200,0.1250,1.0570,-0.6420,1.243
28.6300,0.4380,1.1350,-0.1560,1.227
28.6400,0.7120,1.1230,0.0210,1.330
28.6520,0.7660,1.0380,0.0220,1.290
28.6600,0.6830,0.9950,-0.0640,1.209
28.6700,0.6470,0.8950,-0.1780,1.119
28.6800,0.7290,0.8650,-0.2150,1.151
28.6900,0.9150,1.0500,-0.1430,1.400
28.7010,1.1490,1.4740,-0.3360,1.899
28.7110,0.7970,1.5080,-0.7310,1.856
28.7200,0.5980,1.2450,-1.0680,1.746
28.7300,0.3960,0.9200,-0.5210,1.129
28.7410,-0.0530,1.4610,-0.3950,1.514
28.7500,-0.2090,1.7350,-1.6030,2.371
28.7600,-0.2170,1.0730,-2.7990,3.005
28.7700,-0.3160,1.2970,-3.0210,3.303
28.7800,0.0380,1.6460,-1.9510,2.553
28.7910,0.3140,1.4140,-0.5750,1.558
28.8000,0.4520,0.9290,0.2130,1.055
28.8100,0.7550,0.1770,0.5710,0.963
28.8200,0.4550,0.8500,0.4590,1.068
28.8300,0.4200,1.0070,0.2110,1.111
28.8400,0.4340,1.3460,-0.0440,1.415
28.8510,0.3520,1.1000,-0.1510,1.165
28.8620,0.4280,0.5760,-0.3840,0.814
28.8710,0.5210,0.5320,-0.2970,0.802
28.9420,0.3400,0.8350,0.0390,0.902
28.9470,0.5770,0.7680,-0.0160,0.961
28.9470,0.8560,0.6110,-0.1880,1.068
28.9480,0.8280,0.7950,-0.1690,1.160
28.9480,0.6560,0.6210,-0.2180,0.929
28.9480,0.8150,0.5260,-0.2120,0.993
28.9620,0.8340,0.6900,-0.9670,1.451
28.9700,0.9320,1.0100,-0.9390,1.664
28.9800,0.8840,1.1710,-0.8220,1.682
29.0370,0.6140,1.3980,-0.7660,1.708
29.0380,0.3970,1.3800,-1.0180,1.760
29.0390,0.3240,1.0720,-1.3490,1.753
29.0400,0.4510,0.8160,-1.5550,1.813
29.0400,0.8320,0.6740,-1.6270,1.948
29.0430,1.2310,0.6150,-1.3760,1.946
29.0670,1.2460,0.6660,-1.1090,1.796
29.0680,1.3130,0.6750,-0.7690,1.665
29.0710,1.2690,0.5790,-0.6800,1.552
29.0840,1.0590,0.6680,-0.9530,1.574
29.0910,0.9730,0.7120,-0.6550,1.372
29.1020,0.9090,0.6080,-0.3550,1.150
29.1100,0.8640,0.5540,-0.0790,1.029
29.1200,0.8100,0.6240,0.2350,1.049
29.1310,0.6460,0.7530,0.5130,1.117
29.1400,0.5780,0.8690,0.7020,1.258
29.1500,0.5770,0.8270,0.7890,1.280
29.1600,0.5320,0.8740,0.9190,1.375
29.1700,0.3370,0.8760,1.0710,1.424
29.1810,0.0820,0.7810,0.9710,1.249
29.1900,-0.0050,0.7650,0.9260,1.201
29.1990,0.1410,0.7400,0.5890,0.956
29.2110,0.5420,0.8820,0.0000,1.035
29.2200,1.0360,0.9740,-0.6600,1.568
29.2300,1.4290,1.2020,-1.1430,2.189
29.2400,1.5220,1.1860,-1.2330,2.290
29.2500,1.4730,1.1870,-1.1330,2.205
29.2600,1.2990,1.2180,-1.0590,2.072
29.2700,1.0570,1.2350,-1.0490,1.935
29.2800,0.8490,1.2140,-1.1580,1.880
29.2910,0.6420,1.1820,-1.2800,1.857
29.3010,0.4340,1.1360,-1.2880,1.771
29.3120,0.2470,0.9890,-1.0860,1.489
29.3200,0.2220,1.0180,-0.8020,1.315
29.3310,0.4490,1.1220,-0.4320,1.283
29.3410,0.7440,1.1160,-0.1040,1.345
29.3500,0.4710,1.1600,-0.5400,1.363
29.3600,0.2160,1.0550,-0.7930,1.337
29.3700,0.0600,1.1190,-0.7390,1.342
29.3810,-0.0660,1.2970,-0.5560,1.413
29.3900,-0.0610,1.3510,-0.4170,1.415
29.4010,-0.0690,1.3990,-0.5250,1.496
29.4120,-0.3130,1.4060,-0.6430,1.577
29.4210,-0.3620,1.2850,-0.6210,1.472
29.4300,-0.0060,1.1480,-0.6220,1.306
29.4400,0.5140,1.1410,-0.7080,1.438
29.4510,0.8320,1.2360,-0.9060,1.744
29.4610,1.0520,1.1770,-1.3320,2.065
29.4730,1.1200,1.0560,-1.7060,2.298
29.4810,1.1310,0.9030,-1.7700,2.286
29.4940,1.2770,0.8170,-1.2750,1.981
29.5010,1.4610,0.7780,-0.4020,1.703
29.5110,1.6480,0.7860,0.0170,1.826
29.5220,1.7460,0.6470,0.3930,1.903
29.5310,1.7370,0.4690,0.5500,1.881
29.5400,1.5100,0.2880,0.3950,1.587
29.5550,1.1730,0.1510,0.3260,1.227
29.5620,0.9870,0.0890,0.4680,1.096
29.5700,0.8900,0.0690,0.5290,1.038
29.5810,0.6640,0.1350,0.5130,0.850
29.5900,0.4370,0.2850,0.3770,0.644
29.6010,0.4090,0.4040,0.1870,0.605
29.6160,0.5580,0.5360,0.0230,0.774
29.6230,0.7860,0.7200,-0.0890,1.070
29.6460,1.0210,0.9450,-0.0330,1.392
29.6460,1.2480,1.0340,-0.2040,1.633
29.6510,1.1790,1.0510,-0.8010,1.771
29.6620,1.0350,1.1700,-1.2050,1.973
29.6720,0.9750,1.1390,-1.4140,2.061
29.6810,0.7460,1.0850,-1.1890,1.774
29.6900,0.5460,1.0420,-0.7140,1.376
29.7000,0.4000,0.9990,-0.1860,1.092
29.7130,0.2770,0.9190,0.3900,1.036
29.7200,0.0130,0.9460,0.7130,1.185
29.7340,-0.1800,0.8890,0.7940,1.205
