timestamp,acc_x,acc_y,acc_z
0.059,-0.276,0.024,-0.441
0.079,0.05625000000000013,-0.5545000000000001,0.03075000000000011
0.099,-0.0021000000000000046,0.13940000000000002,0.0703
0.11900000000000001,-0.18744444444444452,-0.06077777777777807,-0.9052222222222233
0.139,-0.27780000000000005,-0.20600000000000013,-2.6774000000000022
0.15900000000000003,-0.4342000000000003,-0.26939999999999986,-3.2091999999999996
0.17900000000000002,-0.02244444444444385,-0.12577777777777763,-1.6878888888888866
0.199,0.3115,-0.24760000000000001,-0.4394
0.21900000000000003,0.5294000000000002,-0.5881000000000004,-0.7585000000000012
0.23900000000000005,0.38539999999999963,-0.3795999999999988,-1.4179000000000017
0.259,0.8108,-0.2992,-1.9022
0.279,1.127,-0.41309090909090906,-2.3797272727272727
0.29900000000000004,0.5846999999999969,-0.6309000000000007,-2.4481999999999995
0.31900000000000006,-0.3465000000000062,-0.4124999999999964,-2.199500000000002
0.339,-0.30118181818181816,-0.544,-2.067181818181818
0.35900000000000004,0.16560000000000077,-1.011400000000001,-2.136000000000001
0.37900000000000006,0.006272727272726569,-1.2462727272727279,-2.216545454545454
0.3990000000000001,-0.3350000000000012,-1.5362000000000013,-2.4078000000000017
0.4190000000000001,-0.8076666666666694,-1.7490000000000014,-3.1833333333333558
0.43900000000000006,-0.6475555555555551,-1.9924444444444456,-4.852222222222227
0.4590000000000001,-0.6007999999999994,-2.533600000000002,-5.5360000000000005
0.4790000000000001,-0.6265555555555574,-2.6778888888888877,-4.69866666666666
0.49900000000000005,-0.4542727272727261,-2.737,-4.4363636363636365
0.5190000000000001,-0.6215000000000203,-2.5914999999999924,-3.9437499999999868
0.5390000000000001,-1.3742222222222213,-2.103444444444447,-4.057333333333338
0.5590000000000002,-1.704800000000004,-3.320600000000004,-4.2129999999999965
0.5790000000000002,-2.180466666666669,-3.512266666666668,-3.0146666666666566
0.5990000000000002,-1.8089090909090806,-3.340363636363633,-2.344272727272728
0.619,-0.8238888888888889,-3.6340000000000003,-3.758222222222222
0.639,-0.1898571428571429,-4.588571428571429,-3.542
0.659,0.3313333333333333,-5.190666666666666,-0.8216666666666665
0.679,1.1226363636363637,-5.581818181818182,0.8763636363636362
0.6990000000000001,2.357818181818187,-5.98209090909091,1.9079090909090977
0.7190000000000001,2.4971111111111095,-5.850666666666665,3.3338888888888962
0.7390000000000001,1.9547142857142816,-5.537571428571424,3.8025714285714285
0.7590000000000001,1.910533333333335,-5.396733333333333,3.5486666666666644
0.7790000000000001,2.427600000000002,-5.2057,2.4570999999999934
0.7990000000000002,2.8598000000000026,-5.710000000000004,1.5187999999999953
0.8190000000000002,4.212800000000021,-6.499700000000008,1.346500000000001
0.8390000000000002,6.638100000000027,-6.585799999999999,1.8401000000000074
0.8590000000000002,9.31522222222225,-5.54177777777776,2.9136666666666793
0.8790000000000002,10.64472727272728,-4.171272727272711,4.0350000000000135
0.8990000000000002,10.989571428571427,-2.1175714285713965,5.702714285714311
0.9190000000000003,9.919555555555538,-1.4307777777777775,6.438222222222225
0.9390000000000001,9.228099999999992,-1.823100000000005,4.95189999999999
0.9590000000000001,7.563727272727262,-2.164818181818185,3.512272727272722
0.9790000000000001,5.1364999999999865,-2.3332999999999986,4.005700000000005
0.9990000000000001,2.5845555555555397,-0.9728888888888774,4.834000000000003
1.0190000000000001,1.1995999999999947,1.0433000000000097,4.407299999999995
1.0390000000000001,0.2325999999999936,2.6551000000000093,3.048999999999992
1.0590000000000002,-0.6939000000000038,3.8028000000000044,1.6295999999999928
1.0790000000000002,-0.8278000000000002,4.0062,0.21789999999999154
1.0990000000000002,-0.5482222222222194,3.4253333333333282,-0.5760000000000027
1.1190000000000002,0.1757000000000047,2.006099999999991,-0.5808999999999992
1.1390000000000002,-0.16233333333334987,1.2323333333333273,-0.5414444444444443
1.1590000000000003,-0.9043000000000103,0.9516999999999949,-0.24779999999999308
1.179,-0.9501999999999984,1.086600000000002,0.6450000000000063
1.199,-0.5412,1.5018,2.0869999999999997
1.219,-1.2264444444444513,2.6620000000000075,3.6563333333333405
1.239,-2.8961818181818195,4.394545454545456,4.249818181818182
1.2590000000000001,-4.004090909090916,6.54490909090911,4.779636363636369
1.2790000000000001,-4.004399999999998,7.897700000000004,5.255200000000001
1.2990000000000002,-3.22736363636363,6.846727272727257,4.293636363636344
1.3190000000000002,-5.696666666666692,6.225333333333331,1.6926666666666503
1.3390000000000002,-4.574333333333307,2.870777777777744,-1.5664444444444667
1.3590000000000002,0.7302000000000304,-1.7203000000000221,-2.9409000000000045
1.3790000000000002,5.198300000000062,-4.462700000000038,-1.888099999999969
1.3990000000000002,11.46930000000011,-9.192100000000083,1.6440000000000583
1.4190000000000003,11.302999999999948,-11.80600000000001,2.9679999999999693
1.4390000000000003,6.732399999999928,-12.998800000000026,-1.2387000000001
1.4590000000000003,5.592100000000001,-14.574100000000021,-6.45860000000007
1.4790000000000003,8.102700000000043,-16.615800000000032,-6.275299999999964
1.4990000000000003,10.561700000000034,-19.29950000000006,-1.9604999999999224
1.5190000000000001,9.646099999999988,-21.92810000000001,1.8486000000000193
1.5390000000000001,6.100699999999979,-20.412499999999984,3.9152000000000102
1.5590000000000002,4.356307692307683,-15.506076923076877,5.1119230769230795
1.5790000000000002,2.5814545454545326,-7.752545454545418,2.15354545454543
1.5990000000000002,-2.2748181818182402,-1.5287272727272128,-1.704636363636392
1.6190000000000002,-8.211900000000027,4.9184000000000365,-0.7220999999999864
1.6390000000000002,-10.46020000000004,13.380900000000153,3.6191000000000715
1.6590000000000003,-10.620499999999963,18.685500000000026,4.114899999999978
1.6790000000000003,-4.972545454545391,11.612909090908984,-0.06627272727279054
1.6990000000000003,-4.554400000000005,7.864599999999937,-1.7137000000000122
1.7190000000000003,-5.448777777777793,4.4999999999999485,-0.4339999999999573
1.7390000000000003,-5.8360000000000065,3.0129999999999844,3.8678888888889764
1.7590000000000003,-6.309800000000005,3.460400000000012,7.1971000000000345
1.7790000000000004,-5.628999999999977,4.302000000000019,6.1469999999999665
1.7990000000000004,-4.592999999999996,5.525000000000031,4.352999999999969
1.8190000000000002,-4.692000000000016,6.633000000000005,2.9649999999999794
1.8390000000000002,-6.459727272727286,7.086727272727275,1.1860909090908986
1.8590000000000002,-8.654000000000016,7.204999999999998,-0.604000000000019
1.8790000000000002,-9.54099999999999,7.078999999999999,-2.098000000000006
1.8990000000000002,-8.213999999999986,7.0360000000000005,-2.3519999999999937
1.9190000000000003,-7.501999999999995,7.398000000000006,-1.5259999999999891
1.9390000000000003,-6.697999999999995,7.863000000000003,-0.5769999999999955
1.9590000000000003,-6.621000000000007,8.067999999999998,-0.26100000000000007
1.9790000000000003,-7.44900000000001,7.905,-0.32199999999999884
1.9990000000000003,-7.900999999999992,7.877999999999997,-0.08099999999999594
2.0190000000000006,-7.137181818181796,7.489363636363624,0.18381818181818643
2.0390000000000006,-6.873999999999936,5.777999999999877,-0.3890000000000054
2.0590000000000006,-2.5403999999998237,-0.9607000000002368,-0.6499000000000081
2.0790000000000006,6.850700000000305,-9.923300000000264,-0.03929999999997269
2.0990000000000006,15.189000000000032,-16.317000000000032,-1.2959999999999545
2.1190000000000007,16.28699999999997,-18.38900000000001,3.1120000000000623
2.1390000000000007,13.085999999999807,-16.668384615384472,4.6764615384615515
2.1590000000000007,4.765909090908927,-12.16445454545449,4.727727272727257
2.1790000000000007,3.3440000000000483,-11.652999999999892,2.6589999999998692
2.1990000000000007,5.039000000000163,-9.537999999999956,-0.38400000000016743
2.2190000000000007,8.531000000000061,-8.467999999999936,-3.6890000000000724
2.2390000000000008,9.079999999999913,-6.824999999999929,-4.972999999999995
2.259000000000001,6.665090909090769,-5.357090909090844,-4.5807272727272395
2.279000000000001,1.9949999999998436,-4.242999999999934,-3.642999999999948
2.2990000000000004,-1.1699999999999886,-2.333999999999975,-1.9569999999999703
2.3190000000000004,-0.09299999999996984,-1.416999999999974,-0.8739999999999812
2.3390000000000004,0.7606153846153899,-0.2576153846153668,-0.027153846153833094
2.3590000000000004,-0.40400000000004843,1.388000000000026,1.1540000000000055
2.3790000000000004,-2.48500000000002,2.569000000000017,1.065999999999979
2.3990000000000005,-2.9889999999999946,3.2720000000000127,0.024999999999978817
2.4190000000000005,-2.79299999999999,3.879000000000013,-0.8930000000000151
2.4390000000000005,-2.2706666666666475,4.297500000000009,-1.4623333333333486
2.4590000000000005,-1.6009999999999895,4.364999999999998,-2.0010000000000026
2.4790000000000005,-1.1119999999999925,4.122999999999988,-1.9349999999999923
2.4990000000000006,-0.8459999999999956,3.444999999999981,-1.5229999999999921
2.5190000000000006,-0.5929999999999933,2.3289999999999735,-1.0789999999999909
2.5390000000000006,-0.232999999999986,1.1458333333332948,-0.6876666666666541
2.5590000000000006,0.3710000000000107,-0.15500000000001932,-0.03399999999998348
2.5790000000000006,0.6299999999999948,-0.8680000000000028,0.6740000000000151
2.5990000000000006,0.26399999999998847,-0.8309999999999895,1.6390000000000218
2.6190000000000007,-0.1973636363636405,-0.3702727272727091,2.6786363636363966
2.6390000000000007,-0.15199999999998792,0.14900000000002273,3.44400000000001
2.6590000000000007,0.1630000000000146,0.6430000000000147,3.3779999999999584
2.6790000000000007,0.42400000000001614,0.9169999999999978,2.3099999999999383
2.6990000000000007,0.8880000000000123,0.7259999999999944,0.8459999999999489
2.7190000000000007,1.206000000000028,0.5839999999999772,-0.15200000000002947
2.7390000000000008,1.8228333333333535,0.06383333333331576,-0.6973333333333476
2.759000000000001,2.3445454545454716,-0.5174545454545664,-1.0610000000000115
2.779000000000001,2.1109999999999682,-0.40299999999998226,-1.1009999999999882
2.799000000000001,1.21499999999997,0.09600000000002003,-0.6649999999999651
2.819000000000001,0.3640909090908823,0.6520909090909199,0.22163636363638253
2.839000000000001,-0.13611111111112306,0.759666666666664,0.4807777777777788
2.859000000000001,-0.2003999999999885,0.4495999999999902,0.2525999999999909
2.879000000000001,0.28300000000001174,0.3809999999999991,-0.3410000000000212
2.899000000000001,0.4249999999999927,0.4418181818181914,-0.6989090909090868
2.919000000000001,0.28369999999999895,0.5953999999999979,-0.4498999999999791
2.939000000000001,0.11499999999996835,0.5449999999999824,0.04400000000000557
2.9590000000000005,-0.9591000000000175,-0.07490000000001949,-0.2824000000000183
2.9790000000000005,-1.8297000000000123,-1.272200000000017,-1.192800000000005
2.9990000000000006,-2.2439999999999882,-1.9870000000000085,-1.2389999999999937
3.0190000000000006,-1.261399999999961,-2.2873000000000085,-0.8336999999999779
3.0390000000000006,-0.5169230769230604,-2.478692307692313,-0.37453846153845005
3.0590000000000006,-0.9179000000000429,-2.2528999999999733,0.337700000000042
3.0790000000000006,-2.16581818181823,-1.5172727272727082,1.4062727272727629
3.0990000000000006,-3.5033000000000367,-1.0366999999999855,2.1849000000000043
3.1190000000000007,-4.1645,-0.7005999999999853,1.9967999999999764
3.1390000000000007,-3.957642857142843,-0.43407142857142245,1.4959999999999853
3.1590000000000007,-2.6349999999999114,-0.5930000000000267,0.8099999999999459
3.1790000000000007,-0.6993636363635746,-1.2360909090909316,-0.621909090909153
3.1990000000000007,0.7130000000000157,-1.7030000000000054,-2.1660000000000434
3.2190000000000007,0.7200769230768987,-1.793923076923077,-2.819461538461527
3.2390000000000008,0.09899999999997222,-1.7769999999999981,-2.3829999999999707
3.259000000000001,-0.46560000000002205,-1.7042999999999835,-1.3180999999999683
3.279000000000001,-0.9030833333333435,-1.338249999999988,-0.5297499999999741
3.299000000000001,-1.2249000000000096,-0.9459999999999824,0.16380000000002065
3.319000000000001,-1.4262999999999995,-0.4569999999999744,0.6966000000000213
3.339000000000001,-1.3903846153846136,0.08400000000001653,1.1526153846153986
3.359000000000001,-1.0122999999999738,0.7076000000000117,1.5340000000000007
3.379000000000001,-0.3839999999999791,0.9990000000000107,1.391999999999974
3.399000000000001,0.11780000000001983,1.2004000000000035,0.6083999999999667
3.419000000000001,0.7835555555555939,1.1955555555555544,-0.09233333333335017
3.439000000000001,1.472000000000027,1.2037142857142875,-0.37700000000001027
3.459000000000001,2.162000000000027,1.159999999999995,-0.5120000000000102
3.479000000000001,2.7010000000000063,1.0209999999999944,-0.8240000000000132
3.499000000000001,2.7789999999999986,0.9451000000000008,-1.0926000000000038
3.519000000000001,2.6552999999999822,0.9674999999999994,-1.086399999999992
3.539000000000001,2.3893076923076793,0.9477692307692293,-0.9457692307692227
3.559000000000001,1.8290999999999462,0.7175999999999791,-1.2039000000000286
3.5790000000000006,0.8241818181817815,0.3907272727272602,-1.6786363636363701
3.5990000000000006,-0.060000000000020384,0.10029999999999645,-1.654799999999981
3.6190000000000007,-0.442000000000003,-0.03420000000001072,-1.0297999999999772
3.6390000000000007,-0.5687500000000045,-0.1968333333333351,-0.5957499999999918
3.6590000000000007,-0.783750000000004,-0.21158333333333357,-0.5855833333333352
3.6790000000000007,-0.7285999999999914,-0.18740000000000107,-0.8229000000000121
3.6990000000000007,-0.3534999999999872,-0.36100000000000965,-1.193833333333345
3.7190000000000007,-0.053363636363631964,-0.7025454545454631,-1.5885454545454611
3.7390000000000008,0.0012307692307688316,-0.9083076923076975,-1.6903076923076927
3.759000000000001,-0.2579000000000175,-1.2330000000000072,-1.4707999999999903
3.779000000000001,-0.7568461538461498,-1.4260769230769539,-1.1965384615384493
3.799000000000001,0.16350000000008516,-3.358100000000128,-0.8344999999999971
3.819000000000001,2.1080000000000196,-6.193454545454568,-0.8276363636363603
3.839000000000001,1.7189999999998988,-5.048999999999817,-0.35899999999990734
3.859000000000001,-0.5306000000000948,-1.4999999999998703,1.717500000000086
3.879000000000001,-2.4416000000000078,1.6638000000001014,3.668800000000051
3.899000000000001,-1.8953999999999245,3.686700000000026,4.338199999999974
3.919000000000001,0.26630000000009774,3.8289999999999735,3.1664999999999117
3.939000000000001,2.363000000000043,3.0219999999999376,0.9029999999998288
3.959000000000001,2.7829999999999546,1.8179999999999463,-2.2200000000001374
3.979000000000001,1.4185384615384085,0.7866153846153497,-4.591846153846176
3.999000000000001,-0.25160000000005084,-0.3453000000000314,-4.710099999999951
4.019000000000001,-1.1638888888888852,-0.8747777777777929,-3.235888888888763
4.039000000000001,-0.9749999999999964,-1.0220000000000011,-1.4479999999999071
4.059000000000001,-0.9379999999999974,-0.905999999999973,0.1830000000000735
4.079000000000001,-0.7086363636363525,-0.24609090909089784,1.4430000000000098
4.099000000000001,0.11972727272729725,0.526727272727298,1.752545454545441
4.119000000000001,0.6079090909090905,1.0650909090909153,1.1349090909090616
4.139000000000001,0.31899999999997325,1.1669999999999752,-0.003000000000093259
4.159000000000001,-0.06600000000002232,0.7009999999999876,-1.578000000000059
4.179000000000001,-0.3705454545454419,0.41109090909088497,-2.584363636363666
4.199000000000001,-0.20909090909091269,0.0404545454545414,-2.8899999999999912
4.219000000000001,-0.3356363636363741,-0.07090909090909928,-2.2969090909090255
4.239000000000001,-0.3401666666666636,-0.10166666666666568,-1.3887499999999717
4.259000000000001,0.05500000000001932,0.19200000000001255,-0.4599999999999799
4.279000000000001,0.28349999999999453,0.38014285714286333,-0.23257142857143168
4.299000000000001,0.156333333333321,0.4796666666666768,-0.3398333333333421
4.319000000000001,-0.0022000000000014916,0.6202000000000019,-0.5136000000000105
4.339000000000001,0.05557142857143567,0.6427142857142859,-0.7648571428571556
4.359000000000001,0.8038000000000234,0.41199999999999337,-0.9732000000000056
4.379000000000001,1.6772727272727175,0.7263636363637195,-1.788272727272788
4.399000000000001,0.9621999999999408,1.9320000000000308,-2.374199999999995
4.419000000000001,-1.154000000000247,2.8538000000001,-1.894199999999942
4.439000000000001,-3.8900000000000765,4.140384615384656,-1.4008461538461434
4.459000000000001,-6.366000000000078,5.536142857142894,-0.802285714285677
4.479000000000001,-6.238999999999992,4.627999999999981,-0.2490000000000205
4.499000000000001,-6.031599999999957,4.693000000000026,-0.5283999999999627
4.519000000000001,-5.482799999999987,4.506999999999964,0.28040000000004595
4.539000000000001,-5.160888888888877,3.1975555555555175,1.5722222222222455
4.559000000000001,-3.116555555555226,1.069888888888672,2.0147777777776885
4.579000000000001,2.046076923077047,-2.714538461538576,0.37892307692304855
4.599000000000001,6.367363636363776,-7.275545454545599,-0.29218181818182715
4.619000000000001,10.221090909091046,-9.733545454545487,-1.5737272727274287
4.639000000000001,11.751076923076972,-10.921769230769339,-4.740384615384841
4.659000000000001,10.143999999999979,-14.606000000000224,-5.232999999999778
4.679000000000001,11.006692307692417,-18.92823076923097,-1.2283076923076237
4.699000000000001,11.670599999999961,-20.8606,-0.8283999999999841
4.719000000000001,9.792666666666408,-20.556333333333207,-0.12216666666658538
4.739000000000001,5.5291999999999035,-17.688399999999856,1.6426000000000531
4.759000000000001,3.6514999999999547,-13.142599999999655,1.6620999999998223
4.779000000000001,2.600999999999933,-7.4147272727271085,-1.976909090909175
4.799000000000001,-0.03725000000021761,-2.700999999999689,-2.9062499999999685
4.819000000000001,-5.652600000000171,4.6582000000003,1.1486000000001526
4.839000000000001,-10.23588888888913,13.326444444445011,5.247666666666906
4.859000000000001,-11.225999999999818,17.70939999999975,7.128799999999883
4.879000000000001,-6.697999999999923,9.678727272726917,1.5195454545449012
4.899000000000001,-5.726888888888806,5.76233333333313,-5.82533333333375
4.919000000000001,-4.14219999999985,3.56640000000006,-9.271399999999621
4.939000000000001,-2.6536666666666235,5.068400000000047,-2.2966666666662947
4.959000000000001,-2.3108750000000495,5.272749999999986,5.641687500000108
4.979000000000001,-4.47988888888905,5.75700000000012,7.747555555555547
4.999000000000001,-6.289800000000032,7.166000000000031,6.34639999999973
5.019000000000001,-6.9862000000000615,7.379599999999994,2.5849999999998516
5.0390000000000015,-8.922000000000198,7.109999999999974,-1.0480000000003182
5.059000000000001,-10.05766666666657,6.940888888888888,-3.9097777777778533
5.0790000000000015,-7.799799999999812,7.042600000000049,-4.106199999999876
5.099000000000001,-5.5197499999999,7.486000000000003,-2.0717499999998963
5.1190000000000015,-3.770999999999929,7.851100000000062,-0.1207999999998913
5.139000000000001,-3.646000000000076,8.498000000000028,0.5879999999999849
5.159000000000002,-5.638000000000139,8.531181818181745,-0.0474545454546064
5.179000000000001,-6.931800000000068,7.860199999999973,-0.49180000000001195
5.199000000000001,-7.625272727272732,7.6365454545454545,-0.49163636363634866
5.219000000000001,-7.269222222222105,7.552333333333312,-0.08266666666663311
5.239000000000001,-4.782333333333173,5.98799999999981,-0.11711111111113919
5.259000000000001,1.3790000000002942,-3.6210000000006053,-2.146000000000127
5.279000000000001,7.232000000000142,-14.14525000000009,-3.000999999999913
5.299000000000001,12.277363636363921,-15.755909090909267,0.5130909090910616
5.319000000000001,15.602999999999811,-18.286272727272568,1.2351818181816705
5.339000000000001,9.595999999999558,-14.413999999999882,-1.1020000000000056
5.359000000000001,2.138272727272544,-13.471999999999976,-0.5992727272726973
5.379000000000001,0.993818181818382,-12.444090909090848,-0.689000000000092
5.399000000000001,5.024454545454677,-11.131545454545357,-2.5490909090909737
5.419000000000001,7.042000000000008,-8.43549999999984,-3.1907499999999684
5.439000000000001,6.673937499999961,-6.1656249999999115,-2.584374999999968
5.459000000000001,4.08821428571413,-3.2569285714284315,-1.258571428571371
5.479000000000001,1.6189999999999456,-0.8622999999999256,-0.7658000000000272
5.499000000000001,0.6398999999999374,0.5830000000000768,-1.4605000000000388
5.519000000000001,-0.7043333333334024,1.854333333333384,-1.826666666666664
5.5390000000000015,-1.8048750000000866,2.6511250000000515,-1.7071249999999831
5.559000000000001,-3.025727272727311,3.347909090909114,-1.4923636363636292
5.5790000000000015,-3.6944545454545374,3.748181818181816,-1.424454545454558
5.599000000000001,-3.1683999999999464,3.470299999999964,-1.5178000000000058
5.6190000000000015,-2.453799999999974,2.8473999999999458,-1.6235999999999817
5.639000000000001,-2.1797857142856962,2.26357142857139,-1.2072142857142492
5.659000000000002,-1.398299999999948,1.0735999999999262,-0.18059999999991258
5.679000000000001,-0.9582727272727167,0.43190909090907115,0.7863636363636678
5.699000000000002,-0.6674545454545228,0.04954545454542332,1.243909090909094
5.719000000000001,-0.8146250000000436,-0.29950000000002014,1.1476249999999861
5.739000000000002,-1.1859999999999622,-0.4400000000000132,0.9629999999999781
5.759000000000001,-0.729666666666626,-0.5026666666666579,0.8365555555555515
5.779000000000002,-0.19839999999997227,-0.2724999999999736,0.7436999999999823
5.799000000000001,0.024300000000007566,-0.07779999999999318,0.48509999999998266
5.819000000000002,0.2022000000000125,0.03450000000000489,0.17799999999997068
5.839000000000001,0.23159999999999917,0.10160000000000981,-0.12390000000001204
5.859000000000001,0.2292500000000002,0.23343750000000402,-0.2801875000000046
5.879000000000001,0.12381818181818578,0.5167272727272787,-0.5198181818181978
5.899000000000001,0.1560999999999965,0.5705000000000048,-0.8203000000000119
5.919000000000001,-0.04100000000001598,0.6284999999999984,-0.8873999999999913
5.939000000000001,-0.1738888888888722,0.5858888888888769,-0.6124444444444177
5.959000000000001,0.12350000000002381,0.4141249999999928,-0.3184999999999896
5.979000000000001,0.4773000000000225,0.2663999999999891,-0.2718000000000081
5.999000000000001,0.9971000000000295,-0.09930000000002676,-0.4190000000000032
6.019000000000001,1.2749090909090828,-0.3329999999999858,-0.4553636363636352
6.0390000000000015,1.0006999999999509,0.018100000000028184,-0.3997999999999993
6.059000000000001,0.3447499999999656,0.32600000000001633,-0.42275000000000695
6.0790000000000015,-0.5333846153846548,0.8372307692307998,-0.600615384615393
6.099000000000001,-1.2216000000000375,1.5553000000000512,-0.6347999999999889
6.1190000000000015,-1.8260000000000562,2.491000000000156,-0.4029999999999566
6.139000000000001,-2.0076666666666596,3.7621111111111842,0.010222222222247557
6.159000000000002,-2.0663333333333673,4.6040000000000765,0.05533333333329149
6.179000000000001,-2.607000000000031,5.390200000000034,-0.3428000000000241
6.199000000000002,-3.0070000000000103,5.9815454545454845,-0.7333636363636429
6.219000000000001,-2.672909090909025,6.395181818181818,-0.787545454545467
6.239000000000002,-1.5979999999998746,6.221999999999839,-1.3750000000001108
6.259000000000001,-0.40799999999994474,4.326666666666505,-2.119000000000032
6.279000000000002,0.7547000000001307,1.423199999999686,-2.3484
6.299000000000001,2.710181818181996,-2.465909090909367,-2.6925454545454888
6.319000000000002,6.512363636363914,-7.434636363636688,-2.04372727272707
6.339000000000001,9.538100000000133,-9.987100000000055,1.961200000000254
6.359000000000002,11.153857142857152,-11.556000000000136,4.309142857142741
6.379000000000001,9.808333333333225,-14.57300000000018,0.02406666666639845
6.399000000000002,8.449000000000055,-18.186333333333643,-4.794333333333562
6.419000000000001,9.766777777777934,-20.708444444444485,-5.5686666666664735
6.439000000000002,9.746399999999753,-19.889599999999753,-1.398999999999442
6.459000000000001,7.5952499999997585,-17.36824999999975,3.267750000000265
6.479000000000001,4.439454545454324,-14.43272727272709,4.925818181818201
6.499000000000001,-0.11960000000034943,-10.036599999999575,4.814999999999985
6.519000000000001,-4.569818181818403,-3.4173636363632336,4.582090909090866
6.5390000000000015,-9.940800000000467,4.744200000000706,2.730399999999849
6.559000000000001,-14.725000000000097,14.722000000000426,1.27399999999995
6.5790000000000015,-12.441727272726816,18.001999999999686,-0.25500000000016665
6.599000000000001,-6.76536363636355,10.6098181818178,-3.660272727272891
6.6190000000000015,-6.0293636363635885,6.120818181818024,-4.704909090909025
6.639000000000001,-4.998999999999968,4.33979999999998,-1.6679999999996298
6.659000000000002,-4.959000000000043,4.294999999999981,2.802000000000459
6.679000000000001,-5.166666666666657,3.6333333333333186,7.244333333333391
6.699000000000002,-4.876818181818176,4.327363636363737,7.041999999999879
6.719000000000001,-5.163545454545495,6.292818181818288,4.2037272727271136
6.739000000000002,-5.889500000000088,8.104500000000147,1.6469999999997684
6.759000000000001,-6.579500000000021,9.104700000000005,-0.7670000000001258
6.779000000000002,-6.816700000000035,8.887799999999944,-3.2028000000002512
6.799000000000001,-7.078181818181795,8.116999999999951,-5.4002727272728
6.819000000000002,-6.381799999999938,7.957200000000028,-5.00759999999985
6.839000000000001,-5.867181818181793,8.153636363636362,-2.541454545454401
6.859000000000002,-6.035400000000079,8.581000000000067,-0.43259999999989324
6.879000000000001,-7.331200000000091,9.08679999999998,0.46239999999999876
6.899000000000002,-7.873727272727223,8.526818181818099,0.5338181818182438
6.919000000000001,-6.857999999999931,7.5793333333332855,1.4663333333333985
6.939000000000002,-5.424599999999723,5.681999999999554,1.6951999999999234
6.959000000000001,-1.2553636363632816,-1.5749090909097292,0.6593636363635754
6.979000000000002,4.26220000000061,-9.701800000000732,0.0009999999999013576
6.999000000000001,10.153800000000306,-15.401800000000256,-1.0424000000000442
7.019000000000002,13.013400000000141,-18.826600000000248,-0.15539999999977738
7.0390000000000015,11.135799999999593,-16.62299999999951,2.2500000000001847
7.059000000000002,4.764799999999382,-11.021399999999703,4.044000000000053
7.0790000000000015,0.5173636363635163,-9.842999999999995,3.638090909090807
7.099000000000001,0.16818181818192873,-9.553636363636349,0.5636363636360884
7.1190000000000015,3.02820000000025,-9.182199999999932,-3.7620000000002074
7.139000000000001,6.238181818181922,-7.495909090908946,-5.453636363636392
7.159000000000002,7.33599999999999,-5.086999999999852,-4.759799999999849
7.179000000000001,5.737727272727128,-3.5999999999999313,-2.11263636363622
7.199000000000002,3.205636363636218,-2.287818181818084,0.22381818181832772
7.219000000000001,1.9603999999999517,-1.2231999999999343,1.5146000000000355
7.239000000000002,1.1609999999999403,-0.3061999999999414,1.4689999999999572
7.259000000000001,0.4887999999999736,0.28360000000001656,0.9583999999999819
7.279000000000002,-0.30354545454548465,0.7106363636363764,0.45672727272725044
7.299000000000001,-0.5292000000000054,0.7900000000000057,0.18179999999997684
7.319000000000002,-0.5067999999999796,0.9074000000000002,-0.2796000000000411
7.339000000000001,-0.33954545454545537,1.1386363636363894,-0.6481818181818383
7.359000000000002,-0.5150000000000278,1.4026666666666885,-1.0906666666666929
7.379000000000001,-0.8063076923077054,1.7131538461538567,-1.1581538461538323
7.399000000000002,-1.2718000000000416,1.8866000000000007,-0.7349999999999698
7.419000000000001,-1.7562000000000366,1.7141999999999713,-0.7566000000000347
7.439000000000002,-2.204666666666702,1.233999999999941,-1.1766666666666843
7.459000000000001,-2.238666666666644,0.5489999999999493,-1.1233333333333142
7.479000000000002,-1.7967999999999593,-0.25960000000006334,-0.5505999999999256
7.499000000000001,-1.531636363636352,-0.7549090909091098,0.18645454545458984
7.519000000000002,-1.394333333333312,-0.8519999999999847,0.8536666666667245
7.5390000000000015,-1.147099999999971,-0.639199999999972,1.2132000000000158
7.559000000000002,-0.8675999999999959,-0.2137999999999437,1.347400000000005
7.5790000000000015,-0.9773636363636494,0.4520000000000401,1.3718181818181734
7.599000000000002,-1.0736666666666592,1.0270000000000357,1.0259999999999527
7.6190000000000015,-0.46645454545440024,0.8010909090907741,0.4299999999999239
7.639000000000002,0.9892000000000412,-1.1720000000001687,-0.8762000000001843
7.659000000000002,0.41099999999992254,-1.7235999999999707,-1.7231999999999679
7.679000000000002,-0.3320000000000253,-1.1537499999999605,-0.4234999999998359
7.699000000000002,-0.6516000000000276,-0.8513999999999888,1.2994000000000812
7.719000000000002,-1.1550000000001386,-0.6059999999999218,2.0740000000000585
7.739000000000002,-2.0666000000000246,-0.11919999999998337,2.117599999999961
7.759000000000001,-1.9867272727272471,0.18572727272730266,1.4239999999999509
7.779000000000002,-1.4263333333332555,0.7038888888889333,0.5194444444443207
7.799000000000001,-0.361555555555482,1.1100000000000179,-1.0085555555556407
7.819000000000002,0.5213333333334005,1.3603333333333585,-1.98733333333341
7.839000000000001,0.9724000000000166,1.6180000000000079,-2.5314000000000245
7.859000000000002,1.192333333333342,1.5819999999999732,-2.621333333333315
7.879000000000001,1.180153846153844,1.2592307692307465,-2.166999999999955
7.899000000000002,1.202500000000001,0.644999999999951,-1.0724999999998945
7.919000000000001,0.9665555555555257,0.26744444444442683,-0.028888888888837005
7.939000000000002,0.5279999999999645,0.029999999999988983,0.5415000000000378
7.959000000000001,0.2541111111111025,0.07200000000001067,0.8697777777777866
7.979000000000002,0.3156153846154135,0.3613076923077136,0.6769230769230418
7.999000000000001,0.7597272727273001,0.6803636363636507,0.06027272727268829
8.019000000000002,1.341875000000088,0.9023750000000336,-0.43387500000002804
8.039000000000001,1.9135000000000217,1.1570000000000062,-0.6375000000000068
8.059000000000001,2.1159999999999863,1.2095000000000036,-0.6044999999999925
8.079,1.5766666666666338,1.2496666666666678,-0.44099999999999673
8.099,1.1774999999999958,1.1239999999999886,-0.3830000000000016
8.119000000000002,1.1033636363636228,0.7540909090908918,-0.3093636363636185
8.139000000000001,0.7134999999999786,0.5809999999999895,0.07500000000001635
8.159,0.20174999999998278,0.3496249999999951,0.2570000000000022
8.179,-0.3313846153846085,0.23246153846153944,0.2740769230769244
8.199000000000002,-0.5454999999999969,0.11099999999999219,0.06799999999998793
8.219000000000001,-0.49100000000000116,0.08633333333333768,-0.15666666666668186
8.239,-0.5267777777777748,0.026555555555537652,-0.16522222222221578
8.259,-0.3623333333333302,-0.5997777777777994,-0.08488888888888699
8.279000000000002,-0.4314705882352914,-0.6471764705882167,0.0770000000000117
8.299000000000001,-0.25390909090907904,-0.14481818181815515,0.15099999999999272
8.319,-0.3210000000000075,0.14600000000000551,-0.08550000000001376
8.339,-0.23749999999998375,0.03599999999998134,-0.3180000000000075
8.359000000000002,0.2594444444444884,-0.6310000000000675,-0.3848888888888868
8.379000000000001,0.8362352941176638,-1.7140000000000455,-0.5468235294117796
8.399000000000001,1.0429999999999977,-2.642000000000022,-0.8760000000000016
8.419,0.8439090909090858,-2.5936363636363575,-0.4762727272727155
8.439,0.35880000000001055,-1.881400000000016,0.39979999999998195
8.459000000000001,-0.1134545454545546,-1.1400909090908828,1.3330909090909484
8.479000000000001,0.08050000000001675,-1.0436428571428662,1.6903571428571327
8.499,0.3463636363636323,-1.0419090909090778,0.7939999999999645
8.519,-0.002,-0.519,0.159
8.539000000000001,-0.6545000000000202,0.274000000000048,0.07399999999998225
8.559000000000001,-0.595727272727266,0.5198181818181855,-0.6079090909091205
8.579,-0.3446666666666606,0.5263333333333291,-1.2400000000000004
8.599,-0.3180000000000048,0.9205000000000411,-0.2004999999999182
8.619000000000002,-0.29490909090908196,1.8483636363637015,1.4152727272728212
8.639000000000001,-0.1587272727272763,3.2183636363637436,2.4600000000000306
8.659,-1.1605555555556166,4.8444444444444965,2.2084444444444227
8.679,-2.930705882352967,6.345470588235317,1.6216470588235234
8.699000000000002,-5.18281818181832,7.791909090909145,1.5366363636364033
8.719000000000001,-7.9270000000001275,8.31150000000001,0.8844999999999246
8.739,-9.467000000000011,8.34499999999998,-1.019500000000109
8.759,-8.822599999999987,6.299799999999951,-3.428200000000034
8.779000000000002,-8.535176470588167,4.403352941176337,-4.683882352941217
8.799000000000001,-5.666799999999735,0.6993999999997447,-3.8027999999998934
8.819,2.1620000000004183,-6.087500000000358,-1.9059999999999215
8.839,14.435500000000001,-15.721499999999999,-0.38050000000000006
8.859000000000002,20.094800000000152,-17.385799999999648,0.1804000000001555
8.879000000000001,18.56333333333303,-14.42858333333314,-0.25741666666683594
8.899000000000001,12.801999999999726,-14.871000000000244,-3.41050000000014
8.919,7.699374999999867,-21.567375000000204,-5.852500000000066
8.939000000000002,3.198555555555255,-25.366222222222156,-7.219777777777686
8.959000000000001,2.6630000000000034,-23.65049999999989,-4.198499999999729
8.979000000000001,1.7403529411764398,-20.57358823529405,3.184705882353051
8.999,-0.50727272727274,-12.867545454545398,9.043272727272727
9.019,-2.1368571428571794,-6.393857142857021,5.631428571428469
9.039000000000001,-5.563545454545739,0.756636363636848,0.9576363636362101
9.059000000000001,-8.8245000000001,8.27100000000035,0.7310000000000408
9.079,-10.523142857142874,15.459428571428834,2.0072857142857963
9.099,-5.804199999999849,17.947799999999916,3.3397999999999834
9.119000000000002,-1.1899999999999964,10.66449999999966,0.6144999999998508
9.139000000000001,-4.278500000000223,5.919499999999861,-1.9655000000001026
9.159,-5.584199999999981,4.378999999999995,-1.710199999999951
9.179,-4.116199999999973,5.097200000000013,2.519200000000074
9.199000000000002,-3.065000000000031,4.672599999999916,4.147199999999917
9.219000000000001,-4.604500000000101,4.806000000000044,3.142499999999976
9.239,-6.717272727272785,6.138909090909129,3.140727272727277
9.259,-8.069187500000021,7.120875000000024,3.013749999999985
9.279000000000002,-8.599400000000037,7.749799999999996,1.7113999999998586
9.299000000000001,-9.185727272727295,7.382999999999975,-0.43154545454558835
9.319,-8.9201428571428,7.075428571428549,-2.0444285714286528
9.339,-7.158999999999913,7.014000000000021,-2.9314999999999993
9.359000000000002,-6.040222222222191,7.912333333333414,-2.140666666666561
9.379000000000001,-6.023894736842124,8.577368421052636,-0.6505789473683898
9.399000000000001,-7.6201818181818615,9.39372727272731,0.8780000000000213
9.419,-8.103500000000002,10.204833333333362,0.9949999999999325
9.439000000000002,-7.6384999999999215,9.712499999999883,0.051499999999952556
9.459000000000001,-6.451444444444326,8.073555555555403,-0.05833333333333373
9.479000000000001,-3.3629999999999036,3.8354545454544047,-0.3456363636363713
9.499,4.193571428571557,-8.743285714285935,-1.433000000000023
9.519000000000002,10.181000000000381,-17.846500000000304,-1.742999999999934
9.539000000000001,15.007000000000358,-20.581111111111372,0.06811111111123991
9.559000000000001,16.869727272727175,-19.975545454545262,-0.0930000000000342
9.579,11.791666666666528,-13.987666666666577,0.3253333333333622
9.599000000000002,7.215181818181446,-13.594636363636527,0.8831818181817803
9.619000000000002,4.06281818181798,-13.289818181818015,-0.5137272727274991
9.639000000000001,2.68755555555554,-10.639222222222033,-3.7517777777779298
9.659,2.834800000000084,-7.746399999999623,-4.621399999999926
9.679,3.2795882352941192,-4.458647058823555,-3.5231176470588372
9.699000000000002,2.568999999999885,-1.4563999999997685,-1.8521999999998555
9.719000000000001,1.4896666666665892,0.37355555555567865,-0.8915555555555046
9.739,0.4621999999999875,2.196600000000026,-0.5388000000000027
9.759,-0.3246363636363929,3.285454545454572,-0.842272727272736
9.779000000000002,-1.107739130434811,3.8273478260869678,-0.8899565217391245
9.799000000000001,-2.0586000000000966,4.063600000000005,-0.683999999999984
9.819,-2.9598888888889077,4.068,-0.5346666666666645
9.839,-3.179199999999996,3.988199999999974,-0.4684000000000015
9.859000000000002,-3.046999999999982,3.6933999999999636,-0.4637999999999825
9.879000000000001,-2.925499999999988,3.2642499999999726,-0.34674999999999634
9.899000000000001,-2.5397142857142696,2.415428571428518,-0.23099999999999468
9.919,-2.3402222222222187,0.953777777777723,-0.20722222222222544
9.939000000000002,-2.25839999999999,-0.6690000000001577,-0.25099999999999145
9.959000000000001,-1.4967999999998802,-2.172800000000138,-0.015399999999953978
9.979000000000001,-0.770499999999996,-2.774750000000001,0.4097500000000046
9.999,-0.3537999999999348,-2.7401999999999873,0.8616000000000422
10.019000000000002,0.22200000000003506,-2.4849999999999506,1.3220000000000431
10.039000000000001,0.2578571428571347,-1.7715714285713753,1.6748571428571568
10.059000000000001,0.09454545454545007,-0.7495454545454281,1.8941818181818184
10.079,-0.015538461538463978,-0.033461538461532464,1.7228461538461493
10.099000000000002,-0.37755555555561265,0.31377777777779803,1.022666666666556
10.119000000000002,-0.7907777777777945,0.4770000000000079,0.08433333333325546
10.139000000000001,-0.6768888888888811,0.4149999999999929,-0.5982222222222414
10.159,-0.2728823529411713,0.16264705882352437,-1.0608235294117707
10.179000000000002,0.11964705882354318,-0.03594117647058774,-1.5521176470588496
10.199000000000002,0.3957272727272923,-0.17727272727274987,-2.162363636363665
10.219000000000001,0.6725454545454678,-0.20945454545451625,-2.4126363636363783
10.239,1.1627777777778059,0.29222222222223015,-3.196333333333368
10.259000000000002,1.986000000000066,0.20099999999996893,-4.065000000000032
10.279000000000002,2.0734799999999773,0.1137999999999977,-3.5685199999999364
10.299000000000001,1.2879999999997696,0.16399999999994885,-2.0179999999997307
10.319,-0.06700000000004497,-0.2846666666666834,-0.4463333333332775
10.339,-0.8426250000000095,-0.48937500000000245,0.09237500000000486
10.359000000000002,-1.0810000000000064,-0.6616666666666731,0.3876666666666811
10.379000000000001,-1.1387500000000017,-0.6492499999999992,0.5354999999999966
10.399000000000001,-1.2183333333333426,-0.6519999999999997,0.3309999999999852
10.419,-1.3245999999999984,-0.5585999999999992,0.07739999999999854
10.439000000000002,-0.981599999999948,-0.4591999999999802,0.12020000000001321
10.459000000000001,-0.5373333333333091,-0.22766666666665356,0.2716666666666787
10.479000000000001,-0.1544999999999979,-0.058500000000000635,0.4014999999999995
10.499,-0.0954000000000054,-0.09339999999999793,0.3001999999999956
10.519000000000002,-0.22300000000000533,-0.04360000000000128,0.15219999999998657
10.539000000000001,-0.0899999999999808,-0.11640000000001045,0.07259999999999488
10.559000000000001,-0.011749999999993006,-0.13724999999998833,0.00924999999998168
10.579,0.09766666666667516,-0.027999999999996153,-0.12400000000000622
10.599000000000002,0.27222222222223036,-0.15111111111114955,-0.207888888888886
10.619000000000002,0.3200000000000063,-0.3899411764706005,-0.025352941176458137
10.639000000000001,0.4864166666666749,-0.6822500000000103,0.2670000000000083
10.659,0.5755000000000001,-0.6304999999999904,0.27349999999999663
10.679000000000002,0.4983999999999859,-0.296199999999961,0.15879999999998679
10.699000000000002,0.301090909090893,-0.03409090909090072,-0.005000000000015506
10.719000000000001,-0.03050000000001432,0.19200000000001444,-0.4765000000000245
10.739,-0.45380000000000936,0.6314000000000095,-0.8142000000000045
10.759000000000002,-1.0630909090909666,1.1415454545454922,-0.9892727272727373
10.779000000000002,-1.6352727272727672,1.4695454545454663,-1.129181818181823
10.799000000000001,-2.1684000000000285,1.6881000000000164,-1.0354999999999877
10.819,-2.8756000000000084,2.4520000000000173,-0.6483999999999956
10.839000000000002,-3.1677000000000146,3.879900000000121,-0.632200000000001
10.859000000000002,-3.568454545454599,5.685727272727457,-0.28354545454539515
10.879000000000001,-4.141800000000028,7.451800000000103,0.5610000000000752
10.899000000000001,-4.297347826086955,8.217173913043474,1.5516956521739158
10.919000000000002,-3.9079999999999453,6.71749999999969,1.0964999999998162
10.939000000000002,-3.9043750000000497,4.431749999999754,-0.17037500000011563
10.959000000000001,-4.161545454545463,2.5951818181816857,-0.6197272727272743
10.979000000000001,-3.4884615384614572,1.5786153846153144,0.14984615384624206
10.999,-2.346199999999988,0.11399999999998472,1.8311000000000228
11.019000000000002,-0.8982727272725252,-1.6728181818183967,4.317090909091082
11.039000000000001,3.1100000000006083,-5.378800000000513,4.39579999999984
11.059000000000001,8.420500000000175,-9.245000000000108,1.8849999999998919
11.079,11.626300000000024,-11.591600000000028,-0.31890000000002483
11.099000000000002,11.372181818181753,-12.238363636363667,-1.9729090909092697
11.119000000000002,11.423500000000017,-12.893500000000083,-3.985000000000146
11.139000000000001,10.894333333333195,-14.7653333333335,-6.0496666666667815
11.159,9.040333333333333,-16.148333333333333,-5.267333333333333
11.179000000000002,7.013461538461429,-17.639000000000113,-3.6979999999999293
11.199000000000002,5.8063333333333,-19.177666666666696,-2.7199999999999203
11.219000000000001,5.3407999999999864,-17.971799999999863,1.010800000000235
11.239,4.312999999999969,-14.44329999999993,5.121000000000062
11.259000000000002,2.7180833333331726,-10.285833333332935,6.447166666666612
11.279000000000002,1.2644545454544671,-6.234454545454206,3.159363636363241
11.299000000000001,-0.1030555555556334,-1.4644999999997756,-0.5162222222223369
11.319,-3.2602857142857955,5.857571428571578,-2.7907142857142944
11.339000000000002,-8.203090909091237,15.44736363636439,-1.9024545454543877
11.359000000000002,-7.6385454545450555,19.948454545454524,0.7516363636366274
11.379000000000001,-3.665799999999983,14.631799999999483,0.38359999999971506
11.399000000000001,-7.124800000000356,8.81579999999951,-4.152600000000359
11.419000000000002,-9.54725000000028,6.163214285714007,-6.0182142857144765
11.439000000000002,-16.09063636363639,3.2145454545454966,-7.615727272727044
11.459000000000001,-12.699818181817681,3.491909090909049,-2.748818181817652
11.479000000000001,-7.570099999999659,2.5406999999999424,2.5339000000003606
11.499000000000002,-5.126333333333191,2.826000000000098,5.976000000000271
11.519000000000002,-4.522999999999819,3.858000000000858,7.060999999999865
11.539000000000001,-4.032666666666636,6.105666666666789,5.576666666666493
11.559000000000001,-4.403000000000067,6.903100000000042,4.354299999999945
11.579000000000002,-5.4940000000001294,7.165727272727287,3.8867272727272075
11.599000000000002,-6.091200000000012,7.177499999999999,2.6544999999998646
11.619000000000002,-6.1342222222222285,7.536444444444488,0.6848888888887616
11.639000000000001,-6.339700000000033,8.372700000000076,-0.7547000000000976
11.659,-7.131666666666722,8.834777777777784,-1.69366666666671
11.679000000000002,-8.016400000000075,8.615899999999973,-2.088000000000019
11.699000000000002,-8.844538461538514,8.18176923076919,-2.3533846153846376
11.719000000000001,-9.201999999999984,6.942499999999872,-2.34849999999997
11.739,-6.577399999999916,3.0502999999998974,-1.2321999999999749
11.759000000000002,-0.09629999999941807,-5.911200000000792,0.13330000000010694
11.779000000000002,7.553222222222677,-13.831888888889246,1.0670000000000153
11.799000000000001,13.680100000000449,-17.296100000000248,0.18009999999990933
11.819,18.355315789473853,-20.39757894736849,-0.7105263157895435
11.839000000000002,17.390090909090393,-15.578363636362832,-1.799818181818059
11.859000000000002,13.157499999999864,-10.201923076922975,0.8986153846154947
11.879000000000001,7.984666666665651,-7.568999999999678,3.8970000000002383
11.899000000000001,3.4089090909089244,-6.287272727272674,3.354909090908971
11.919000000000002,2.8917500000001075,-5.43237499999989,0.7456249999996126
11.939000000000002,4.4180000000001005,-4.120666666666555,-2.188666666666812
11.959000000000001,5.147727272727292,-2.57554545454531,-3.4376363636364276
11.979000000000001,3.9627999999998975,-1.2735999999999454,-3.4637999999999756
11.999000000000002,2.0053999999997694,-0.3769999999998721,-2.337599999999806
12.019000000000002,1.1137999999999553,0.009800000000009385,-1.2661999999999416
12.039000000000001,0.4467999999999698,0.42180000000002893,-0.8973999999999875
12.059000000000001,-0.05600000000001598,1.0796666666666863,-0.44199999999998596
12.079000000000002,-0.7852000000000963,1.7480000000000782,0.28760000000011
12.099000000000002,-1.1861333333333506,2.242600000000043,0.971400000000054
12.119000000000002,-1.304363636363643,2.6982727272727502,1.4921818181818405
12.139000000000001,-1.5470000000000166,2.8066666666666626,1.2902222222221913
12.159000000000002,-1.756800000000016,2.495199999999933,0.3703999999998417
12.179000000000002,-1.5525999999999465,1.4233999999997975,-0.8068000000001567
12.199000000000002,-1.7586000000000215,0.48799999999997445,-1.8502000000000542
12.219000000000001,-2.0008888888888956,0.2637777777777649,-2.322000000000005
12.239,-1.9577272727272714,0.08599999999999773,-1.894999999999995
12.259000000000002,-1.980363636363649,-0.5369090909091575,-1.234363636363585
12.279000000000002,-2.133800000000005,-0.984600000000015,-0.5883999999999641
12.299000000000001,-2.0956923076923064,-1.155538461538467,-0.00046153846151292255
12.319,-2.09009090909091,-1.2624545454545502,0.6412727272727634
12.339000000000002,-1.7739999999999203,-1.3586000000000318,1.167000000000064
12.359000000000002,-1.2322727272726968,-1.48018181818182,1.4096363636363731
12.379000000000001,-0.9127999999999852,-1.189999999999977,1.3025999999999858
12.399000000000001,-0.5696363636363382,-0.8350909090908868,0.8517272727272409
12.419000000000002,-0.39142105263157617,-0.5352105263157696,0.5527894736841934
12.439000000000002,-0.31439999999999685,-0.2119999999999872,0.23979999999998097
12.459000000000001,-0.530666666666691,0.008333333333346751,0.04444444444443352
12.479000000000001,-0.9414444444444579,-0.031000000000003552,-0.0733333333333361
12.499000000000002,-1.1578461538461764,-0.21053846153849076,-0.15723076923078333
12.519000000000002,-1.2914000000000068,-0.437800000000007,-0.31840000000000995
12.539000000000001,-1.3670000000000022,-0.5246000000000018,-0.48720000000000735
12.559000000000001,-1.4336363636363656,-0.5105454545454484,-0.5544545454545501
12.579000000000002,-1.0612727272726727,-0.32709090909089095,-0.5927272727272671
12.599000000000002,-0.6105999999999765,-0.23279999999999443,-0.4553999999999904
12.619000000000002,-0.2522999999999759,-0.17810000000000048,-0.28589999999998994
12.639000000000001,-0.043222222222215584,-0.1286666666666645,-0.19822222222221975
12.659000000000002,0.23100000000002313,-0.09699999999999408,-0.1935000000000009
12.679000000000002,0.5412000000000452,0.0518000000000287,-0.17159999999998352
12.699000000000002,1.7456000000000853,0.6100000000000336,-0.019799999999994773
12.719000000000001,2.7262857142857837,0.916428571428592,0.11257142857143895
12.739000000000003,3.656999999999941,1.1091111111110965,-1.0317777777779087
12.759000000000002,2.579272727272613,0.8666363636363296,-1.5244545454545673
12.779000000000002,1.4671999999999512,0.8870000000000048,-1.1211999999999658
12.799000000000001,1.237400000000002,0.6241999999999828,-0.5347999999999777
12.819000000000003,1.2284782608695635,0.4988695652173773,-0.4374347826086873
12.839000000000002,0.8943999999999867,0.3695999999999764,-0.8450000000000497
12.859000000000002,0.7237272727272526,0.31709090909091436,-0.9105454545454529
12.879000000000001,0.4317999999999909,0.20359999999999462,-0.8990999999999986
12.899000000000001,0.350818181818179,0.08499999999999806,-0.7554545454545369
12.919000000000002,0.32549999999999807,0.06449999999999836,-0.6119999999999876
12.939000000000002,0.39145454545454456,-0.19045454545455484,0.11681818181821296
12.959000000000001,0.3234999999999908,-0.3125000000000104,0.5510000000000296
12.979000000000001,0.09790909090907883,-0.3924545454545467,0.9899090909091078
12.999000000000002,-0.11531250000001014,-0.4038750000000039,1.271250000000011
13.019000000000002,-0.1215555555555424,-0.6554444444444908,1.3232222222222216
13.039000000000001,-0.019199999999992612,-0.8732000000000111,1.145199999999974
13.059000000000001,0.006000000000002909,-0.7684545454545408,0.7423636363636148
13.079000000000002,0.38290000000005336,-1.0080000000000462,0.26649999999995727
13.099000000000002,0.7050000000000323,-1.2638000000000236,0.4436000000000494
13.119000000000002,0.8170000000001065,-1.3850000000002984,0.842000000000572
13.139000000000001,0.923200000000001,-1.8622000000000083,1.6331000000000107
13.159000000000002,0.6234545454544974,-1.8604545454545343,1.6191818181817974
13.179000000000002,-0.18300000000009237,-1.8122000000000018,0.5922999999998584
13.199000000000002,-0.7627272727273046,-1.6252727272727083,-0.43572727272732525
13.219000000000001,-1.2630000000000439,-1.3466666666666485,-0.9920000000000515
13.239000000000003,-1.8793333333334468,-1.0628888888888224,-1.4685555555556125
13.259000000000002,-2.618750000000054,-0.5349999999999608,-1.5817500000000049
13.279000000000002,-3.2771818181818553,-0.13590909090906964,-1.6026363636363625
13.299000000000001,-3.8351000000000135,0.34120000000001194,-1.5188999999999966
13.319000000000003,-3.884692307692311,0.42084615384616064,-1.4533461538461474
13.339000000000002,-3.5495999999999546,0.6032000000000064,-0.7371999999999233
13.359000000000002,-2.9090909090908514,0.5549999999999833,-0.10245454545450705
13.379000000000001,-1.6301818181817445,0.27918181818180904,0.1418181818181845
13.399000000000003,-0.5477999999999013,0.30250000000000576,-0.13010000000003438
13.419000000000002,-0.036499999999927785,0.3300000000000024,0.015666666666738494
13.439000000000002,0.28481818181819873,0.3950909090909149,0.5302727272727613
13.459000000000001,0.5670909090909225,0.5927272727272891,1.0922727272727575
13.479000000000003,0.6974000000000082,0.9762000000000527,1.425100000000037
13.499000000000002,0.6104545454545353,1.5393636363637182,1.5451818181818207
13.519000000000002,0.49734782608694067,2.01221739130441,1.5618695652173935
13.539000000000001,0.6151000000000297,3.309900000000063,1.5850999999999997
13.559000000000001,0.6967272727272723,3.6060000000000136,1.5850000000000009
13.579000000000002,0.22579999999992656,4.165900000000079,1.9237000000000652
13.599000000000002,-0.7435000000001305,4.885800000000076,3.005000000000157
13.619000000000002,-1.8186000000001004,6.012100000000127,4.502500000000145
13.639000000000001,-2.5007000000000126,6.468800000000003,4.396699999999982
13.659000000000002,-2.0799999999999232,5.0754545454542574,3.2286363636362103
13.679000000000002,-2.089000000000059,2.8062727272725434,2.2921818181817453
13.699000000000002,-2.5519999999998952,0.6719999999998454,2.144000000000032
13.719000000000001,-0.025222222222087698,-1.449444444444524,2.8505555555555917
13.739000000000003,6.947300000000868,-5.286000000000487,2.4545999999998047
13.759000000000002,12.586100000000503,-9.1968000000004,-0.3777000000003241
13.779000000000002,14.952454545454698,-10.752090909091013,-2.353818181818352
13.799000000000001,13.498363636363575,-13.388090909091005,-4.86654545454554
13.819000000000003,11.442777777777492,-15.519222222222387,-6.32700000000008
13.839000000000002,10.856000000000115,-16.659000000000084,-5.970999999999955
13.859000000000002,12.248500000000174,-17.825900000000164,-5.222699999999881
13.879000000000001,14.034454545454611,-19.866272727272793,-4.093999999999955
13.899000000000003,11.244999999999186,-20.164999999999562,-1.5259999999995553
13.919000000000002,4.368166666665037,-16.339166666665726,1.5178333333338858
13.939000000000002,-7.55300000000115,-10.939999999999515,0.08099999999972325
13.959000000000001,-18.240666666667163,-6.133499999999755,-0.5461666666665566
13.979000000000003,-19.192199999999623,3.590900000001274,4.87750000000058
13.999000000000002,-13.034899999999238,15.515600000001463,8.897200000000478
14.019000000000002,-5.996899999999141,24.918200000000652,8.411899999999601
14.039000000000001,0.7605000000003574,14.625999999998854,-1.3412500000009144
14.059000000000003,-1.94718181818237,4.556727272726617,-11.790727272728065
14.079000000000002,-3.7689999999998083,4.326000000000119,-8.687999999999
14.099000000000002,-1.6236363636361226,5.09418181818184,1.718818181819262
14.119000000000002,0.8509999999998235,2.024999999999952,9.901000000000215
14.139000000000001,-1.7593636363637408,2.7350909090909723,11.268363636363647
14.159000000000002,-5.004400000000426,5.1164000000003425,10.749799999999869
14.179000000000002,-7.59227272727293,6.722545454545546,8.576727272727005
14.199000000000002,-8.562100000000074,6.720199999999981,5.539099999999621
14.219000000000001,-7.647999999999785,6.1609999999999525,1.5749999999996964
14.239000000000003,-5.044999999999762,5.674000000000028,-1.506000000000156
14.259000000000002,-2.7764999999997957,6.539700000000178,-2.8590000000000995
14.279000000000002,-3.1184545454547026,8.735000000000264,-2.5730909090908547
14.299000000000001,-5.887363636363721,11.024909090909148,-1.2667272727272232
14.319000000000003,-7.172217391304479,11.743304347826157,-0.309391304347726
14.339000000000002,-10.445666666666757,13.560111111111151,3.8638888888891922
14.359000000000002,-9.33833333333326,11.561666666666538,4.241333333333309
14.379000000000001,-7.471999999999777,8.685999999999876,2.664999999999835
14.399000000000003,-4.169272727272233,6.757636363636067,1.0132727272725521
14.419000000000002,2.461000000000475,-0.026000000000801313,0.034999999999862155
14.439000000000002,6.739166666666856,-8.291166666667111,-1.6151666666667701
14.459000000000001,9.632545454545516,-14.420090909091025,-3.0002727272727516
14.479000000000003,9.59999999999991,-13.93900000000003,-1.1959999999997488
14.499000000000002,8.409999999999789,-14.135090909090934,-0.7080909090909586
14.519000000000002,3.439999999999836,-12.703272727272678,0.04136363636370272
14.539000000000001,1.7930000000001376,-11.92799999999993,0.5369999999999185
14.559000000000003,4.054000000000679,-11.062999999999944,-0.6310000000003165
14.579000000000002,7.763000000000204,-10.830999999999937,-2.5980000000001513
14.599000000000002,9.773777777777966,-10.048111111111005,-4.301111111111313
14.619000000000002,9.007999999999857,-8.520999999999862,-4.211999999999891
14.639000000000003,7.240999999999693,-6.9219999999997395,-2.7169999999997545
14.659000000000002,5.667090909090737,-5.5017272727271065,-1.3959999999998474
14.679000000000002,4.241181818181626,-4.112909090908917,-0.24872727272714823
14.699000000000002,2.801999999999962,-2.518999999999938,0.4540000000000028
14.719000000000003,2.3696190476189964,-1.8180476190475359,0.48542857142857515
14.739000000000003,1.5639999999999288,0.14800000000009753,-0.19200000000004033
14.759000000000002,0.7971666666665692,1.1528333333334548,-0.636500000000058
14.779000000000002,0.1039999999999543,1.6730000000000214,-1.1840000000000315
14.799000000000001,-0.4790000000000118,2.0720000000000147,-1.4439999999999982
14.819000000000003,-0.6121034482758833,2.2388965517241646,-1.4246896551724106
14.839000000000002,-0.9604545454545692,2.8620000000000427,-0.9715454545454059
14.859000000000002,-1.0709999999999933,3.252000000000014,-0.49499999999997985
14.879000000000001,-1.0241666666666658,3.4064166666666713,-0.38383333333333286
14.899000000000003,-1.1500000000000359,3.4929999999999906,-0.4909999999999961
14.919000000000002,-1.346714285714305,3.417714285714276,-0.42142857142855955
14.939000000000002,-1.764200000000019,3.022499999999977,-0.057199999999982834
14.959000000000001,-1.8439999999999506,2.5879999999999277,0.1449999999999915
14.979000000000003,-1.3639999999999493,1.7629999999998447,-0.0440000000000437
14.999000000000002,-1.300000000000047,0.859434782608647,-0.2801739130434788
15.019000000000002,-1.6200000000000196,0.5281304347825883,-0.28365217391304365
15.039000000000001,-2.2383999999999933,-0.6108000000000233,-0.19570000000000212
15.059000000000003,-2.011199999999907,-0.7877999999999572,-0.1582999999999556
15.079000000000002,-1.3939999999999422,-0.5699999999999923,0.21500000000003533
15.099000000000002,-0.835999999999985,-0.4549999999999867,0.4880000000000076
15.119000000000002,-0.6676666666666492,-0.3049999999999845,0.5738333333333422
15.139000000000003,-0.0489999999999357,0.24099999999999894,0.8959999999999826
15.159000000000002,0.1800000000000142,0.22533333333332958,0.8043333333333207
15.179000000000002,0.2019090909090895,0.3217272727272827,0.599272727272716
15.199000000000002,0.108999999999992,0.5010000000000134,0.37199999999999084
15.219000000000003,0.018999999999612754,0.6520000000006608,0.26899999999965896
15.239000000000003,-0.44350000000004147,1.2380000000000426,0.06908333333332367
15.259000000000002,-0.3599999999998839,0.7209999999998044,0.11099999999999328
15.279000000000002,0.6900000000000331,-1.3100000000001706,0.04699999999997513
15.299000000000003,0.5801249999999404,-2.630406249999977,-0.26778125000001135
15.319000000000003,0.18262499999994924,-2.4785312499999805,-0.3434062500000097
15.339000000000002,-0.3866363636362783,-1.0292727272726439,1.0883636363637565
15.359000000000002,0.22800000000002743,-0.38999999999992757,1.789000000000032
15.379000000000003,0.44516666666666127,0.44116666666675597,2.0409999999999706
15.399000000000003,0.3585769230769308,1.0470769230769352,1.4068846153845338
15.419000000000002,0.41011538461539165,1.1286153846153957,0.864576923076849
15.439000000000002,-0.04263636363636834,1.6257272727272776,-0.7931818181818507
15.459000000000001,-0.055999999999995026,1.6260000000000088,-1.1580000000000013
15.479000000000003,0.13690909090917203,1.6321818181817953,-1.2041818181818391
15.499000000000002,0.7050000000000292,1.4419999999999862,-1.403000000000006
15.519000000000002,1.3180000000000327,1.0989999999999487,-1.4829999999999914
15.539000000000001,1.5565454545454669,0.6127272727272282,-1.290363636363604
15.559000000000003,1.6868181818181724,0.27454545454544454,-0.6066363636362637
15.579000000000002,1.6655000000000102,0.21958333333332913,0.18141666666676856
15.599000000000002,1.6922608695652115,0.2346956521739176,0.9822173913043678
15.619000000000002,1.5974782608695601,0.3086086956521779,1.3065652173913218
15.639000000000003,1.1209999999999498,0.6530000000000256,2.042000000000008
15.659000000000002,0.7893333333332603,0.7672222222222436,1.9231111111110433
15.679000000000002,0.3271999999999816,0.8495000000000018,1.4414999999999634
15.699000000000002,0.1316363636363669,0.8501818181818147,0.8363636363636257
15.719000000000003,0.18436363636364403,0.7938181818181737,0.6636363636363385
15.739000000000003,0.6038000000000295,0.6560999999999702,-0.46370000000010175
15.759000000000002,0.6532999999999867,0.4602999999999781,-1.0247000000000388
15.779000000000002,0.5379999999999975,0.34927272727272246,-1.1649090909090765
15.799000000000003,0.47187096774192616,0.25929032258064305,-0.8554838709677225
15.819000000000003,0.40929032258063835,0.24509677419354683,-0.7251612903225665
15.839000000000002,0.11019999999991245,0.05269999999997073,0.15950000000009237
15.859000000000002,-0.42750000000002675,-0.12370000000000833,0.7195000000000168
15.879000000000003,-0.8125000000000439,-0.27770000000002026,0.896699999999978
15.899000000000003,-0.9949375000000058,-0.4990624999999972,0.4261249999999404
15.919000000000002,-1.033687500000005,-0.4803124999999976,0.028624999999949274
15.939000000000002,-0.36299999999991983,-0.12499999999996822,-2.3410000000000997
15.959000000000003,0.4143000000000432,0.22600000000006037,-3.214900000000048
15.979000000000003,0.6500000000000336,0.5030000000000107,-3.251999999999839
15.999000000000002,0.6544054054053917,0.5252702702702622,-2.323432432432392
16.019000000000002,0.5625135135135038,0.4706756756756699,-2.0520810810810524
16.039000000000005,0.23700000000013285,-0.3690000000003045,-0.3889999999999297
16.059000000000005,0.6105999999998365,-1.2696000000000167,0.0508000000001792
16.079000000000004,-0.36209090909099834,-0.9767272727271858,0.7633636363636859
16.099000000000004,-0.6639999999999474,-0.5836956521739307,0.9555652173912591
16.119000000000003,-0.443999999999949,-0.657608695652191,0.7668695652173476
16.139000000000003,0.7685000000000306,-1.754000000000071,-0.26350000000002916
16.159000000000002,1.0779999999999803,-2.6250000000000404,-0.44399999999990564
16.179000000000006,0.814363636363546,-2.6134545454544362,0.22972727272748455
16.199000000000005,0.4259999999999675,-2.0029999999999473,1.2070000000000582
16.219000000000005,0.24333333333329005,-1.7056666666665963,1.5343333333334108
16.239000000000004,-1.3500000000001335,-0.18199999999984603,2.3960000000000194
16.259000000000004,-1.7777777777776915,0.36877777777772464,2.237333333333108
16.279000000000003,-1.3782222222221094,0.03788888888881731,1.2371111111108557
16.299000000000003,-1.04886956521738,-0.17439130434783523,0.3654347826086641
16.319000000000003,-0.9575652173912937,-0.2483043478260955,0.10978260869562251
16.339000000000006,-0.5809999999998037,-0.4350000000000009,-0.44400000000004974
16.359000000000005,-0.13690909090905073,-0.35918181818176964,-0.4099090909090446
16.379000000000005,-0.11787500000004335,-0.235749999999989,-0.24262499999991513
16.399000000000004,-0.3027500000000318,-0.27116666666668787,0.09575000000004368
16.419000000000004,-0.4102500000000254,-0.3428333333333503,0.24325000000003494
16.439000000000004,-1.2159166666667285,-0.2883333333333325,0.5172500000000326
16.459000000000003,-1.4626666666666652,-0.39922222222225645,1.185444444444617
16.479000000000003,-1.3738333333333,-0.5541666666666835,1.7398333333333629
16.499000000000006,-0.9449999999998852,-0.665,1.9790769230769492
16.519000000000005,-0.43070833333327985,-0.6685000000000024,2.1005416666666834
16.539000000000005,-0.20487499999995987,-0.6785000000000019,2.1713750000000127
16.559000000000005,-0.9426666666668639,-0.4071666666666361,2.045083333333262
16.579000000000004,-1.6910833333333528,0.12250000000013027,1.7408333333333088
16.599000000000004,-1.421999999999943,0.7803750000000965,1.6722499999999965
16.619000000000003,-1.1819999999999573,1.1878750000000724,1.6572499999999974
16.639000000000003,-1.140400000000006,3.1183000000001027,1.702300000000002
16.659000000000006,-1.4779166666668269,4.253916666666928,1.5022499999998862
16.679000000000006,-2.6090000000002984,5.308800000000093,0.8273999999998534
16.699000000000005,-3.566466666666872,5.319533333333293,0.33826666666658456
16.719000000000005,-4.470848484848537,5.421696969697026,0.1398181818181999
16.739000000000004,-4.68781818181822,5.655636363636406,0.21618181818183174
16.759000000000004,-4.836545454545414,6.416363636363523,0.73572727272724
16.779000000000003,-4.097727272727124,5.046545454545192,0.13190909090892156
16.799000000000003,-2.3416923076920066,2.551076923076583,-1.3093846153847266
16.819000000000003,0.8464761904763535,-1.0307142857144491,-2.079238095238085
16.839000000000006,3.256000000017337,-3.445000000016037,-1.9239999999973354
16.859000000000005,11.298857142858132,-8.833857142857637,-1.0278571428572947
16.879000000000005,14.74645454545473,-10.41800000000013,-1.6852727272727637
16.899000000000004,14.36207692307665,-11.242384615384857,-1.9260769230769952
16.919000000000004,12.059777777777645,-15.358222222222635,-4.222333333333595
16.939000000000004,9.300999999999584,-19.895909090909253,-7.68545454545472
16.959000000000003,7.973800000000159,-19.185799999999745,-5.493199999999067
16.979000000000003,9.053600000000023,-18.215999999999923,0.8628000000006635
16.999000000000006,9.133399999999847,-17.11893333333293,3.3885999999998746
17.019000000000005,8.043947368420822,-14.520999999999358,2.6403684210525427
17.039000000000005,6.155727272726342,-9.481545454543959,1.2660909090899182
17.059000000000005,2.2498999999989695,-4.524399999998787,-2.0655000000002333
17.079000000000004,-2.601454545455175,1.3058181818188896,-1.2398181818177554
17.099000000000004,-8.394666666667426,7.8126000000009,2.7440000000003897
17.119000000000003,-15.64179310344839,17.249862068966102,6.360620689655395
17.139000000000003,-16.117655172413897,19.707103448276406,7.293034482758826
17.159000000000006,-3.4270000000004996,9.199749999998442,3.117249999998262
17.179000000000006,-6.039529411765286,5.274411764705523,-2.057529411765541
17.199000000000005,-7.221090909089882,4.3596363636366755,-5.553545454545358
17.219000000000005,-3.472173913043009,6.0968695652174905,-3.5851304347821
17.239000000000004,-1.9139130434778038,6.425565217391401,-1.8964347826082002
17.259000000000004,-4.222800000000702,5.64910000000019,0.6914000000002678
17.279000000000003,-6.534000000000175,6.701800000000185,2.278400000000289
17.299000000000003,-7.578125000000076,7.757500000000035,3.692124999999979
17.319000000000006,-8.29365217391303,7.734652173912927,2.609913043477978
17.339000000000006,-8.250173913043465,7.3511739130433655,1.6690434782605934
17.359000000000005,-6.8459090909088225,6.427636363636253,-1.5697272727275242
17.379000000000005,-5.817666666666574,6.555833333333727,-2.293833333333173
17.399000000000004,-5.123692307692003,7.910615384615541,-1.1584615384612127
17.419000000000004,-3.943636363636318,8.59827272727276,-0.08454545454543974
17.439000000000004,-3.6850000000002896,8.952999999999935,-0.06200000000004066
17.459000000000003,-5.459636363636648,8.421818181818189,0.00709090909088466
17.479000000000003,-7.98818181818212,8.606363636363666,-0.6234545454546326
17.499000000000006,-10.314818181818568,8.793363636363773,-0.625999999999503
17.519000000000005,-10.588166666665899,9.446999999999846,1.4491666666670284
17.539000000000005,-6.123124999998022,6.973374999997964,1.3909999999994187
17.559000000000005,1.10860000000194,-2.317000000003146,-0.1564000000004786
17.579000000000004,6.997454545455408,-8.632363636363072,-3.131272727273398
17.599000000000004,13.327500000000674,-7.597250000000116,-5.561500000000375
17.619000000000003,15.215181818181502,-8.318181818182003,-7.6543636363637
17.639000000000003,12.07079999999912,-9.50300000000008,-5.90999999999929
17.659000000000006,5.715199999998486,-9.066999999999375,-0.4091999999984999
17.679000000000006,2.6536000000004734,-7.308199999999893,2.8085999999996636
17.699000000000005,5.14800000000059,-7.318000000000043,0.3919999999994985
17.719000000000005,9.08538461538497,-7.605769230769211,-2.7839230769233367
17.739000000000004,9.893181818181569,-6.979090909090694,-3.3719999999998023
17.759000000000004,7.985199999999562,-6.245399999999951,-2.0055999999998004
17.779000000000003,5.100799999999721,-5.832600000000021,-0.7507999999998846
17.799000000000003,3.416199999999854,-6.24620000000007,-0.3770000000000256
17.819000000000006,2.7187499999999556,-6.33162499999985,-0.4876249999999895
17.839000000000006,2.920444444444646,-5.439555555555297,-0.46288888888894997
17.859000000000005,3.6301111111112387,-4.444333333333076,-1.0125555555558563
17.879000000000005,3.561727272727098,-3.8279999999999106,-1.9946363636364974
17.899000000000004,2.3703076923074904,-3.2573846153845394,-2.199692307692214
17.919000000000004,0.9239999999997489,-2.925999999999973,-1.6959999999998865
17.939000000000004,-0.7180000000001395,-2.593363636363545,-0.4299090909088453
17.959000000000003,-1.150199999999982,-2.1337999999999355,0.8104000000001312
17.979000000000003,-0.7313999999998746,-1.550599999999924,1.639000000000048
17.999000000000006,-0.02515384615370886,-1.1961538461537546,1.5356153846152027
18.019000000000005,0.4479333333333539,-0.7525333333332698,0.5467333333331194
18.039000000000005,0.42677777777775344,-0.351888888888779,-0.5715555555558444
18.059000000000005,0.3799999999999645,0.03611111111125651,-1.2558888888890634
18.079000000000004,0.15785714285706198,0.48471428571441,-1.6319285714286478
18.099000000000004,-0.2740000000000782,1.182750000000067,-1.822250000000011
18.119000000000003,-0.9284285714286937,1.688428571428652,-1.8148571428571136
18.139000000000003,-1.7417272727273616,2.3186363636364664,-1.5889090909090702
18.159000000000006,-2.067000000000054,2.8284000000001175,-1.6306000000000416
18.179000000000006,-2.2008000000000254,3.255200000000123,-1.7889999999999688
18.199000000000005,-2.2030000000000123,3.5360000000000147,-1.5949999999999518
18.219000000000005,-2.480772727272768,3.693090909090922,-1.3539090909090703
18.239000000000004,-2.8643333333333634,3.7095555555554727,-1.121777777777734
18.259000000000004,-2.8695999999999793,3.3231999999999338,-0.9254999999999595
18.279000000000003,-2.7291538461537983,3.007923076923022,-0.748153846153818
18.299000000000003,-2.2871428571428103,2.5587857142856456,-0.6077857142857293
18.319000000000006,-2.0419199999999833,2.0817199999999323,-0.7032800000000052
18.339000000000006,-1.9947199999999885,1.886519999999953,-0.7184800000000037
18.359000000000005,-1.7405999999999155,0.7924999999998827,-0.6671999999999847
18.379000000000005,-1.3456666666665442,0.456111111111067,-0.5076666666665739
18.399000000000004,-0.9005999999999071,0.3745333333333103,-0.07566666666658454
18.419000000000004,-0.26454545454541,0.11909090909087819,0.28554545454546043
18.439000000000004,0.33000000000006297,-0.4050000000000924,0.3159999999999944
18.459000000000003,0.585600000000023,-0.6915999999999974,0.2887999999999955
18.479000000000006,0.6721111111111263,-0.4794444444443096,0.3315555555555424
18.499000000000006,0.926250000000209,-0.2860000000001042,0.20924999999992952
18.519000000000005,1.727942857142946,-1.0122857142858614,-0.12042857142863012
18.539000000000005,1.9742285714286538,-1.4208571428572796,-0.2832857142857689
18.559000000000005,1.623818181817989,-2.244090909090577,-0.7175454545453079
18.579000000000004,0.6917999999998363,-0.2957999999996274,0.34350000000019826
18.599000000000004,0.18790000000000415,1.1721000000001716,0.8729000000000393
18.619000000000003,0.16625714285713586,1.9945142857143083,1.064171428571436
18.639000000000003,0.12797142857142255,2.117942857142877,1.1053142857142921
18.659000000000006,0.16190909090914024,1.2340909090906984,-0.0183636363639106
18.679000000000006,0.43740000000007967,0.508199999999753,-0.7784000000001404
18.699000000000005,0.6720000000000287,-0.2320769230770448,-1.076153846153864
18.719000000000005,0.7133333333333396,-0.6967575757575755,-1.0556363636363348
18.739000000000004,0.7400000000000048,-0.6955454545454542,-0.9338181818181602
18.759000000000004,0.999823529411757,-0.4511176470587961,0.39305882352948834
18.779000000000003,0.917727272727223,-0.21399999999997288,0.9191818181818435
18.799000000000003,0.5367499999999262,-0.12400000000000355,0.9047499999999619
18.819000000000006,0.10045454545450627,-0.17645454545456074,0.5889999999999573
18.839000000000006,-0.009848484848517483,-0.21948484848486122,0.46899999999996445
18.859000000000005,-0.8277272727273653,-0.1660909090908601,-0.4470909090910306
18.879000000000005,-1.2129090909091282,0.1323636363636885,-1.0660000000000813
18.899000000000004,-1.2127692307691649,0.3293846153846214,-1.3428461538461482
18.919000000000004,-0.7536666666666249,0.2939999999999822,-1.1814999999999722
18.939000000000004,-0.4519999999999574,0.12899999999996042,-0.8909999999998944
18.959000000000003,-0.32939999999997377,-0.14080000000006904,-0.48849999999997284
18.979000000000006,-0.11889999999992776,-0.44710000000003847,-0.37079999999996355
18.999000000000006,0.03975000000001362,-0.41174999999994255,-0.16824999999992243
19.019000000000005,0.20825000000001131,-0.362000000000011,0.04837500000000168
19.039000000000005,0.2545000000000103,-0.40700000000000996,0.05525000000000153
19.059000000000005,-0.24233333333336687,0.9943333333336901,0.2643333333333716
19.079000000000004,-0.43510000000013094,3.1716000000005637,0.005899999999873368
19.099000000000004,-1.5309000000002952,6.139400000000508,-0.35260000000000064
19.119000000000003,-3.4432000000001395,8.589880000000115,-0.19171999999993952
19.139000000000006,-4.171200000000295,9.189080000000244,0.12348000000012771
19.159000000000006,-6.185818181818406,9.425909090908805,1.6140000000000723
19.179000000000006,-6.969400000000117,7.700599999999431,1.8256000000001045
19.199000000000005,-6.748714285714001,6.002642857142451,0.8770714285709857
19.219000000000005,-5.215380952380664,4.490333333333146,-0.5042380952381937
19.239000000000004,-1.2085999999987047,1.9321999999991406,-0.6881999999996905
19.259000000000004,5.904181818183609,-3.2130909090922026,1.2955454545456904
19.279000000000003,12.700700000000703,-8.745100000000694,0.44369999999934406
19.299000000000003,15.193000000000021,-11.359666666666701,-4.275000000000413
19.319000000000006,14.467419354838439,-11.15474193548372,-6.891677419354866
19.339000000000006,13.39451612903197,-10.553451612903064,-7.000064516129061
19.359000000000005,8.781499999999793,-13.182900000001045,-5.934799999999994
19.379000000000005,8.37318181818194,-17.43200000000039,-4.558727272726374
19.399000000000004,9.319000000000282,-17.333666666666545,0.22466666666755553
19.419000000000004,11.16138095238119,-17.301000000000066,3.278380952381114
19.439000000000004,11.921333333333132,-18.041444444444444,3.753444444444362
19.459000000000003,9.968999999999701,-17.64536363636344,3.118090909090902
19.479000000000006,8.225599999999343,-15.920599999999334,3.4690000000004293
19.499000000000006,3.18014285714127,-12.291857142856198,5.123714285714182
19.519000000000005,-4.490666666667456,-7.390714285713505,3.9245238095237354
19.539000000000005,-10.431100000000493,1.7751000000020236,4.576700000000482
19.559000000000005,-12.011454545454862,12.4114545454576,5.6945454545452305
19.579000000000004,-13.129999999999772,23.84333333333441,3.814333333332789
19.599000000000004,-9.016181818180952,18.797454545451814,-0.3083636363644737
19.619000000000003,-9.125826086956984,7.901695652173321,-3.3981304347827246
19.639000000000006,-12.18762499999971,3.7891250000002987,-3.4429999999992624
19.659000000000006,-7.639799999998009,6.186600000000665,0.1390000000010062
19.679000000000006,-0.7162727272707706,7.205181818181487,3.2295454545463342
19.699000000000005,2.1324545454539905,5.4923636363633515,5.654000000000178
19.719000000000005,-1.365258064516442,4.655322580645194,5.849322580645069
19.739000000000004,-2.6065483870971082,4.786935483871003,5.480935483870868
19.759000000000004,-5.038636363636384,7.447636363636502,2.5407272727267776
19.779000000000003,-5.791800000000373,7.516799999999975,0.7229999999997505
19.799000000000007,-7.3670769230771125,7.381461538461417,-0.13553846153864496
19.819000000000006,-7.583437499999943,6.842687499999981,-1.1320312500001246
19.839000000000006,-7.397187499999947,6.781437499999982,-1.5401562500001156
19.859000000000005,-5.333545454545351,8.046181818182152,-1.624181818181609
19.879000000000005,-5.530727272727506,8.928272727272953,-1.1753636363635542
19.899000000000004,-6.533800000000172,9.629400000000075,-1.0239999999999936
19.919000000000004,-6.983945945945945,10.088945945945982,-0.8671621621621436
19.939000000000004,-6.976918918918918,10.281918918918956,-0.7682432432432242
19.959000000000003,-8.001400000000038,10.551000000000002,1.040400000000284
19.979000000000006,-7.592818181817848,9.042272727271826,-0.40045454545561826
19.999000000000006,-5.509666666666007,5.34799999999902,-2.1793333333331373
20.019000000000005,-0.9140666666660877,-0.5908000000007636,-0.33913333333324347
20.039000000000005,1.530600000000434,-3.8148000000005733,0.040200000000067404
20.059000000000005,7.464363636364475,-8.769727272727362,-0.03736363636360862
20.079000000000004,10.09827272727293,-8.340181818181742,-0.7718181818182933
20.099000000000004,10.519333333332947,-9.382000000000394,-0.46999999999957837
20.119000000000003,7.43913043478243,-10.728260869565288,1.5816956521739989
20.139000000000006,5.778166666667227,-11.67983333333336,1.7338333333323572
20.159000000000006,7.995800000000658,-11.083399999999571,-1.2290000000007988
20.179000000000006,9.376199999999862,-8.849999999999147,-3.231600000000224
20.199000000000005,8.088769230768822,-6.484538461538245,-2.884615384615133
20.219000000000005,6.93204545454548,-6.552227272727465,-2.1199090909090637
20.239000000000004,7.893000000000564,-8.109000000000453,-1.946714285714257
20.259000000000004,8.760636363636314,-8.861545454545439,-1.936909090909086
20.279000000000003,7.3729999999996005,-8.020499999999782,-1.7469999999999395
20.299000000000007,5.413545454544879,-6.695818181817713,-1.3597272727271277
20.319000000000006,3.546571428571081,-5.42590476190459,-0.9257619047618241
20.339000000000006,1.3361666666661038,-4.4371666666664495,-0.34649999999986497
20.359000000000005,0.3627272727272375,-4.006090909090811,-0.05899999999997416
20.379000000000005,0.4381999999999906,-3.9560000000000364,-0.23000000000011298
20.399000000000004,-0.2060625000002432,-3.6608124999998255,-0.6905625000000406
20.419000000000004,-1.289968750000022,-2.665843749999954,-0.7065624999999854
20.439000000000004,-1.461843750000018,-2.3052187499999617,-0.592812499999988
20.459000000000007,-1.2614999999999283,-0.724999999999855,0.12399999999998722
20.479000000000006,-1.7750000000002546,-0.2974999999998609,0.1320000000000533
20.499000000000006,-2.4689285714286777,0.36978571428591955,0.4811428571429423
20.519000000000005,-2.72,1.1983636363637031,0.7051212121212146
20.539000000000005,-2.72,1.4238181818182352,0.7136060606060626
20.559000000000005,-2.17600000000001,1.8099999999999952,0.49181818181811576
20.579000000000004,-2.4875000000000815,1.9130000000000582,0.018499999999898042
20.599000000000004,-2.717500000000007,2.2497142857143166,-0.5585714285715003
20.619000000000003,-2.622999999999984,2.469200000000005,-1.142400000000028
20.639000000000006,-2.4119999999998685,2.5860000000001135,-1.484000000000071
20.659000000000006,-1.9414999999998885,2.816500000000055,-1.5965000000000038
20.679000000000006,-1.737666666666639,3.0036666666666867,-1.4640833333332706
20.699000000000005,-1.7510000000000554,3.0199999999999934,-1.29049999999996
20.719000000000005,-2.1670000000001415,3.0640000000000427,-1.0449999999999082
20.739000000000004,-2.393076923076945,3.147846153846164,-0.8659230769230548
20.759000000000004,-2.5171794871795017,3.2063076923076994,-0.7418205128204981
20.779000000000003,-2.375777777777741,1.6407777777776227,0.4453333333333823
20.799000000000007,-2.2417142857143184,0.7821428571426847,0.5808571428571135
20.819000000000006,-2.467888888888906,0.35674074074071016,0.3778888888888479
20.839000000000006,-2.5323333333333546,0.24044444444440544,0.22233333333328115
20.859000000000005,-0.08354545454536255,-1.9589090909091909,-0.708454545454629
20.879000000000005,-0.1665000000000613,-1.0059999999995437,-0.5114999999998108
20.899000000000004,0.2477857142858887,-0.29114285714286436,-0.169500000000033
20.919000000000004,1.0685000000000386,-0.35483333333334155,-0.39566666666667477
20.939000000000004,1.3305000000000542,-0.4101666666666781,-0.4503333333333447
20.959000000000007,3.154333333333472,-0.8903333333333338,-1.1650000000000686
20.979000000000006,3.4284999999998744,-0.5289999999997954,-1.1019999999998933
20.999000000000006,3.3885000000000924,0.22300000000016734,-0.5034999999997799
21.019000000000005,3.4569999999999834,0.7476666666667302,0.11983333333339827
21.039000000000005,3.400999999999987,0.9623333333333841,0.33916666666671863
21.059000000000005,2.0163999999996998,1.4444000000000217,1.1352000000000162
21.079000000000004,0.29849999999977794,1.3619999999999104,0.4964999999997908
21.099000000000004,-0.6160000000000825,0.9176666666666414,-0.270666666666712
21.119000000000007,-1.421969696969782,0.6021515151514637,-0.6508787878788043
21.139000000000006,-1.6268181818182548,0.47790909090904676,-0.6902727272727412
21.159000000000006,-1.9394999999999942,0.08150000000000693,-0.774000000000049
21.179000000000006,-1.7044545454543705,0.149,-1.0086363636364002
21.199000000000005,-0.9477999999998079,0.2888000000000807,-0.7337999999998193
21.219000000000005,-0.5165714285713755,0.45878571428571063,-0.2951071428571076
21.239000000000004,-0.33085714285710865,0.44592857142856906,-0.17153571428569156
21.259000000000004,0.5068181818182351,0.3369090909090943,0.7836363636364413
21.279000000000003,0.9255000000000714,0.40200000000002556,1.419000000000115
21.299000000000007,1.2098181818182359,0.6415454545455443,2.019545454545609
21.319000000000006,1.3510000000000362,0.9415000000000624,2.4855000000000955
21.339000000000006,1.408108108108115,1.0441891891892026,2.636216216216235
21.359000000000005,1.438918918918926,1.1031081081081218,2.7178378378378567
21.379000000000005,2.2756363636367403,-0.0978181818188425,2.0106363636360816
21.399000000000004,2.8129999999998825,-1.4769090909089768,1.2499999999999791
21.419000000000004,2.321444444444457,-0.553555555555378,1.3138888888889488
21.439000000000004,2.407666666666689,-0.2753333333332994,1.5038571428571827
21.459000000000007,2.501000000000033,-0.13199999999994905,1.6724285714286313
21.479000000000006,3.1140909090910207,1.544636363636493,2.096363636363379
21.499000000000006,3.1199999999999726,1.7812941176470973,1.261764705882165
21.519000000000005,2.5633076923076596,1.985615384615399,-0.08976923076929949
21.539000000000005,2.3909999999984475,2.0609999999997903,-0.4490000000020961
21.559000000000005,1.3614999999999204,1.749999999999984,-2.370500000000236
21.579000000000004,1.1619999999999644,1.5724999999999258,-3.1795000000001643
21.599000000000004,0.9072857142856334,0.9274285714283466,-4.525428571428971
21.619000000000007,-0.042363636364099344,-0.05236363636383577,-6.10481818181838
21.639000000000006,-0.9427647058826798,-0.1192352941176135,-5.949764705882199
21.659000000000006,-0.5982499999997113,-0.2283333333333373,-3.4134166666660097
21.679000000000006,0.29254545454551856,-0.14736363636360583,-0.9725454545449177
21.699000000000005,0.23649999999992594,-0.22850000000005383,0.3645000000002414
21.719000000000005,-0.13081818181827565,-0.27654545454544927,1.1622727272728797
21.739000000000004,-0.6431428571429418,-0.2508571428571333,1.6548571428571819
21.759000000000004,-1.0560000000000243,-0.11559999999998039,1.767799999999988
21.779000000000007,-1.1972000000000236,0.09640000000010168,1.4173999999998075
21.799000000000007,-0.9943636363634896,0.4146363636364329,0.7325454545452279
21.819000000000006,-0.4494999999998651,0.5720000000000117,0.05999999999986358
21.839000000000006,-0.18322727272722458,0.5489090909090791,-0.21731818181823326
21.859000000000005,0.1440000000000042,0.37909090909089727,-0.662727272727325
21.879000000000005,-0.14454545454557036,0.2146363636362848,-0.9054545454545991
21.899000000000004,-0.5178000000000637,-0.06900000000003233,-0.9749999999999727
21.919000000000004,-0.6820000000000078,-0.10149999999999751,-0.6749999999999232
21.939000000000004,-0.6473181818181735,-0.052318181818173465,-0.38699999999996704
21.959000000000007,-0.9771111111112072,-1.0112222222227398,0.6260000000002961
21.979000000000006,-1.6580909090910672,-2.549727272727485,0.9344545454544344
21.999000000000006,-1.3319999999996448,-2.389666666666402,-0.5176666666673081
22.019000000000005,0.42680000000044427,-1.4097999999997652,-2.4064000000003873
22.039000000000005,1.0650434782609672,-0.9392608695651194,-3.0999130434783937
22.059000000000005,0.5645999999999011,-0.6516000000001572,-2.8675999999996895
22.079000000000004,0.37890909090909436,-1.3607272727274131,-1.5382727272724859
22.099000000000004,0.588400000000021,-2.003000000000075,-0.8931999999999836
22.119000000000007,0.44619999999980625,-1.9467999999998515,-0.43119999999971986
22.139000000000006,-0.13731578947387874,-1.6249473684209563,0.26526315789495614
22.159000000000006,-1.7640000000002654,-0.505199999999771,2.236000000000457
22.179000000000006,-2.0167999999998996,-0.14959999999997828,3.3534000000002266
22.199000000000005,-1.6084999999998875,-0.21450000000001335,3.5449999999999435
22.219000000000005,-1.5356363636364279,-0.08727272727270016,3.1816363636362683
22.239000000000004,-1.8097272727273408,-0.06863636363636832,2.8429999999999227
22.259000000000004,-1.4685999999998567,-0.34640000000004234,2.2211999999999454
22.279000000000007,-0.3049999999996124,-0.5997272727273474,1.6458181818179645
22.299000000000007,0.7678181818183728,-0.8092727272727316,0.9325454545452538
22.319000000000006,1.0423750000000567,-0.7482499999999673,0.6384999999999845
22.339000000000006,1.1127500000000072,-0.6642499999999829,0.6665000000000121
22.359000000000005,1.1055999999999706,-0.24219999999992886,1.0784000000000964
22.379000000000005,1.1640000000000486,-0.13900000000002902,1.451500000000053
22.399000000000004,1.353199999999919,-0.7058000000001383,1.8222000000001004
22.419000000000004,0.46049999999959035,-0.7249999999998922,2.387000000000228
22.439000000000007,-0.19747619047637202,-0.5441904761904245,2.8254285714287097
22.459000000000007,-0.6373999999999738,0.38320000000021226,2.818599999999716
22.479000000000006,-0.7215000000000599,1.1840000000003068,1.6739999999995903
22.499000000000006,-1.1216000000001765,2.481800000000424,0.16679999999954787
22.519000000000005,-1.9476363636366167,4.030000000000369,-1.1001818181820422
22.539000000000005,-2.7526538461539882,5.204423076923284,-1.6427692307693087
22.559000000000005,-5.270700000000211,8.638100000000266,-2.5685000000000566
22.579000000000004,-5.892090909091017,8.134818181817767,-2.910272727272805
22.599000000000004,-7.25150000000042,6.31449999999964,-2.9389999999999312
22.619000000000007,-9.790000000000829,4.926499999999797,-1.8279999999992937
22.639000000000006,-10.817473684210709,4.720842105263132,-0.4057368421048825
22.659000000000006,-8.770999999993206,3.487999999996023,1.5900000000005945
22.679000000000006,-0.1609999999974847,-2.1795000000018065,1.1294999999995943
22.699000000000005,7.423666666668593,-8.539888888890854,-0.38733333333389974
22.719000000000005,11.535000000000736,-13.253500000000919,0.25000000000093253
22.739000000000004,12.33529629629637,-13.830407407407375,2.0190370370373536
22.759000000000004,12.988545454545264,-13.230545454545506,0.805636363635776
22.779000000000007,10.861090909090041,-15.829181818183432,-2.8739090909103995
22.799000000000007,8.596272727271709,-20.181181818182633,-6.1042727272735995
22.819000000000006,6.1769090909088895,-19.443818181817615,-7.178363636363537
22.839000000000006,6.1118749999999995,-18.00912499999974,-5.40599999999932
22.859000000000005,6.335500000000194,-16.56499999999962,-1.6584999999990924
22.879000000000005,7.073999999999988,-14.640999999999472,1.5033333333338506
22.899000000000004,5.219333333332844,-10.49499999999903,3.17833333333343
22.919000000000004,2.077999999998979,-4.937272727271081,2.4861818181816395
22.939000000000007,-0.6904705882360607,-0.28952941176339975,2.666588235294235
22.959000000000007,-5.095080000000641,6.445880000000971,4.11968000000023
22.979000000000006,-11.294272727273388,17.6333636363653,5.517636363636315
22.999000000000006,-8.593272727271003,17.7405454545439,3.562272727271833
23.019000000000005,-3.1216249999987156,10.011499999997625,-0.5705000000016753
23.039000000000005,-2.2627931034481668,8.010517241378947,-2.3690344827590266
23.059000000000005,-2.9165000000004335,4.621083333333227,-4.642083333333061
23.079000000000004,-4.925000000000259,4.8542000000000485,-1.351599999998981
23.099000000000007,-5.497333333333532,4.571666666666592,2.1770000000011063
23.119000000000007,-6.330600000000491,4.854900000000229,3.620700000000135
23.139000000000006,-8.379000000000726,5.744600000000263,2.8921999999995696
23.159000000000006,-9.384111111111274,6.006777777777806,2.2052222222220985
23.179000000000006,-10.617909090908837,6.457181818181894,0.6058181818179427
23.199000000000005,-8.322199999999404,6.477299999999976,-0.6757000000003287
23.219000000000005,-5.004666666665882,6.155333333333216,-2.8840000000005777
23.239000000000004,-2.8478749999996684,5.864124999999943,-4.297375000000109
23.259000000000004,-2.244483870967681,5.832580645161296,-4.395419354838708
23.279000000000007,-4.720750000001324,8.627250000000828,-3.921249999999689
23.299000000000007,-7.532545454546011,10.367454545454823,-2.6030909090904464
23.319000000000006,-9.287500000000522,10.826099999999963,-0.9136999999997256
23.339000000000006,-9.888500000000132,9.934999999998823,-1.5980000000009758
23.359000000000005,-10.139874999999991,7.209499999999187,-2.7123750000000126
23.379000000000005,-6.490666666665234,1.7397777777762053,-2.1605555555554288
23.399000000000004,-0.04199999999823589,-5.039333333335142,-1.782999999999861
23.419000000000004,5.4973333333344625,-10.568666666667717,-1.3751111111110612
23.439000000000007,7.866500000000953,-12.005500000000252,0.25200000000221445
23.459000000000007,9.450500000001213,-11.830999999998948,4.209500000002379
23.479000000000006,10.269299999999973,-11.54550000000022,4.533499999999741
23.499000000000006,7.853444444443761,-11.639777777777718,3.3018888888886355
23.519000000000005,6.576099999999912,-11.941000000000104,2.23519999999955
23.539000000000005,8.753545454546135,-11.824454545454458,0.5425454545451136
23.559000000000005,11.245000000000676,-11.22838888888871,-0.5859444444447426
23.579000000000004,12.811599999999633,-7.981499999999564,-1.9688999999999715
23.599000000000007,8.955181818180268,-6.431272727272295,-0.6955454545449077
23.619000000000007,4.9219090909082315,-4.85672727272684,0.2928181818182546
23.639000000000006,3.2356666666658933,-3.738666666666071,0.057333333333136755
23.659000000000006,2.4002727272725166,-3.1643636363634977,-0.07654545454548133
23.679000000000006,0.6428823529409853,-2.0237647058822317,0.03529411764706651
23.699000000000005,-0.2825652173913974,-1.198478260869435,0.09569565217392625
23.719000000000005,-0.9257142857144174,0.006285714286082045,0.1914285714286074
23.739000000000004,-1.2569090909091858,1.3044545454548344,0.26272727272727725
23.759000000000004,-1.6440000000000627,2.2350000000001256,0.1743333333333069
23.779000000000007,-1.8627500000000674,2.5186500000000724,0.00919999999994181
23.799000000000007,-2.7691538461539924,3.0423076923077197,-0.34938461538460797
23.819000000000006,-3.3223333333335456,3.0493333333332875,-0.27866666666667694
23.839000000000006,-3.6145000000000556,2.8854999999999396,-0.517500000000257
23.859000000000005,-3.5444999999999673,2.8373333333333255,-0.7778666666667196
23.879000000000005,-2.459666666666479,2.2869999999998707,-1.679000000000103
23.899000000000004,-1.5087142857141314,1.4404285714284044,-1.8654285714285666
23.919000000000004,-0.6941818181817319,0.2953636363634799,-1.55209090909085
23.939000000000007,-0.31142857142840286,-0.5327142857147076,-1.3067142857141976
23.959000000000007,-0.27628000000001385,-0.9179600000000969,-1.2801600000000037
23.979000000000006,-1.1892000000002132,-1.486200000000032,-1.4364000000000239
23.999000000000006,-1.930400000000141,-1.4955999999999836,-1.3371999999999398
24.019000000000005,-2.333800000000078,-1.423199999999992,-0.8985999999998716
24.039000000000005,-2.6022857142858102,-1.2795714285713258,-0.44728571428557146
24.059000000000005,-2.7334615384615613,-1.0943076923076571,-0.33630769230767904
24.079000000000004,-2.892181818181816,-0.5015454545454023,-0.6650909090909596
24.099000000000007,-2.7781818181817455,-0.05136363636351121,-0.9244545454546077
24.119000000000007,-2.2339090909088832,-0.09327272727281484,-1.0862727272727741
24.139000000000006,-1.8077499999998716,-0.39600000000009994,-1.1053749999999591
24.159000000000006,-1.642049999999956,-0.5030500000000253,-1.0096499999999684
24.179000000000006,-1.1668181818181054,-0.616636363636326,-0.8363636363636197
24.199000000000005,-0.9410909090908615,-0.31218181818174373,-0.8212727272727226
24.219000000000005,-0.5998888888887921,0.12222222222232118,-0.8301111111111179
24.239000000000004,-0.1361428571426802,0.20271428571424568,-0.8621428571428711
24.259000000000007,0.4790000000010658,-0.17100000000090948,-1.024500000000508
24.279000000000007,0.7567999999999265,-0.8934000000002484,-1.2086000000000017
24.299000000000007,0.08066666666634914,-0.9705555555554897,-0.8214444444442253
24.319000000000006,0.04900000000014211,-0.895666666666658,-0.5303333333332876
24.339000000000006,0.4936000000000905,-0.7605999999999562,-0.6112000000000393
24.359000000000005,0.7314000000000387,-0.5972999999999846,-0.7447000000000096
24.379000000000005,1.1217500000000316,-0.3297499999999228,-0.49174999999985397
24.399000000000004,1.105545454545458,-0.033999999999932806,0.28490909090927713
24.419000000000004,1.213846153846183,0.3275384615385355,1.2187692307694233
24.439000000000007,1.5667142857145533,0.5601428571429365,2.20000000000048
24.459000000000007,1.655000000000008,0.4761304347825619,2.559217391304452
24.479000000000006,1.0138181818180065,0.16081818181815644,2.804727272727312
24.499000000000006,0.45799999999990226,0.1206666666666642,3.0956666666667587
24.519000000000005,0.661000000000148,0.09433333333334765,3.4920000000000946
24.539000000000005,1.0344545454546117,0.16436363636365098,3.669454545454573
24.559000000000005,2.6490909090911425,0.5635454545455125,3.7754545454545334
24.579000000000004,3.7477500000006834,0.9672500000003558,3.628249999999956
24.599000000000007,4.567800000000298,1.2942000000000577,3.4545999999999153
24.619000000000007,4.913000000000072,1.3452500000000112,2.8772499999995755
24.639000000000006,4.398899999999765,1.4033999999999975,1.907199999999733
24.659000000000006,3.840199999999812,1.3308999999999724,1.3101999999998442
24.679000000000006,2.8926363636361607,1.2405454545454488,0.9667272727272304
24.699000000000005,2.1639999999998825,1.2505454545454533,0.8883636363636265
24.719000000000005,1.9039999999999306,1.1616249999999964,0.8878750000000123
24.739000000000004,1.653857142857068,1.2718571428571572,0.9345714285714275
24.759000000000007,1.4934999999998526,1.2605000000000266,0.9375000000000053
24.779000000000007,1.2522999999999318,1.3540000000000303,0.8954999999999729
24.799000000000007,1.0421999999999385,1.1062999999998593,0.5785999999998817
24.819000000000006,0.8116249999999388,0.43387499999968315,0.10799999999979215
24.839000000000006,1.0017500000000967,-0.9130000000005196,-0.4767500000002059
24.859000000000005,1.045999999998959,-1.6880000000006181,-0.8660000000006004
24.879000000000005,-0.029818181818356992,-1.5185454545453656,-0.5981818181816556
24.899000000000004,-0.6376363636364368,-1.229818181818147,0.5835454545456931
24.919000000000008,-0.7793999999999907,-0.9521999999998977,1.6424000000003502
24.939000000000007,-0.6639999999999296,-0.6471999999998133,2.3542000000003886
24.959000000000007,-0.6029999999996625,-0.4849999999994813,2.6180000000003907
24.979000000000006,-0.1785999999998667,-0.22519999999997464,2.245399999999795
24.999000000000006,0.16380000000006018,-0.033999999999947766,0.9749999999996444
25.019000000000005,0.15574999999994282,0.15350000000007216,-0.2620000000003109
25.039000000000005,-0.21100000000015634,0.22466666666664376,-1.4570000000004855
25.059000000000005,-0.4030000000000249,0.23600000000000415,-2.0160000000000697
25.079000000000004,-0.4492857142856736,0.21014285714280054,-2.758000000000084
25.099000000000007,-0.23274999999991297,-0.18650000000015515,-2.5169999999998485
25.119000000000007,-0.12740000000000626,-0.7002000000002142,-1.816199999999714
25.139000000000006,-0.4052000000001751,-1.0370000000000352,-0.9835999999996381
25.159000000000006,-0.6085161290323146,-1.0070967741935346,-0.6250645161289374
25.179000000000006,-1.3362500000000606,-0.5494999999998761,0.28725000000008727
25.199000000000005,-1.271454545454515,-0.23409090909084332,0.21581818181812346
25.219000000000005,-1.0051666666665353,0.08766666666679299,-0.07250000000012138
25.239000000000004,-0.8049999999999403,0.32420000000003585,-0.3800000000000725
25.259000000000007,-0.7490000000000533,0.4747777777778383,-0.7630000000001066
25.279000000000007,-0.893478260869606,0.4982173913043518,-0.8578260869565448
25.299000000000007,-1.0449999999999942,0.15611111111102163,-0.8008888888888185
25.319000000000006,-0.8455714285712972,-0.019285714285809996,-0.37614285714265533
25.339000000000006,-0.35599999999980947,-0.2965000000001068,0.08925000000016596
25.359000000000005,0.15057142857166544,-0.9197142857146445,0.2818571428571548
25.379000000000005,0.346781250000044,-1.2767187500000838,0.18128124999997058
25.399000000000004,0.38699999999999407,-1.848666666666679,-0.28700000000000353
25.419000000000008,-0.11480000000019447,-1.003299999999666,-0.04299999999987922
25.439000000000007,-0.6955000000002778,-0.015499999999522396,0.2837500000001169
25.459000000000007,-0.8957647058824,0.3030588235294834,0.2658823529411595
25.479000000000006,-0.9067999999998272,0.9882000000000989,-0.44080000000025354
25.499000000000006,-0.46749999999985203,0.9282999999999317,-0.5828999999999583
25.519000000000005,0.13050000000019346,0.4587499999998109,-0.33862499999992135
25.539000000000005,0.3499999999999916,-0.1260000000000254,-0.25699999999999196
25.559000000000005,0.3027272727272621,-0.26903030303033537,-0.21154545454544427
25.579000000000008,0.12724999999994704,-1.0540000000002199,0.6232500000003787
25.599000000000007,0.12100000000000603,-1.618800000000164,1.4997000000002374
25.619000000000007,-0.5638000000002851,-1.6538999999999642,2.3005000000002624
25.639000000000006,-1.3937500000005922,-1.439999999999745,3.001250000000496
25.659000000000006,-1.4769090909090867,-1.348909090909073,3.135696969696989
25.679000000000006,0.04885714285754167,-1.052285714285541,1.1581428571420929
25.699000000000005,-0.13211111111134727,0.09666666666713053,-0.15400000000021313
25.719000000000005,-1.002571428571794,1.6485714285720954,-0.4661428571429959
25.739000000000004,-1.2144999999999346,3.0820000000004035,-1.033200000000175
25.759000000000007,-0.9214444444443944,4.620666666667125,-1.3635555555556056
25.779000000000007,-1.0636896551724575,5.20117241379325,-1.4191724137931172
25.799000000000007,-3.43936363636445,7.818727272727827,-1.0145454545451456
25.819000000000006,-5.422333333333858,8.55788888888896,0.6893333333339886
25.839000000000006,-6.166250000000371,7.927999999999297,2.491750000001357
25.859000000000005,-6.201483870967734,7.5416451612902335,3.0936774193549637
25.879000000000005,-4.424999999999408,6.044666666666391,3.996555555555552
25.899000000000004,-1.0059999999989648,4.3998181818176185,3.918090909090839
25.919000000000008,2.9668000000012453,-0.16590000000169747,2.8678999999996138
25.939000000000007,8.108000000000724,-7.5280000000006,1.9799999999999705
25.959000000000007,10.1434838709685,-9.217032258065146,1.896774193548356
25.979000000000006,17.733333333333857,-9.680333333332479,-0.008111111111554492
25.999000000000006,15.088599999998788,-8.131699999999881,0.12390000000023013
26.019000000000005,12.526285714285361,-13.429571428574523,-1.1541428571439896
26.039000000000005,13.349000000000226,-20.32880000000133,-5.254200000000957
26.059000000000005,14.916999999999998,-20.917999999999964,-3.3749999999996376
26.079000000000008,14.903086956521735,-20.72408695652167,-1.3358695652166825
26.099000000000007,13.59499999999952,-20.163999999999884,0.91277777777799
26.119000000000007,8.638079999999173,-19.46191999999982,0.6730000000000875
26.139000000000006,0.13099999999914605,-12.990999999999069,4.187999999999461
26.159000000000006,-2.2726363636369458,-10.372818181817548,2.6707272727269054
26.179000000000006,-6.4916111111115224,-5.299277777777213,0.6374722222221928
26.199000000000005,-9.69800000000874,-0.4419999999881126,2.6930000000103917
26.219000000000005,-16.248857142857332,13.286857142858604,8.053714285714138
26.239000000000008,-14.356777777776369,15.972722222221636,5.818222222221168
26.259000000000007,-6.633999999999651,7.965999999998896,-1.2320000000015496
26.279000000000007,-5.75845454545431,5.841999999999651,-4.773000000000835
26.299000000000007,-3.7741999999992135,5.488399999999762,-7.115300000000482
26.319000000000006,-1.9549999999997827,5.6329000000001574,-6.647999999999541
26.339000000000006,-2.418999999999891,6.215999999999425,-2.5139999999985267
26.359000000000005,-2.431363636363733,5.321454545454496,1.1808181818191246
26.379000000000005,-3.9720000000003703,6.056999999999959,3.312000000000063
26.399000000000004,-6.476818181819032,5.830909090909028,3.591818181818241
26.419000000000008,-9.808000000000309,5.495999999999998,3.744999999999784
26.439000000000007,-10.39675000000002,5.430624999999946,2.6402499999993707
26.459000000000007,-9.453857142856812,5.328999999999992,0.659428571428134
26.479000000000006,-7.617999999999632,5.1815714285714165,-0.9837142857145261
26.499000000000006,-5.609090909090461,5.587000000000157,-1.8120909090910422
26.519000000000005,-4.96500000000005,6.947000000000674,-1.7969999999997952
26.539000000000005,-5.154500000000071,8.946700000000606,-1.2207999999998362
26.559000000000005,-5.313000000000062,10.287000000000008,-0.4159999999998131
26.579000000000008,-6.114000000000244,10.108999999999753,0.9710000000003979
26.599000000000007,-6.525999999999897,9.314999999999607,1.8690000000000817
26.619000000000007,-5.937999999999634,7.931999999999098,1.9319999999997326
26.639000000000006,-3.7549999999987844,3.0709999999977704,0.6379999999997149
26.659000000000006,1.8945454545465086,-7.488272727274182,-0.7001818181820904
26.679000000000006,7.5860000000033265,-12.12700000000091,-1.4140000000004143
26.699000000000005,16.71000000000094,-14.752000000000669,-3.045000000000359
26.719000000000005,19.80299999999909,-16.822999999999045,-5.080999999999645
26.739000000000008,12.782999999997958,-10.483999999998813,-0.6269999999981023
26.759000000000007,6.694374999997908,-7.058999999998887,4.7848750000017235
26.779000000000007,4.218000000000355,-4.590999999999264,5.99199999999971
26.799000000000007,5.4220000000004775,-2.780999999999689,4.9789999999993055
26.819000000000006,6.9040000000002815,-2.344000000000068,2.7359999999993527
26.839000000000006,7.6470000000001,-2.685000000000128,0.49699999999961203
26.859000000000005,7.517999999999772,-2.880999999999763,-0.4760000000001027
26.879000000000005,6.342272727272636,-1.471727272727097,-1.1040000000002133
26.899000000000008,6.233000000000196,-0.9909999999999417,-2.077000000000093
26.919000000000008,7.098000000000316,-0.8519999999999738,-1.7799999999994982
26.939000000000007,8.279000000000098,-0.6930000000000338,0.3680000000004748
26.959000000000007,8.110363636363115,-0.8155454545454266,2.5518181818188346
26.979000000000006,6.459999999999142,-0.8839999999999737,4.123000000000266
26.999000000000006,4.1059999999994,-0.9150000000000788,4.43199999999975
27.019000000000005,2.2518181818178755,-0.985999999999937,3.382636363636168
27.039000000000005,1.3430000000000348,-0.7520000000000308,2.681999999999897
27.059000000000005,1.5040000000000073,-0.9470000000000094,1.7269999999998387
27.079000000000008,1.7396363636364278,-1.1286363636362597,0.5192727272724861
27.099000000000007,1.9220000000002457,-0.848000000000037,-0.015000000000110134
27.119000000000007,2.584000000000036,-1.0290000000000084,0.08800000000025192
27.139000000000006,2.6110000000000086,-1.0260000000000047,0.7500000000000977
27.159000000000006,2.897000000000047,-1.1170000000001996,0.7409999999998238
27.179000000000006,2.639636363636076,-1.8167272727274022,0.3472727272726801
27.199000000000005,1.5619999999997358,-2.2980000000000516,0.5560000000001073
27.219000000000005,0.17500000000014368,-2.399000000000026,0.6699999999996807
27.239000000000008,0.9919999999999469,-2.4069999999998895,-0.7650000000001317
27.259000000000007,0.010599999999579994,-2.231099999999976,-1.2462000000000015
27.279000000000007,-0.4929090909089529,-2.2187272727272704,-0.9917272727270121
27.299000000000007,-0.2249999999999771,-2.1840000000000366,-0.7340000000002802
27.319000000000006,-0.6000000000001137,-2.4860000000000806,-1.159999999999987
27.339000000000006,-0.27599999999929503,-2.337999999999913,-1.1890000000002692
27.359000000000005,1.0689999999999311,-2.2299999999999467,-1.893000000000126
27.379000000000005,0.35169999999964763,-1.9729999999998615,-2.8604000000002836
27.399000000000008,-0.7060000000000796,-1.663000000000103,-3.914000000000191
27.419000000000008,-0.538199999999593,-2.1046000000003153,-3.853099999999527
27.439000000000007,0.41500000000032183,-2.481000000000144,-2.927999999999897
27.459000000000007,0.8587272727271332,-2.9161818181819084,-2.9248181818182126
27.479000000000006,0.9216999999999538,-3.0344999999999276,-2.778599999999953
27.499000000000006,-0.06070000000036159,-2.6983999999999173,-2.9701000000002593
27.519000000000005,-0.6243999999997085,-2.701599999999983,-4.146100000000045
27.539000000000005,0.6148999999997061,-1.9313999999995344,-3.791399999999967
27.559000000000008,0.15966666666705354,-0.9001666666666681,-4.055166666666684
27.579000000000008,0.83860000000017,-0.795799999999891,-3.8242999999997385
27.599000000000007,0.19716666666721516,-0.3765000000001865,-4.321500000000543
27.619000000000007,0.9689999999991915,-0.9469999999997757,-4.768999999998948
27.639000000000006,-0.4845789473687059,-0.2722105263155304,-2.7829473684206194
27.659000000000006,-0.6930000000000984,-0.1577692307692198,-2.146230769230844
27.679000000000006,-0.8665238095237604,-0.12261904761904142,-2.3354761904761956
27.699000000000005,-0.700333333333294,-0.1016666666666617,-2.3516666666666706
27.719000000000005,1.6227999999999159,0.7803999999999693,-1.8255999999996726
27.739000000000008,0.7284999999999123,0.8853333333333208,-0.035999999999815256
27.759000000000007,0.6445185185185256,0.908666666666697,0.032333333333228326
27.779000000000007,0.8497692307695308,1.0423076923077659,-0.775230769230797
27.799000000000007,2.5761851851852127,1.554925925925984,0.43833333333352903
27.819000000000006,0.667190476190157,2.0683333333332548,1.9634285714284334
27.839000000000006,-1.238533333333445,1.7516000000000598,0.48433333333307915
27.859000000000005,-1.65240000000007,1.9876000000000493,-0.5022000000001949
27.879000000000005,-1.7348333333332935,1.7021666666665218,-1.1330000000000096
27.899000000000008,-0.6704615384611832,1.0393076923075169,-0.6529999999998376
27.919000000000008,0.03490909090920191,0.36990909090891355,-0.8089090909091958
27.939000000000007,0.55977777777795,0.20811111111144362,-1.0661111111110373
27.959000000000007,0.756399999999987,0.7772000000000343,-0.7850999999997557
27.979000000000006,0.6223999999999373,0.857999999999995,-0.4339000000002283
27.999000000000006,0.8257777777779947,0.583444444444295,-1.6404444444446598
28.019000000000005,1.3594999999999127,0.11899999999999111,-1.6498333333329922
28.039000000000005,0.7999999999998437,0.10999999999996565,-0.3199999999998054
28.059000000000008,0.2432307692306454,-0.08023076923084874,0.41669230769249543
28.079000000000008,-0.18355999999997988,0.10187999999996604,0.18751999999980645
28.099000000000007,-0.1347599999999851,0.019479999999974823,-0.28208000000014344
28.119000000000007,-0.05699999999990195,0.30360000000005394,-1.2529999999997794
28.139000000000006,0.10992857142860814,0.3787142857142955,-0.7695714285712788
28.159000000000006,0.5577272727273915,-0.20163636363635024,-1.3397272727275018
28.179000000000006,0.6345999999998041,0.029999999999975133,-1.7926000000000277
28.199000000000005,-0.018833333333494184,-0.058083333333356524,-1.6046666666665383
28.219000000000005,-0.1699999999999312,-0.30100000000001936,-0.5589999999998779
28.239000000000008,0.24824137931035517,-0.8861896551724238,-0.286034482758696
28.259000000000007,0.27306896551725124,-0.9099827586206991,-0.46672413793110645
28.279000000000007,0.29789655172414736,-0.9337758620689746,-0.6474137931035169
28.299000000000007,0.24499999999982475,-0.9292499999999413,-0.9915000000004512
28.319000000000006,-2.706250000000049,-0.05199999999996447,-1.7222499999999896
28.339000000000006,-2.8712500000000394,0.06800000000002844,-1.6872499999999917
28.359000000000005,1.0771999999999267,0.1268000000000648,0.04760000000033708
28.379000000000005,0.43599999999950256,0.20759999999977716,0.8942000000001512
28.399000000000008,-0.977538461539014,-0.22046153846162708,0.9620769230768108
28.419000000000008,-2.283999999997129,0.1960000000000608,0.2770000000005148
28.439000000000007,3.643777777776416,1.3657777777768474,2.0727777777768805
28.459000000000007,0.16759999999871944,0.16959999999982334,-0.5802000000010581
28.479000000000006,-0.5633260869565978,0.2620434782609363,-1.4043260869566725
28.499000000000006,-0.7872391304348569,0.4585652173913697,-1.84823913043493
28.519000000000005,-1.2931739130431659,0.7542173913042802,0.213913043478414
28.539000000000005,-0.3221428571426718,0.544857142857106,0.6014285714283931
28.559000000000008,-0.34299999999997544,0.650700000000112,-1.3830000000002534
28.579000000000008,-0.13499999999965007,0.7149999999997371,-2.079000000000202
28.599000000000007,0.5959999999999297,-0.009800000000111261,-2.0549999999997985
28.619000000000007,0.21439999999969112,-0.07619999999989194,-1.0661999999996041
28.639000000000006,-0.4054000000000812,0.010999999999884894,0.2482000000004579
28.659000000000006,-0.6628000000001134,-0.3657000000000731,1.2425999999999084
28.679000000000006,-1.4910000000003296,-0.27599999999962793,0.21000000000037852
28.699000000000005,-1.0463999999995295,0.2906999999997299,0.9849999999999404
28.71900000000001,0.44321428571440474,-0.7374285714286085,0.8429285714286545
28.739000000000008,0.4074285714284327,-0.43471428571419973,1.031142857142867
28.759000000000007,-0.18599999999999475,-0.14299999999999824,0.8089999999999578
28.779000000000007,-0.17123076923076458,-0.13807692307692152,0.6899230769230396
28.799000000000007,-0.15646153846153443,-0.13315384615384482,0.5708461538461214
28.819000000000006,-0.1416923076923043,-0.1282307692307681,0.4517692307692031
28.839000000000006,-0.03299999999960032,0.10500000000006396,0.13199999999984013
28.859000000000005,-0.2048888888889231,0.33450000000002605,-0.07427777777775857
28.879000000000005,-0.14527272727271986,0.10818181818178225,-0.1985454545454514
28.899000000000008,-0.16763636363645243,0.007545454545475098,-0.08018181818167432
28.919000000000008,-0.43300000000000827,0.04500000000000829,0.21900000000008496
28.939000000000007,-0.39209999999985623,0.012799999999970299,0.31939999999978264
28.959000000000007,-0.4430909090910151,-0.0861818181818148,-0.01063636363618467
28.979000000000006,-0.42566666666656106,0.15833333333339303,0.7983333333335219
28.999000000000006,-0.07859999999987986,0.16379999999991632,0.6690999999996807
29.019000000000005,0.17733333333333728,0.11100000000000947,-0.11900000000006633
29.039000000000005,0.18090000000003112,0.05169999999995694,-0.1739999999999531
29.059000000000008,0.3704545454546533,-0.10063636363639773,0.0669090909092542
29.079000000000008,0.43674999999988806,-0.07824999999997691,0.4420000000001042
29.099000000000007,-0.1533636363638997,0.3528181818186519,0.4961818181816527
29.119000000000007,-0.14536363636304284,1.1440909090905471,-0.11445454545457787
29.139000000000006,1.9250000000006404,-0.13850000000044296,-0.038499999999902085
29.159000000000006,2.205333333332975,-0.7563333333333266,0.6203333333334451
29.179000000000006,0.26429999999942694,-0.634700000000006,0.6058999999997455
29.199000000000005,-0.8874545454545835,-0.6063636363635748,-0.06518181818188817
29.21900000000001,-0.6404999999994959,-0.26074999999998555,-0.04824999999999223
29.239000000000008,-0.13699999999980342,-0.06933333333314465,0.7600000000002677
29.259000000000007,0.18990909090914088,-0.024090909091051,0.7164545454543655
29.279000000000007,0.4514000000001067,-0.2562999999999939,0.16789999999993455
29.299000000000007,0.7060000000000206,-0.24572727272727884,0.30045454545461453
29.319000000000006,0.5576666666665668,-0.23733333333331005,0.31699999999997397
29.339000000000006,0.0023999999997826593,-0.29830000000014245,-0.18960000000024435
29.359000000000005,-0.25633333333342373,-0.29999999999991944,-0.4213333333333337
29.37900000000001,-0.9443636363635655,-0.3120909090909712,-0.9215454545455153
29.399000000000008,-0.8505999999999703,-0.6192000000000031,-1.0153000000000398
29.419000000000008,-0.873000000000116,-0.2869999999997347,-1.538666666666577
29.439000000000007,-1.1943999999999988,0.27510000000011275,-0.9102999999997509
29.459000000000007,-0.6012307692305419,0.24746153846132934,-0.24746153846142446
29.479000000000006,-0.5006999999999183,0.4368000000001998,-0.2095000000000169
29.499000000000006,0.15254545454563873,0.09345454545434062,0.059272727272824524
29.519000000000005,0.3370999999998292,-0.19359999999990685,0.4169000000001775
29.539000000000005,-0.12328571428581608,-0.06985714285717418,0.7542857142856881
29.559000000000008,-0.2912000000000297,-0.208000000000086,0.5607999999998452
29.579000000000008,-0.3601111111111424,-0.18533333333324906,0.33899999999990055
29.599000000000007,-1.018076923076826,0.2022307692309698,-0.22884615384626847
29.619000000000007,-0.5954999999991788,0.3793999999995375,-1.8747999999989442
29.639000000000006,0.25566279069764275,-0.06758139534880017,-0.5993139534883052
29.659000000000006,0.15868604651159665,0.04590697674422259,-0.3944302325580735
29.679000000000006,0.06170930232555055,0.15939534883724538,-0.18954651162784175
29.699000000000005,-0.035267441860495574,0.27288372093026814,0.01533720930238991
29.71900000000001,0.09100000000022027,-0.029000000000230928,-0.15199999999968025
29.739000000000008,0.18954545454545138,-0.13872727272729177,-0.07372727272725688
29.759000000000007,0.17362857142856244,-0.16217142857143405,-0.02905714285712141
29.779000000000007,0.1530571428571344,-0.1747428571428623,0.020085714285734482
29.799000000000007,-0.22409090909078064,0.18145454545453296,0.04681818181810768
29.819000000000006,0.003000000000054001,0.133400000000029,-0.13960000000001932
29.839000000000006,0.12885714285715918,0.1844285714285707,-0.27600000000003805
29.859000000000005,0.19314285714287507,0.18157142857142777,-0.4260000000000419
29.87900000000001,0.33800000000003994,0.16674999999998724,-0.7465000000000811
29.899000000000008,0.17224999999995322,0.10312500000000266,-0.5868749999999215
29.919000000000008,0.040583333333294336,0.11062500000000222,-0.36604166666660126
29.939000000000007,0.053117647058846015,-0.14600000000004534,-0.010352941176460299
29.959000000000007,0.07781818181822234,-0.14763636363638527,0.04790909090916317
29.979000000000006,-0.029500000000091703,-0.011750000000011657,0.04999999999993783
29.999000000000006,-0.16433333333327255,-0.14166666666670852,-0.0023333333332038603
30.019000000000005,0.049000000000028424,-0.17379999999996135,0.2790000000000341
30.03900000000001,0.2056000000000383,0.0086000000000383,0.227399999999907
30.059000000000008,0.23599999999995702,-0.017200000000060965,0.06180000000000547
30.079000000000008,-0.028000000000148503,-0.023799999999911683,0.14340000000003206
30.099000000000007,-0.29179999999998985,0.12979999999998593,0.09399999999991013
30.119000000000007,-0.07079999999989996,-0.006600000000061744,0.03840000000002032
30.139000000000006,0.0958000000000125,-0.022999999999943156,0.20360000000008752
30.159000000000006,0.1424000000000034,0.2182000000000557,0.3337999999999955
30.179000000000006,0.11499999999999147,0.13479999999992154,0.3317999999999784
30.199000000000005,0.229307692307731,-0.0790000000000164,0.1836153846153308
30.21900000000001,0.46936363636372436,-0.050999999999938955,-0.12018181818194502
30.239000000000008,0.575999999999957,0.15440000000010629,-0.3486000000000344
30.259000000000007,0.18099999999946403,0.4060000000001381,-0.43171428571434023
30.279000000000007,-0.5366363636363556,0.47399999999993314,-0.4852727272726962
30.299000000000007,-0.4744444444444813,0.3245555555555483,-0.37133333333330176
30.319000000000006,-0.5041999999999761,0.2341999999999676,-0.3862000000000244
30.339000000000006,-0.35899999999991,0.06133333333320623,-0.22066666666648113
30.359000000000005,-0.0894545454544905,-0.4353636363637815,0.06700000000001033
30.37900000000001,0.12185714285735283,-0.7028571428570524,0.16057142857156312
30.399000000000008,0.3419999999999492,-0.5565999999999874,0.49640000000012585
30.419000000000008,0.11439999999998905,-0.3905999999999054,0.7486000000000383
30.439000000000007,0.3100000000001094,-0.1825999999999328,0.6921999999999163
30.459000000000007,0.4990000000000586,-0.053799999999931215,0.2113999999997233
30.479000000000006,0.5136363636362753,0.39545454545476433,-0.0875454545453183
30.499000000000006,-0.0190909090909105,0.7804545454543923,0.22609090909097768
