timestamp,acc_x,acc_y,acc_z
0.029,0.138,-0.094,-0.62
0.049,0.04345454545454546,-0.18381818181818183,-0.15490909090909086
0.069,0.10063636363636361,-0.31500000000000006,0.09100000000000003
0.089,0.03958333333333335,-0.1450833333333334,-0.1569999999999999
0.109,-0.06438461538461535,0.02330769230769229,-0.48846153846153845
0.129,-0.3313333333333333,0.12933333333333333,-0.179
0.149,-0.358,0.189,0.1615
0.169,-0.23340000000000027,-0.2938000000000006,0.3559999999999999
0.189,-0.032200000000000006,-0.06340000000000001,0.16899999999999998
0.209,-0.009559999999999992,0.04971999999999997,0.06292000000000003
0.229,0.1466,-0.2716,0.019199999999999995
0.249,0.32139999999999996,-0.33540000000000003,0.021699999999999997
0.269,0.5261,-0.1691,-0.5179
0.28900000000000003,0.8293636363636384,-0.4885454545454569,-1.028454545454546
0.30900000000000005,0.5089999999999983,-1.3049999999999997,-0.4179999999999973
0.329,1.1575000000000002,-0.8388,-0.37670000000000003
0.34900000000000003,1.0143749999999971,-1.3640000000000025,-1.0756249999999974
0.36900000000000005,0.4872499999999985,-1.6081666666666679,0.5556666666666705
0.389,0.4204,-1.4903,1.5702
0.40900000000000003,0.6235454545454551,-1.6565454545454548,1.2922727272727268
0.42900000000000005,1.043333333333334,-1.6983333333333335,0.6539999999999981
0.449,1.206,-1.6283333333333334,0.41200000000000003
0.46900000000000003,1.1078181818181805,-0.9370909090909081,-0.054545454545455785
0.48900000000000005,0.27149999999999946,-0.7535999999999994,-1.097100000000002
0.509,0.2540769230769231,0.795,-1.7895384615384615
0.529,-6.252666666666667,5.148,-1.3243333333333331
0.549,-3.8928000000000003,1.9444,-0.17079999999999998
0.5690000000000001,1.7348000000000035,0.24069999999999525,0.6160000000000077
0.5890000000000001,2.1273333333333397,-1.7060000000000124,2.276000000000014
0.609,2.2314,-1.0594,3.0672
0.629,0.469,-2.63,1.23125
0.649,1.7028,-1.7963,1.2603
0.669,2.0643333333333334,-1.7140833333333334,-0.8965000000000001
0.6890000000000001,1.0799999999999967,-1.2486666666666644,-2.4580000000000037
0.7090000000000001,1.647500000000005,-1.2165000000000004,-2.5415000000000014
0.7290000000000001,2.13842857142857,-2.355571428571442,-1.3689999999999856
0.749,0.7903333333333333,-2.198,0.9776666666666667
0.769,0.05790909090909091,-1.5290000000000001,1.6702727272727274
0.789,-3.1776666666666666,0.16153333333333342,0.6664666666666668
0.809,-2.8832,0.7513,-1.0655999999999999
0.8290000000000001,-1.0706666666666562,1.0130000000000043,-1.5106666666666684
0.8490000000000001,0.26872727272727515,1.002999999999999,-1.3879999999999972
0.869,0.1704,-0.12229999999999991,-0.7474
0.889,-0.48,-0.3970909090909091,-2.3515454545454544
0.909,-1.7586363636363638,-0.44481818181818183,-4.374454545454546
0.929,-0.8775000000000001,-0.3084,-2.968
0.9490000000000001,-0.17533333333333095,1.2380000000000082,-0.09833333333331629
0.9690000000000001,0.17520000000000271,0.04469999999998864,-0.15110000000001023
0.989,-0.19827272727272727,-0.9629090909090909,-0.826909090909091
1.009,-0.6789999999999982,-3.026999999999992,0.46666666666666456
1.029,-2.2062500000000003,-2.2672499999999998,0.8007500000000001
1.049,-1.9976666666666667,-0.5076666666666667,0.5003333333333333
1.069,-3.1945999999999906,-0.25770000000000143,-0.15260000000000412
1.089,-3.228666666666669,0.9296666666666611,-1.5783333333333247
1.109,-3.2156666666666665,1.2705238095238094,-1.8400476190476192
1.129,-2.410599999999991,0.3718000000000007,-0.5618000000000009
1.149,-1.9431111111111132,2.5711111111111147,-1.4426666666666685
1.169,-0.2846666666666473,-0.8306666666666942,-0.48533333333332096
1.1889999999999998,0.21230000000000693,-0.9925000000000175,2.2468000000000203
1.2089999999999999,0.18633333333345836,0.7423333333332902,0.6369999999999769
1.2289999999999999,-0.16242857142859524,3.008142857142829,0.7958571428571538
1.2489999999999999,1.2529999999999901,3.5896363636363633,-0.6476363636363573
1.269,2.30375,4.63,-2.022
1.289,2.2282,2.7479999999999998,-2.1662
1.309,-1.63566666666666,-1.2998888888888869,0.28055555555555167
1.329,-3.399,-1.6220000000000008,1.355333333333335
1.349,-2.5583333333333393,-1.3924166666666673,0.48458333333333475
1.369,-0.6305555555555579,-0.9942222222222233,0.5806666666666664
1.389,0.07824999999999999,-1.18325,0.37425
1.409,-0.283,-2.705,-1.412
1.429,-4.38625,-2.4515000000000002,1.09425
1.4489999999999998,-3.781000000000021,-2.944499999999996,1.429750000000001
1.4689999999999999,-1.061000000000035,-2.9894,0.6990000000000124
1.4889999999999999,1.0645999999999893,-2.703600000000003,0.5970000000000022
1.509,1.1015,-2.978,-0.5489999999999999
1.529,-0.9949999999999967,-2.651666666666668,-0.9692222222222223
1.549,-1.9433076923076926,-1.6146153846153875,-1.1103846153846146
1.569,-0.37324999999999986,-1.5365000000000002,-0.91075
1.589,1.1177272727272698,-1.472636363636365,-0.7478181818181816
1.609,1.562,-1.1436666666666666,-0.6353333333333333
1.629,1.1548749999999999,-1.15125,-0.384375
1.649,0.09988888888888695,-0.41322222222221977,0.8160000000000036
1.669,0.6308,1.5724,1.5495999999999999
1.689,0.001310344827584728,2.41244827586207,1.494
1.7089999999999999,-0.32144827586206565,2.6462413793103425,1.494
1.7289999999999999,-0.31399999999999856,0.2165454545454636,0.5460000000000033
1.7489999999999999,-0.44399999999999856,-0.5979999999999908,0.24600000000000333
1.769,2.695736842105262,-3.201684210526315,-0.6242105263157893
1.789,-1.7383333333332902,-1.0257777777777848,-1.026555555555551
1.809,1.641444444444434,-1.9255555555555532,-8.226666666666652
1.829,0.9570909090909145,-4.697272727272738,-4.70154545454549
1.849,-6.953899999999955,1.55949999999998,5.7259999999999565
1.869,-6.452000000000004,-2.6745454545454486,6.6480000000000015
1.889,-3.5559999999999943,-4.468818181818179,3.8499999999999908
1.909,-1.7114,-5.6768,3.0542
1.929,3.001000000000018,-4.811999999999996,3.49790909090909
1.9489999999999998,4.949636363636357,-4.5658181818181856,3.4747272727272667
1.9689999999999999,4.361750000000008,-0.04725000000003643,3.2830000000000075
1.9889999999999999,3.242473684210531,2.3635263157894735,2.4145263157894745
2.009,3.0584545454545395,2.4319090909090906,1.9370909090909127
2.029,7.3241999999999905,0.7525999999999694,1.8565999999999652
2.049,3.535500000000037,4.092249999999989,6.458999999999986
2.069,1.121,3.659,7.204
2.089,-0.04638461538461214,0.4082307692307743,7.007307692307696
2.109,-1.956999999999976,-0.26214285714285596,3.242285714285782
2.129,-0.994818181818157,-1.9539090909091157,-4.10018181818188
2.149,1.6045454545454638,-2.2929090909090757,-7.28118181818182
2.169,1.326166666666663,-0.012999999999986023,-6.231999999999992
2.189,0.49079999999999163,0.5529999999999988,-4.931199999999982
2.209,-0.34587500000000226,0.9107500000000021,-3.32449999999999
2.229,1.3468888888889001,0.2692222222222186,-3.6446666666666765
2.249,1.812181818181815,1.8383636363636406,-2.482636363636361
2.269,0.5040000000000106,3.032124999999997,-0.5083750000000287
2.289,1.2839000000000027,2.563200000000006,-0.8162000000000084
2.309,1.5347777777777776,2.3974444444444463,-1.3672222222222186
2.329,0.647,2.911,0.46
2.3489999999999998,2.3539999999999255,2.302666666666769,-5.658777777777804
2.3689999999999998,5.55409999999998,0.9770999999999956,-7.8201000000000045
2.389,4.474800000000031,1.2919000000000014,-7.892399999999998
2.409,2.994000000000019,0.39740000000001774,-7.1265000000000205
2.429,1.1227777777778092,-1.110999999999978,-5.584000000000023
2.449,1.4827692307692288,-2.1962307692307674,-4.712846153846155
2.469,1.956900000000002,-4.082499999999967,-4.686299999999993
2.489,2.6181111111110837,-5.800222222222199,-4.840555555555564
2.509,3.4278000000000066,-6.338300000000003,-2.536499999999985
2.529,4.210818181818183,-7.791363636363625,-0.4667272727272797
2.549,2.3273999999999906,-7.530599999999997,2.0814000000000132
2.569,2.631999999999975,-7.267499999999998,2.12875000000002
2.589,3.991250000000001,-7.262374999999998,0.562249999999993
2.609,2.953888888888899,-5.156555555555579,0.9754444444444397
2.629,3.373727272727277,-5.545727272727279,1.2530909090909121
2.649,2.8423333333333334,-4.626333333333333,2.048
2.669,3.9690000000000074,-4.284,2.4436666666666644
2.689,4.3253636363636385,-3.8573636363636385,1.6544545454545494
2.709,3.528999999999995,-3.2948000000000004,1.262199999999997
2.729,3.368400000000001,-3.299599999999999,2.080000000000013
2.749,3.6574999999999998,-3.2657,4.0821000000000085
2.769,3.808600000000001,-2.682799999999993,6.756900000000018
2.789,5.264333333333341,-1.8124444444444436,7.050111111111111
2.809,5.03633333333333,-1.2647777777777724,7.039444444444445
2.829,4.874600000000001,-0.5649999999999976,7.0493999999999994
2.8489999999999998,4.894000000000005,-0.8769999999999922,6.716000000000005
2.8689999999999998,3.7990000000000275,-0.9129999999999997,6.542000000000003
2.889,3.1563000000000088,-0.6818000000000086,6.107800000000007
2.909,3.0773999999999986,-0.023900000000005556,5.610500000000008
2.929,3.2744999999999984,-0.19849999999999868,5.150750000000001
2.949,3.9438999999999904,-0.32159999999999617,5.0542
2.969,3.565300000000013,-0.4290000000000059,4.6732000000000005
2.989,3.183,0.866,5.611
3.009,1.962545454545476,1.8217272727272582,7.426909090909066
3.029,1.4191111111111188,2.399555555555558,8.645999999999988
3.049,0.6777999999999984,2.533100000000002,9.547900000000004
3.069,0.5736000000000021,4.231700000000007,10.974900000000007
3.089,0.9499090909090903,5.76536363636364,11.044545454545451
3.109,-1.780100000000015,6.517300000000004,10.713099999999999
3.129,-5.291,6.111,10.366
3.149,-6.001222222222222,4.977999999999995,10.112888888888888
3.169,-3.248545454545421,4.674999999999999,10.188454545454547
3.189,5.583,3.103,9.279
3.209,13.347900000000037,1.718399999999995,9.701200000000005
3.229,23.539,-0.044,9.295
3.249,31.28736363636368,-1.7540000000000124,6.477272727272713
3.269,37.91850000000004,-7.285800000000046,5.866899999999994
3.289,41.068818181818216,-18.21290909090923,2.7992727272726787
3.309,45.03000000000003,-31.347300000000082,-3.6071000000000417
3.329,48.63180000000003,-41.34580000000006,-8.993200000000032
3.349,42.593,-43.516,-10.823
3.3689999999999998,27.826000000000327,-36.21900000000021,-9.025000000000055
3.389,23.17,-27.257,-3.627
3.409,20.580090909090956,-22.123363636363713,6.821636363636208
3.429,13.858090909091034,-19.283272727272745,8.135454545454582
3.449,0.1459090909093046,-17.583090909090924,1.380727272727401
3.469,-16.249599999999727,-19.957299999999954,-10.971199999999797
3.489,-25.299,-19.367,-13.091
3.509,-19.59963636363633,-19.20463636363637,-9.51390909090908
3.529,-15.692,-20.052,-4.395
3.549,-16.204,-18.12,-0.239
3.569,-16.203,-15.945,1.146
3.589,-13.34,-13.451,0.153
3.609,-8.903,-11.89,-2.079
3.629,-4.644,-11.13,-3.838
3.649,-3.615,-11.09,-4.405
3.669,-5.2829,-10.229000000000003,-3.190000000000003
3.689,-4.857400000000004,-10.023599999999998,-2.771900000000002
3.709,-4.071,-10.205,-2.323
3.729,-2.732,-10.235,-1.554
3.749,-2.815,-10.163,-0.46
3.769,-4.429,-10.196,0.266
3.789,-6.66,-9.944,0.412
3.809,-8.111,-10.064,-0.667
3.829,-7.599,-10.058,-2.23
3.849,-7.261,-9.835,-4.104
3.8689999999999998,-7.838999999999983,-9.885999999999994,-4.874999999999992
3.889,-8.128,-9.77,-3.951
3.909,-8.114,-9.309,-2.144
3.929,-6.638,-6.611,-0.307
3.949,-0.95,-4.947,-0.334
3.969,7.89,1.309,3.132
3.989,21.671,2.564,0.698
4.009,25.689,-1.414,-7.172
4.029,22.79736363636362,-2.5404545454544962,-14.7088181818182
4.049,22.339,-0.801,-13.843
4.069,20.17,-3.937,-5.44
4.089,15.451,-3.411,4.356
4.109,14.244,-0.852,5.481
4.129,14.092727272727343,-2.5364545454545153,-1.7425454545452947
4.149,11.389363636363598,-2.7574545454545163,-6.384818181818196
4.169,8.79,-0.938,-6.555
4.189,6.48,0.738,-4.069
4.209,5.21,2.006,0.175
4.229,4.606285127362367,2.5553545603944126,1.7989790468364832
4.249,4.59953081347576,2.559635579293344,1.809850041084634
4.269,4.592776499589154,2.563916598192276,1.8207210353327856
4.289,4.586022185702547,2.568197617091208,1.8315920295809365
4.309,4.579267871815941,2.5724786359901395,1.842463023829088
4.329,4.572513557929335,2.5767596548890714,1.8533340180772389
4.349,4.565759244042728,2.5810406737880034,1.8642050123253904
4.369,4.559004930156122,2.585321692686935,1.8750760065735412
4.389,4.552250616269515,2.589602711585867,1.8859470008216928
4.409,4.545496302382909,2.5938837304847984,1.8968179950698438
4.429,4.5387419884963025,2.5981647493837303,1.9076889893179951
4.449,4.531987674609696,2.6024457682826623,1.9185599835661462
4.469,4.52523336072309,2.6067267871815942,1.9294309778142975
4.489,4.518479046836483,2.6110078060805257,1.9403019720624486
4.509,4.511724732949877,2.6152888249794577,1.9511729663105999
4.529,4.5049704190632704,2.619569843878389,1.962043960558751
4.549,4.498216105176664,2.623850862777321,1.9729149548069023
4.569,4.491461791290058,2.628131881676253,1.9837859490550533
4.589,4.484707477403451,2.632412900575185,1.9946569433032049
4.609,4.477953163516845,2.6366939194741166,2.0055279375513555
4.6290000000000004,4.471198849630238,2.6409749383730485,2.016398931799507
4.649,4.464444535743632,2.64525595727198,2.027269926047658
4.669,4.457690221857026,2.649536976170912,2.038140920295809
4.689,4.450935907970419,2.653817995069844,2.0490119145439607
4.709,4.444181594083813,2.6580990139687755,2.0598829087921113
4.729,4.437427280197206,2.6623800328677074,2.070753903040263
4.749,4.4306729663106,2.666661051766639,2.081624897288414
4.769,4.4239186524239935,2.670942070665571,2.0924958915365655
4.789,4.417164338537387,2.675223089564503,2.103366885784716
4.809,4.410410024650781,2.679504108463435,2.1142378800328676
4.829,4.403655710764174,2.6837851273623663,2.1251088742810187
4.849,4.396901396877568,2.6880661462612983,2.13597986852917
4.869,4.3901470829909615,2.6923471651602298,2.1468508627773213
4.889,4.383392769104355,2.6966281840591617,2.1577218570254724
4.909,4.376638455217749,2.7009092029580937,2.1685928512736234
4.929,4.369884141331142,2.7051902218570256,2.179463845521775
4.949,4.363129827444536,2.709471240755957,2.190334839769926
4.969,4.356375513557929,2.713752259654889,2.2012058340180776
4.989,4.349621199671323,2.7180332785538206,2.212076828266228
5.009,4.342866885784717,2.7223142974527526,2.2229478225143797
5.029,4.33611257189811,2.7265953163516845,2.233818816762531
5.049,4.329358258011504,2.730876335250616,2.2446898110106823
5.069,4.322603944124897,2.735157354149548,2.255560805258833
5.089,4.315849630238291,2.73943837304848,2.2664317995069845
5.109,4.3090953163516845,2.7437193919474114,2.2773027937551356
5.1290000000000004,4.302341002465078,2.7480004108463434,2.288173788003287
5.149,4.295586688578472,2.7522814297452753,2.299044782251438
5.169,4.288832374691865,2.756562448644207,2.309915776499589
5.189,4.282078060805259,2.760843467543139,2.3207867707477403
5.209,4.2753237469186525,2.7651244864420703,2.3316577649958914
5.229,4.268569433032046,2.7694055053410023,2.3425287592440425
5.249,4.26181511914544,2.7736865242399342,2.3533997534921935
5.269,4.255060805258833,2.7779675431388657,2.364270747740345
5.289,4.248306491372227,2.7822485620377977,2.375141741988496
5.309,4.24155217748562,2.7865295809367296,2.3860127362366477
5.329,4.234797863599014,2.790810599835661,2.3968837304847987
5.349,4.228043549712408,2.795091618734593,2.40775472473295
5.369,4.221289235825801,2.799372637633525,2.418625718981101
5.389,4.214534921939195,2.8036536565324566,2.4294967132292524
5.409,4.207780608052588,2.8079346754313885,2.440367707477403
5.429,4.201026294165982,2.8122156943303205,2.4512387017255546
5.449,4.1942719802793755,2.816496713229252,2.4621096959737057
5.469,4.187517666392769,2.820777732128184,2.472980690221857
5.489,4.180763352506163,2.8250587510271155,2.4838516844700083
5.509,4.174009038619556,2.8293397699260474,2.4947226787181593
5.529,4.16725472473295,2.8336207888249794,2.5055936729663104
5.549,4.1605004108463435,2.8379018077239113,2.516464667214462
5.569,4.153746096959737,2.842182826622843,2.527335661462613
5.589,4.146991783073131,2.846463845521775,2.5382066557107645
5.609,4.140237469186524,2.8507448644207063,2.549077649958915
5.6290000000000004,4.133483155299918,2.8550258833196382,2.5599486442070667
5.649,4.126728841413311,2.85930690221857,2.5708196384552178
5.669,4.119974527526705,2.8635879211175017,2.581690632703369
5.689,4.113220213640099,2.8678689400164337,2.59256162695152
5.709,4.106465899753492,2.872149958915365,2.603432621199671
5.729,4.099711585866886,2.876430977814297,2.6143036154478225
5.749,4.092957271980279,2.880711996713229,2.6251746096959736
5.769,4.086202958093673,2.884993015612161,2.636045603944125
5.789,4.0794486442070665,2.8892740345110925,2.6469165981922758
5.809,4.07269433032046,2.8935550534100245,2.6577875924404273
5.829,4.065940016433854,2.897836072308956,2.6686585866885784
5.849,4.059185702547247,2.902117091207888,2.6795295809367294
5.869,4.052431388660641,2.90639811010682,2.6904005751848805
5.889,4.0456770747740345,2.910679129005752,2.701271569433032
5.909,4.038922760887428,2.9149601479046834,2.712142563681183
5.929,4.032168447000822,2.9192411668036153,2.7230135579293346
5.949,4.025414133114215,2.923522185702547,2.7338845521774857
5.969,4.018659819227609,2.927803204601479,2.744755546425637
5.989,4.011905505341002,2.9320842235004108,2.755626540673788
6.009,4.005151191454396,2.9363652423993427,2.7664975349219394
6.029,3.9983968775677896,2.9406462612982742,2.77736852917009
6.049,3.991642563681183,2.944927280197206,2.7882395234182415
6.069,3.984888249794577,2.9492082990961377,2.7991105176663926
6.089,3.9781339359079704,2.9534893179950696,2.809981511914544
6.109,3.971379622021364,2.9577703368940016,2.8208525061626952
6.1290000000000004,3.9646253081347576,2.9620513557929335,2.8317235004108463
6.149,3.957870994248151,2.966332374691865,2.8425944946589974
6.1690000000000005,3.9511166803615447,2.970613393590797,2.853465488907149
6.189,3.9443623664749383,2.9748944124897285,2.8643364831552995
6.209,3.937608052588332,2.9791754313886605,2.8752074774034506
6.229,3.9308537387017255,2.9834564502875924,2.8860784716516026
6.249,3.924099424815119,2.987737469186524,2.896949465899753
6.269,3.9173451109285127,2.992018488085456,2.9078204601479047
6.289,3.9105907970419063,2.9962995069843874,2.918691454396056
6.309,3.9038364831553,3.0005805258833194,2.929562448644207
6.329,3.8970821692686934,3.0048615447822513,2.940433442892358
6.349,3.890327855382087,3.0091425636811833,2.9513044371405095
6.369,3.8835735414954806,3.013423582580115,2.96217543138866
6.389,3.876819227608874,3.0177046014790467,2.973046425636812
6.409,3.870064913722268,3.0219856203779782,2.9839174198849627
6.429,3.8633105998356614,3.02626663927691,2.9947884141331143
6.449,3.856556285949055,3.030547658175842,3.0056594083812653
6.469,3.8498019720624486,3.034828677074774,3.0165304026294164
6.489,3.843047658175842,3.0391096959737056,3.0274013968775675
6.509,3.8362933442892357,3.0433907148726376,3.038272391125719
6.529,3.8295390304026293,3.047671733771569,3.04914338537387
6.549,3.822784716516023,3.051952752670501,3.0600143796220216
6.569,3.8160304026294165,3.056233771569433,3.0708853738701727
6.589,3.80927608874281,3.060514790468365,3.0817563681183238
6.609,3.8025217748562037,3.0647958093672965,3.092627362366475
6.6290000000000004,3.7957674609695973,3.0690768282662284,3.1034983566146264
6.649,3.789013147082991,3.07335784716516,3.114369350862777
6.6690000000000005,-2.551909090909088,3.3143636363636357,-0.4338181818181722
6.689,-2.6097000000000032,3.185099999999997,0.3477000000000069
6.709,-2.8517999999999994,2.9707999999999997,0.9847999999999979
6.729,-2.935363636363636,2.9660909090909082,0.8272727272727252
6.749,-2.6708000000000047,2.6278000000000064,0.1972000000000064
6.769,-2.0730000000000115,1.7510000000000112,-0.6075999999999929
6.789,-0.40860000000002367,0.6100000000000079,-1.3409999999999982
6.809,0.18180000000000984,-0.3231999999999936,-1.5481999999999965
6.829,-0.6593999999999968,-0.9305999999999957,-2.0425999999999944
6.849,-0.5348999999999972,-2.0397000000000154,-2.7042000000000055
6.869,-0.907666666666648,-3.2437777777777703,-2.9708888888888976
6.889,-1.8510000000000164,-3.4809999999999954,-2.1065999999999647
6.909,-2.3007777777777654,-3.3245555555555657,-0.7286666666667136
6.929,-2.743111111111113,-2.780111111111097,0.9973333333333607
6.949,-2.790881553398058,-2.386188349514563,1.740955339805825
6.969,-2.789017475728155,-2.381502265372168,1.7492142394822006
6.989,-2.787153398058252,-2.3768161812297732,1.7574731391585758
7.009,-2.7852893203883493,-2.3721300970873784,1.7657320388349516
7.029,-2.7834252427184465,-2.3674440129449836,1.7739909385113268
7.049,-2.7815611650485437,-2.362757928802589,1.7822498381877023
7.069,-2.779697087378641,-2.358071844660194,1.7905087378640776
7.089,-2.7778330097087376,-2.3533857605177992,1.798767637540453
7.109,-2.7759689320388348,-2.3486996763754044,1.8070265372168284
7.1290000000000004,-2.774104854368932,-2.3440135922330096,1.815285436893204
7.149,-2.772240776699029,-2.339327508090615,1.8235443365695791
7.1690000000000005,-2.770376699029126,-2.33464142394822,1.8318032362459549
7.189,-2.768512621359223,-2.3299553398058253,1.8400621359223301
7.209,-2.7666485436893202,-2.3252692556634305,1.8483210355987052
7.229,-2.7647844660194174,-2.3205831715210357,1.856579935275081
7.249,-2.7629203883495146,-2.315897087378641,1.8648388349514562
7.269,-2.7610563106796113,-2.3112110032362456,1.8730977346278317
7.289,-2.7591922330097085,-2.3065249190938513,1.881356634304207
7.309,-2.7573281553398057,-2.301838834951456,1.8896155339805825
7.329,-2.755464077669903,-2.2971527508090612,1.8978744336569577
7.349,-2.7536,-2.2924666666666664,1.9061333333333335
7.369,-2.7517359223300972,-2.2877805825242716,1.9143922330097087
7.389,-2.749871844660194,-2.283094498381877,1.9226511326860842
7.409,-2.748007766990291,-2.278408414239482,1.9309100323624595
7.429,-2.7461436893203883,-2.2737223300970872,1.939168932038835
7.449,-2.7442796116504855,-2.2690362459546924,1.9474278317152103
7.469,-2.7424155339805822,-2.2643501618122976,1.955686731391586
7.489,-2.7405514563106794,-2.259664077669903,1.9639456310679613
7.509,-2.7386873786407766,-2.254977993527508,1.9722045307443368
7.529,-2.736823300970874,-2.2502919093851133,1.980463430420712
7.549,-2.734959223300971,-2.2456058252427185,1.9887223300970875
7.569,-2.7330951456310677,-2.2409197411003237,1.9969812297734628
7.589,-2.731231067961165,-2.2362336569579284,2.0052401294498385
7.609,-2.729366990291262,-2.231547572815534,2.013499029126214
7.6290000000000004,-2.7275029126213592,-2.226861488673139,2.021757928802589
7.649,-2.7256388349514564,-2.222175404530744,2.0300168284789644
7.6690000000000005,-2.723774757281553,-2.2174893203883492,2.03827572815534
7.689,-2.7219106796116503,-2.2128032362459544,2.0465346278317154
7.709,-2.7200466019417475,-2.20811715210356,2.0547935275080906
7.729,-2.7181825242718447,-2.203431067961165,2.0630524271844664
7.749,-2.716318446601942,-2.19874498381877,2.071311326860841
7.769,-2.7144543689320386,-2.1940588996763752,2.079570226537217
7.789,-2.712590291262136,-2.1893728155339804,2.087829126213592
7.809,-2.710726213592233,-2.1846867313915856,2.096088025889968
7.829,-2.70886213592233,-2.180000647249191,2.104346925566343
7.849,-2.7069980582524273,-2.175314563106796,2.112605825242719
7.869,-2.705133980582524,-2.1706284789644013,2.1208647249190937
7.889,-2.7032699029126213,-2.1659423948220065,2.1291236245954694
7.909,-2.7014058252427184,-2.1612563106796117,2.1373825242718447
7.929,-2.6995417475728156,-2.156570226537217,2.1456414239482204
7.949,-2.697677669902913,-2.151884142394822,2.1539003236245957
7.969,-2.6958135922330095,-2.1471980582524273,2.1621592233009714
7.989,-2.6939495145631067,-2.1425119741100325,2.1704181229773463
8.009,-2.692085436893204,-2.1378258899676372,2.178677022653722
8.029,-2.690221359223301,-2.133139805825243,2.1869359223300973
8.049,-2.6883572815533983,-2.128453721682848,2.1951948220064725
8.069,-2.686493203883495,-2.123767637540453,2.2034537216828483
8.089,-2.684629126213592,-2.119081553398058,2.2117126213592235
8.109,-2.6827650485436894,-2.1143954692556632,2.219971521035599
8.129,-2.6809009708737865,-2.109709385113269,2.228230420711974
8.149000000000001,-2.6790368932038833,-2.1050233009708736,2.2364893203883502
8.169,-2.6771728155339805,-2.100337216828479,2.2447482200647255
8.189,-2.6753087378640776,-2.095651132686084,2.253007119741101
8.209,-2.673444660194175,-2.0909650485436893,2.2612660194174756
8.229,-2.671580582524272,-2.086278964401295,2.2695249190938513
8.249,-2.6697165048543687,-2.0815928802588997,2.277783818770227
8.269,-2.667852427184466,-2.076906796116505,2.2860427184466023
8.289,-2.665988349514563,-2.07222071197411,2.2943016181229776
8.309,-2.6641242718446603,-2.0675346278317153,2.302560517799353
8.329,-2.6622601941747575,-2.06284854368932,2.3108194174757286
8.349,-2.660396116504854,-2.0581624595469257,2.319078317152104
8.369,-2.6585320388349514,-2.053476375404531,2.327337216828479
8.389,-2.6566679611650486,-2.048790291262136,2.3355961165048544
8.409,-2.6548038834951457,-2.044104207119741,2.34385501618123
8.429,-2.652939805825243,-2.039418122977346,2.352113915857606
8.449,-2.65107572815534,-2.0347320388349512,2.3603728155339807
8.469,-2.649211650485437,-2.030045954692557,2.368631715210356
8.489,-13.23,12.51,5.836
8.509,-10.845833333333163,8.367499999999856,2.320749999999858
8.529,-6.396909090909069,4.017363636363594,-2.544454545454597
8.549,-6.860499999999911,2.6579999999999813,-4.124000000000034
8.569,-8.802416666666709,3.5886666666666995,-1.6556666666665723
8.589,-9.77099999999999,4.112999999999969,1.4590000000000667
8.609,-8.150181818181775,3.0853636363636214,2.0265454545454578
8.629,-5.46800000000008,2.5824999999999974,2.8374999999999386
8.649000000000001,-5.138000000000071,3.281777777777866,4.339222222222314
8.669,-6.903000000000096,4.32550000000001,4.3934999999999285
8.689,-8.544199999999975,4.0474000000000085,2.3792000000000355
8.709,-9.898999999999944,3.8844999999999903,1.1085000000000222
8.729000000000001,-10.878545454545486,4.07409090909091,0.5232727272726837
8.749,-10.960909090909084,4.0963636363636375,-0.41554545454546876
8.769,-10.788727272727275,4.916818181818204,-0.9102727272727255
8.789,-11.42999999999996,6.897999999999907,-0.1765000000000585
8.809,-11.548000000000066,8.938499999999937,1.559499999999911
8.829,-8.716999999999812,8.45399999999991,1.322999999999893
8.849,-4.548499999999839,4.971499999999777,-2.0445000000001867
8.869,-2.7970000000000197,0.6060000000001212,-4.9579999999999815
8.889,0.652499999999667,-3.4919999999996625,-4.095500000000023
8.909,9.55218181818233,-11.74345454545492,-4.675454545454552
8.929,16.423727272727312,-16.97472727272732,-3.4402727272726885
8.949,16.313272727272818,-20.26072727272725,-2.050090909090911
8.969,9.318363636363914,-15.882363636363873,0.1766363636362186
8.989,3.48390909090909,-8.5137272727269,7.45045454545521
9.009,9.978500000000476,-5.200000000000097,12.42849999999969
9.029,15.946818181818175,-7.693727272727293,4.576090909090865
9.049,11.524545454545647,-7.937000000000039,3.727272727272739
9.069,7.607999999999923,-5.222454545454371,3.0399090909090347
9.089,6.599818181818169,-2.870999999999974,0.24899999999994582
9.109,4.830500000000001,-0.599,-2.6615
9.129,1.8021818181818594,1.5697272727272515,-3.8820909090908975
9.149000000000001,-0.28950000000006476,2.4605000000000237,-4.415500000000013
9.169,-1.4472222222222917,3.0524444444444825,-4.434111111111096
9.189,-2.565,3.59,-4.146
9.209,-3.5621111111111023,3.925444444444442,-3.803222222222227
9.229000000000001,-3.9703333333333393,3.8921111111111117,-2.950999999999961
9.249,-3.90999999999999,3.743999999999981,-1.747499999999953
9.269,-3.5260909090908976,2.8360909090908897,-1.0459999999999945
9.289,-2.114500000000067,1.618000000000041,-0.7875000000000075
9.309,-1.0040909090909496,0.37590909090917257,-0.7085454545454521
9.329,-0.3954999999999814,-1.5515000000000996,-0.9770000000000197
9.349,-0.5160000000000228,-4.100000000000109,-1.3230000000000057
9.369,-1.2999999999999643,-5.030181818181833,-0.6570000000000407
9.389,-2.1344999999999885,-4.193500000000034,0.8634999999999381
9.409,-1.82999999999996,-3.7194999999999876,1.820000000000021
9.429,-0.9022222222222145,-3.4592222222222175,2.0654444444444455
9.449,-0.8419999999999748,-2.982000000000034,2.2494999999999985
9.469,-1.5201111111110683,-2.2323333333333455,1.6577777777778435
9.489,-2.1120000000000267,-2.409000000000023,0.239999999999922
9.509,-3.028800000000018,-2.964600000000008,-1.1652000000000151
9.529,-4.106909090909073,-2.857909090909099,-1.6420909090909068
9.549,-5.0229999999999775,-2.2915000000000223,-1.670000000000002
9.569,-4.836181818181794,-2.193727272727282,-1.9118181818181932
9.589,-3.165846153846126,-2.8080000000000167,-2.1683076923076956
9.609,-0.9335,-4.696,-2.344
9.629,-0.5065384615384654,-4.544999999999982,-1.4155384615384454
9.649000000000001,-0.5219999999999767,-2.700090909090861,-0.10609090909088273
9.669,1.2335,-1.535,0.406
9.689,3.3436666666666244,-0.9337777777778148,1.0322222222221797
9.709,3.7313846153846093,0.9427692307692528,2.3180769230769354
9.729000000000001,2.629583333333297,2.5894166666666987,3.214833333333347
9.749,1.2773999999999617,3.505200000000016,3.552000000000007
9.769,0.5487999999999956,3.606599999999997,3.8000000000000043
9.789,0.48022222222222016,3.174333333333341,3.898666666666667
9.809,0.9455454545454285,2.384818181818223,3.9365454545454512
9.829,1.443500000000027,1.828999999999982,4.088500000000011
9.849,2.0705000000000306,1.3764999999999792,4.201999999999999
9.869,2.385083333333333,1.1615,4.156916666666667
9.889,2.5745277777777664,1.0315000000000076,4.100805555555559
9.909,3.9883636363636454,0.08118181818181777,3.4868181818181796
9.929,4.064636363636356,0.16563636363636705,3.5127272727272723
9.949,3.4467272727272866,0.28890909090908873,3.282363636363643
9.969,2.2730000000000863,0.5305555555555306,2.659444444444487
9.989,1.0981818181817873,0.848363636363642,2.003545454545433
10.009,0.2869999999999714,0.9104999999999982,1.364999999999976
10.029,-0.20179999999999265,0.8372000000000026,0.9508000000000053
10.049,-0.6331818181818113,0.6877272727272745,0.856636363636361
10.069,-0.9065000000000004,0.6214999999999975,1.19050000000002
10.089,-0.7322222222222181,0.46588888888888674,1.6302222222222265
10.109,-0.20160000000001072,0.20780000000000562,1.9697999999999947
10.129,0.38688888888888284,-0.025444444444442896,2.134777777777778
10.149000000000001,0.8131111111111254,-0.16677777777778285,1.9867777777777704
10.169,1.2370000000000152,-0.3180000000000076,1.8109999999999897
10.189,1.4967777777777815,-0.33722222222221776,1.5418888888888775
10.209,1.4125,-0.2375,1.0915
10.229000000000001,1.3037499999999975,-0.17358333333333092,0.5047499999999833
10.249,1.1349999999999956,-0.10719999999999971,-0.21200000000001068
10.269,0.8013333333333281,-0.023555555555552575,-0.6457777777777813
10.289,0.2530000000000254,0.16350000000000292,-0.8389999999999962
10.309,-0.17527272727271287,0.1757272727272637,-0.7960909090909161
10.329,-0.551500000000009,0.3384999999999975,-0.5294999999999914
10.349,-0.6915,0.0155,-0.4255
10.369,-0.5314545454545512,0.031090909090904034,-0.5014545454545409
10.389,-0.3174545454545481,0.07736363636363709,-0.6051818181818184
10.409,-0.2423124999999987,0.023812499999998446,-0.5063749999999965
10.429,-0.2806666666666639,-0.038555555555547336,-0.040888888888872765
10.449,-0.05459999999999347,0.1041999999999974,0.4120000000000053
10.469,0.4624444444444249,-0.1462222222222148,0.5396666666666633
10.489,0.867090909090919,-0.1167272727272643,0.6796363636363713
10.509,0.9809090909090916,-0.0029999999999974145,0.9461818181818242
10.529,0.8763999999999962,0.3778000000000088,1.2978000000000036
10.549,0.7543999999999983,0.5998000000000043,1.1918000000000164
10.569,1.518000000000051,-0.7020000000000957,0.03049999999993075
10.589,2.903545454545469,-3.23827272727276,-1.7971818181818398
10.609,2.3030000000000337,-3.5301818181818434,-2.070000000000019
10.629,-0.10618181818178901,-1.7013636363636593,-0.04736363636366514
10.649000000000001,-1.3537777777778,-0.4766666666666355,1.2358888888889155
10.669,-1.3401249999999933,0.02012500000000235,1.6872500000000021
10.689,-0.8388461538461591,0.14992307692307477,1.7874615384615373
10.709,-0.3261666666666819,0.5393333333333242,1.8963333333333314
10.729000000000001,0.39016666666670596,0.7566666666666734,1.7124999999999804
10.749,1.0759999999999952,0.4214000000000064,0.9079000000000098
10.769,1.205199999999996,-0.22040000000001095,-0.2460000000000213
10.789,0.34137500000003684,-0.4846249999999999,-1.281499999999975
10.809,-0.9327499999999709,-0.22275000000000994,-1.9869166666666522
10.829,-1.8801000000000114,0.0682000000000027,-2.601600000000009
10.849,-2.22,0.246,-2.833666666666667
10.869,-2.0948000000000064,0.353799999999998,-2.553600000000012
10.889,-1.7183333333333397,0.328833333333337,-1.6056666666666928
10.909,-1.6818333333333355,0.21499999999999764,-0.6764166666666227
10.929,-1.9630000000000027,0.11009090909090777,0.12954545454545946
10.949,-2.2576363636363643,-0.03181818181818256,0.6877272727272765
10.969,-1.943,-0.0545,1.0659999999999998
10.989,-0.9676923076922376,-0.07092307692307669,1.202846153846155
11.009,0.0027272727272910913,0.02745454545455121,1.1488181818181795
11.029,0.5192999999999963,0.13420000000000007,0.9986000000000019
11.049,0.7459999999999964,-0.02208333333332589,0.6289166666666801
11.069,0.5538999999999675,-0.2486000000000109,-0.05790000000005227
11.089,0.3218333333333315,-0.34500000000000175,-0.6184166666666759
11.109,0.5624545454545498,-0.7590909090909134,-0.8711818181818177
11.129,0.7601818181818164,-1.0244545454545444,-0.5310909090909053
11.149000000000001,0.10499999999994669,-0.3926666666666127,-0.0066666666666348184
11.169,-0.70354545454546,0.24790909090909435,-0.17054545454545883
11.189,-1.3910000000000107,0.5476363636363687,-0.7347272727272784
11.209,-2.1881999999999944,0.8803999999999981,-0.6905000000000037
11.229000000000001,-2.438200000000003,1.1983000000000334,0.016700000000057724
11.249,-2.6780999999999966,1.9107999999999914,0.7739999999999931
11.269,-3.3034545454545525,3.366363636363651,1.355727272727275
11.289,-4.4226363636363475,5.28263636363634,1.5858181818181836
11.309,-5.694199999999988,5.640600000000005,0.75170000000001
11.329,-6.6342500000000415,4.572166666666611,-0.610833333333396
11.349,-7.444833333333347,3.7888333333333195,-0.9799166666666616
11.369,-7.328333333333333,2.961666666666667,-0.3583333333333333
11.389,-4.7896363636365304,1.5533636363637529,0.09454545454546098
11.409,-2.0829999999999815,-2.156200000000073,-1.3930000000000524
11.429,-0.4347272727272473,-5.357909090909115,-2.612454545454537
11.449,5.1045999999999285,-8.432499999999965,-0.9529000000000258
11.469,13.021333333333333,-10.868666666666666,1.6036666666666668
11.489,18.196083333333558,-11.10233333333334,1.5590833333333294
11.509,20.179499999999987,-11.763000000000044,2.297500000000032
11.529,19.353200000000037,-13.005399999999927,1.2484000000001458
11.549,17.899538461538476,-14.61446153846153,-3.9915384615384166
11.569,15.87649999999992,-15.08800000000001,-5.2594999999999414
11.589,10.925000000000056,-14.90360000000001,-1.2997000000000414
11.609,4.931916666666805,-12.542416666666746,3.1929999999998904
11.629,2.4734000000000065,-8.912399999999934,6.002600000000021
11.649000000000001,3.78427272727281,-5.726909090908933,5.560818181818103
11.669,3.3243333333333336,-1.234,4.078
11.689,-2.91972727272733,6.512090909090981,4.704090909090923
11.709,-10.928999999999633,15.308999999999672,6.902499999999917
11.729000000000001,-14.484666666666502,15.311666666666202,5.389666666666355
11.749,-8.809499999999895,7.434416666666541,-1.0140000000001228
11.769,-5.528599999999978,3.5859999999999768,-4.260600000000003
11.789,-5.138,3.731,-1.3573333333333335
11.809,-6.355454545454479,3.4613636363636813,2.515818181818031
11.829,-7.5866250000000095,2.2199999999999838,5.3625000000000345
11.849,-7.903230769230772,2.1803846153846247,7.065615384615394
11.869,-8.038583333333326,3.127749999999977,6.761833333333365
11.889,-8.765272727272714,4.269818181818165,5.152636363636388
11.909,-9.516000000000036,5.035000000000023,3.4399999999999054
11.929,-9.83375,4.920916666666659,1.7586666666666502
11.949,-9.684375000000012,4.8713749999999925,1.4827499999999998
11.969,-9.138500000000025,5.005000000000001,1.1720000000000352
11.989,-8.398111111111065,4.848555555555546,-0.07533333333340242
12.009,-7.972000000000002,5.405999999999991,-0.41410000000000086
12.029,-7.727142857142863,6.381999999999985,0.04771428571427627
12.049,-7.507100000000001,6.7349,0.4280999999999969
12.069,-7.795666666666689,6.604999999999981,0.8838333333333557
12.089,-7.678399999999991,5.682199999999976,1.3394000000000061
12.109,-6.857000000000023,4.099000000000048,1.5872499999999952
12.129,-4.599875000000125,0.04800000000021454,1.2525000000000286
12.149000000000001,3.1965000000003774,-10.742000000000427,-2.2520000000001836
12.169,16.82933333333333,-18.752,-6.155666666666667
12.189,21.693333333333417,-18.08666666666675,-2.499999999999962
12.209,20.852666666666668,-18.070333333333334,-4.0760000000000005
12.229000000000001,9.488249999999407,-11.976249999999743,-0.21049999999975655
12.249,4.866499999999945,-10.082499999999952,2.4915000000001037
12.269,6.858333333333213,-7.530555555555662,4.663666666666599
12.289,9.355333333333334,-5.148333333333333,4.147666666666667
12.309000000000001,8.029999999999848,-4.219999999999937,1.5724999999999225
12.329,4.29519999999976,-1.6343999999997916,1.371600000000025
12.349,1.237,1.0175,1.033
12.369,-1.855000000000041,2.838000000000023,-0.31800000000002326
12.389,-3.39219999999997,3.7451999999999805,-1.756599999999949
12.409,-3.4411428571428293,4.179000000000015,-3.0747142857143843
12.429,-3.122999999999995,4.080333333333325,-3.6793333333333385
12.449,-3.0848181818181812,3.998272727272726,-2.887818181818201
12.469,-3.0570000000000026,3.8564545454545494,-1.6646363636363806
12.489,-2.2829166666666163,3.405916666666634,-0.7423333333332982
12.509,-1.160571428571347,2.192142857142755,-0.706857142857179
12.529,0.029000000000000026,0.5195,-1.5295
12.549,1.8499999999999248,-1.5879999999999104,-2.8373333333332833
12.569,2.651000000000012,-3.1098000000000545,-2.9627999999999632
12.589,1.6286153846154032,-3.0693076923076963,-1.1574615384615685
12.609,-0.3884000000000342,-2.4591999999999876,1.408000000000036
12.629,-1.6396666666666668,-1.8336666666666666,3.2643333333333335
12.649000000000001,-2.2630000000000337,-0.8699999999999481,4.437250000000036
12.669,-2.6067272727272734,-0.1677272727272674,4.369181818181816
12.689,-2.168900000000006,0.12620000000000417,3.227300000000015
12.709,-1.484799999999993,-0.6526000000000156,1.2213999999999645
12.729000000000001,-1.5952727272727518,-0.9980909090909086,-0.06572727272731355
12.749,-1.7036363636363632,-0.847181818181817,-0.23645454545454547
12.769,-1.5318571428571395,-0.609714285714282,-0.32485714285714384
12.789,-0.6967500000000273,-0.23550000000000632,-0.3152500000000009
12.809000000000001,0.5120000000000655,-0.122,-0.23579999999999426
12.829,1.138,-0.139,-0.04400000000000001
12.849,1.2347316933638446,-0.2981281464530892,0.20354061784897023
12.869,1.2339651029748284,-0.29849427917620136,0.2050852402745995
12.889,1.2331985125858125,-0.29886041189931345,0.20662986270022876
12.909,1.2324319221967963,-0.2992265446224256,0.20817448512585815
12.929,1.2316653318077804,-0.29959267734553774,0.2097191075514874
12.949,1.2308987414187644,-0.2999588100686499,0.21126372997711668
12.969,1.2301321510297485,-0.300324942791762,0.21280835240274593
12.989,1.2293655606407323,-0.3006910755148741,0.21435297482837531
13.009,1.2285989702517164,-0.30105720823798626,0.2158975972540046
13.029,1.2278323798627002,-0.30142334096109835,0.21744221967963384
13.049,1.2270657894736843,-0.3017894736842105,0.2189868421052631
13.069,1.2262991990846683,-0.30215560640732264,0.2205314645308925
13.089,1.2255326086956522,-0.3025217391304348,0.22207608695652176
13.109,1.2247660183066362,-0.3028878718535469,0.223620709382151
13.129,1.2239994279176203,-0.303254004576659,0.22516533180778026
13.149000000000001,1.2232328375286041,-0.30362013729977116,0.22670995423340967
13.169,1.2224662471395882,-0.3039862700228833,0.22825457665903892
13.189,1.2216996567505722,-0.3043524027459954,0.22979919908466817
13.209,1.220933066361556,-0.30471853546910754,0.23134382151029745
13.229000000000001,1.2201664759725401,-0.3050846681922197,0.23288844393592684
13.249,1.219399885583524,-0.30545080091533183,0.2344330663615561
13.269,1.218633295194508,-0.3058169336384439,0.23597768878718534
13.289,1.217866704805492,-0.30618306636155607,0.2375223112128146
13.309000000000001,1.217100114416476,-0.3065491990846682,0.239066933638444
13.329,1.21633352402746,-0.3069153318077803,0.24061155606407325
13.349,1.215566933638444,-0.30728146453089245,0.24215617848970253
13.369,1.214800343249428,-0.3076475972540046,0.24370080091533178
13.389,1.214033752860412,-0.3080137299771167,0.24524542334096103
13.409,1.213267162471396,-0.3083798627002288,0.24679004576659042
13.429,1.2125005720823798,-0.30874599542334097,0.2483346681922197
13.449,1.2117339816933639,-0.30911212814645306,0.24987929061784894
13.469,1.210967391304348,-0.3094782608695652,0.2514239130434782
13.489,1.2102008009153318,-0.30984439359267735,0.2529685354691076
13.509,1.2094342105263158,-0.3102105263157895,0.25451315789473683
13.529,1.2086676201373,-0.3105766590389016,0.25605778032036614
13.549,1.2079010297482837,-0.3109427917620137,0.2576024027459954
13.569,1.2071344393592678,-0.31130892448512587,0.2591470251716248
13.589,1.2063678489702516,-0.311675057208238,0.26069164759725405
13.609,1.2056012585812357,-0.3120411899313501,0.2622362700228833
13.629,1.2048346681922197,-0.31240732265446225,0.26378089244851255
13.649000000000001,1.2040680778032036,-0.3127734553775744,0.26532551487414197
13.669,1.2033014874141876,-0.3131395881006865,0.2668701372997712
13.689,1.2025348970251717,-0.31350572082379863,0.26841475972540046
13.709,1.2017683066361557,-0.3138718535469108,0.2699593821510297
13.729000000000001,1.2010017162471396,-0.3142379862700229,0.27150400457665913
13.749,1.2002351258581236,-0.314604118993135,0.2730486270022884
13.769,1.1994685354691075,-0.31497025171624715,0.27459324942791763
13.789,1.1987019450800915,-0.31533638443935924,0.2761378718535469
13.809000000000001,1.1979353546910754,-0.31570251716247144,0.2776824942791763
13.829,1.1971687643020594,-0.31606864988558353,0.27922711670480554
13.849,1.1964021739130435,-0.3164347826086957,0.2807717391304348
13.869,1.1956355835240275,-0.31680091533180776,0.28231636155606404
13.889,1.1948689931350114,-0.3171670480549199,0.28386098398169335
13.909,1.1941024027459954,-0.31753318077803205,0.2854056064073227
13.929,1.1933358123569795,-0.3178993135011442,0.28695022883295196
13.949,1.1925692219679633,-0.3182654462242563,0.2884948512585812
13.969,1.1918026315789474,-0.31863157894736843,0.29003947368421046
13.989,1.1910360411899312,-0.3189977116704806,0.2915840961098399
14.009,1.1902694508009153,-0.31936384439359267,0.2931287185354691
14.029,1.1895028604118993,-0.3197299771167048,0.29467334096109843
14.049,1.1887362700228834,-0.32009610983981696,0.2962179633867277
14.069,1.1879696796338672,-0.3204622425629291,0.29776258581235704
14.089,1.1872030892448513,-0.3208283752860412,0.2993072082379863
14.109,1.1864364988558351,-0.32119450800915333,0.30085183066361554
14.129,1.1856699084668192,-0.3215606407322654,0.30239645308924484
14.149000000000001,1.1849033180778032,-0.3219267734553776,0.3039410755148742
14.169,1.184136727688787,-0.3222929061784897,0.3054856979405035
14.189,1.1833701372997711,-0.32265903890160186,0.30703032036613276
14.209,1.1826035469107552,-0.32302517162471395,0.308574942791762
14.229000000000001,1.181836956521739,-0.3233913043478261,0.31011956521739137
14.249,1.181070366132723,-0.32375743707093824,0.3116641876430206
14.269,1.1803037757437072,-0.3241235697940504,0.3132088100686499
14.289,1.179537185354691,-0.32448970251716247,0.3147534324942792
14.309000000000001,1.178770594965675,-0.3248558352402746,0.3162980549199086
14.329,1.1780040045766589,-0.32522196796338676,0.31784267734553784
14.349,1.177237414187643,-0.32558810068649885,0.3193872997711671
14.369,1.176470823798627,-0.325954233409611,0.32093192219679634
14.389,1.175704233409611,-0.32632036613272314,0.3224765446224256
14.409,1.174937643020595,-0.3266864988558353,0.324021167048055
14.429,1.174171052631579,-0.3270526315789474,0.32556578947368425
14.449,1.1734044622425628,-0.3274187643020595,0.3271104118993135
14.469,1.1726378718535468,-0.3277848970251716,0.3286550343249428
14.489,1.1718712814645307,-0.3281510297482838,0.33019965675057217
14.509,1.1711046910755147,-0.3285171624713959,0.3317442791762014
14.529,1.1703381006864988,-0.32888329519450804,0.33328890160183067
14.549,1.1695715102974829,-0.32924942791762013,0.3348335240274599
14.569,1.1688049199084667,-0.3296155606407323,0.33637814645308933
14.589,1.1680383295194507,-0.3299816933638444,0.3379227688787186
14.609,-20.654,18.484,12.07
14.629,-1.173,-0.142,-10.736
14.649000000000001,-5.378000000000346,1.677000000000206,-8.869666666666399
14.669,-10.310833333333441,4.551000000000065,-2.388499999999774
14.689,-8.357090909090836,4.615999999999986,2.200727272727331
14.709,-5.177090909091004,4.119272727272699,5.326636363636216
14.729000000000001,-6.2890000000002075,5.534000000000118,6.483999999999966
14.749,-8.188500000000065,6.494166666666692,5.767333333333286
14.769,-8.669333333333336,6.287166666666683,3.3661666666667376
14.789,-8.329749999999994,5.2401249999999715,0.40249999999992436
14.809000000000001,-8.322,4.709999999999995,-1.6210000000000673
14.829,-8.225,4.767,-2.065
14.849,-7.359,5.733,-1.228
14.869,-7.71,7.495,-0.175
14.889,-9.038099999999925,9.288999999999891,0.759099999999938
14.909,-9.752333333333368,10.49050000000005,1.6236666666667041
14.929,-10.162,10.277,1.722
14.949,-8.654909090909054,7.910181818181755,0.8014545454545206
14.969,-8.339,4.747,0.042
14.989,-6.172272727272551,1.606454545454344,1.861363636363738
15.009,2.779,-9.187,1.467
15.029,19.503,-19.253,-1.281
15.049,23.46400000000003,-17.914000000000083,0.7632499999998988
15.069,14.772999999999527,-12.316499999999742,1.6093333333332893
15.089,7.509199999999694,-10.411999999999928,-0.8128000000001361
15.109,5.511000000000012,-10.07739999999999,-2.218399999999967
15.129,7.883,-9.979,-3.388
15.149000000000001,10.309888888888947,-9.121333333333304,-4.681777777777819
15.169,9.491636363636323,-7.699181818181778,-4.68254545454544
15.189,6.279999999999927,-5.7554545454545085,-2.8734545454545044
15.209,3.594,-4.964,-1.901
15.229000000000001,2.472000000000029,-3.6789999999999075,-0.42299999999989746
15.249,3.271,-2.725,0.666
15.269,4.684181818181805,-1.9001818181818393,1.1724545454545268
15.289,4.7968333333333435,-1.0703333333333565,1.7519999999999885
15.309000000000001,4.061908496732018,-0.4395555555555516,1.8877254901960783
15.329,3.941647058823524,-0.3839999999999974,1.8869411764705881
15.349,3.82138562091503,-0.3284444444444432,1.886156862745098
15.369,3.7011241830065362,-0.27288888888888896,1.8853725490196078
15.389,3.5808627450980426,-0.21733333333333477,1.8845882352941177
15.409,3.460601307189538,-0.16177777777777563,1.8838039215686273
15.429,3.340339869281044,-0.10622222222222144,1.8830196078431372
15.449,3.2200784313725506,-0.05066666666666719,1.882235294117647
15.469,-4.862,2.174,-0.879
15.489,-1.4344285714285467,2.589142857142851,0.6221428571428647
15.509,-1.391,2.249,0.433
15.529,-2.161749999999989,2.098666666666666,-0.03966666666666193
15.549,-2.496999999999993,2.0450000000000084,-0.35319999999997675
15.569,-2.058166666666649,1.3979166666666443,-1.2825000000000275
15.589,-1.0303076923076675,0.24546153846150293,-2.276076923076944
15.609,-0.7116000000000041,-0.5017999999999683,-2.495400000000001
15.629,-0.8682999999999982,-1.3836999999999793,-1.8244000000000273
15.649000000000001,-0.8613333333333314,-1.9694166666666795,-0.8805833333333075
15.669,-0.8255833333333336,-2.2514166666666706,0.19558333333336136
15.689,-0.854,-1.9,1.532
15.709,-0.9943333333333231,-1.282666666666681,2.4191333333333263
15.729000000000001,-1.1999333333333426,-0.731933333333325,2.811533333333335
15.749,-1.3837500000000107,-0.5482499999999875,2.757999999999989
15.769,-1.5014000000000027,-0.5798000000000056,2.4639999999999906
15.789,-1.5753333333333326,-0.5808888888888957,1.7727777777778009
15.809000000000001,-1.6412857142857167,-0.5983571428571569,1.203571428571403
15.829,-1.5254545454545352,-0.4881818181818016,1.0282727272727323
15.849,-0.5739999999999729,0.13472727272729124,1.3826363636363717
15.869,1.510769230769169,1.0636153846153493,2.03446153846151
15.889000000000001,3.870083333333323,2.5881666666667145,-0.07033333333364516
15.909,3.60325,3.3495,-4.984500000000001
15.929,2.6093333333332724,3.4102222222222034,-9.087555555555717
15.949,2.949428571428555,0.7314285714286032,-7.740785714285844
15.969,3.038071428571448,-0.25685714285714495,-1.3134285714286444
15.989,1.955249999999944,-0.29575000000000884,1.6292500000001024
16.009,0.8502222222221534,-0.27722222222223036,2.7412222222222793
16.029,0.12359999999997506,0.5829000000000585,3.472999999999989
16.049,-0.025124999999997503,1.1306250000000022,3.008999999999985
16.069,0.8911111111110472,0.7927777777777989,1.734555555555632
16.089,1.423,0.868,0.871
16.109,1.6027000000000124,0.701299999999979,0.39749999999995805
16.129,1.7269285714285676,0.44321428571428345,-0.20857142857145342
16.149,1.4411249999999218,0.39812499999999307,-0.661625000000063
16.169,0.35418181818187167,0.05827272727274693,-0.8274545454545478
16.189,-0.6526666666666212,-0.1363333333333278,-0.19166666666670656
16.209,-1.087245007306381,-0.12104091573307355,0.2225017048222115
16.229,-1.0893200194836825,-0.12110910862152946,0.2266712128592304
16.249,-1.091395031660984,-0.12117730150998539,0.2308407208962493
16.269000000000002,-1.0934700438382858,-0.12124549439844132,0.23501022893326895
16.289,-1.0955450560155873,-0.12131368728689723,0.23917973697028785
16.309,-1.0976200681928887,-0.12138188017535315,0.24334924500730676
16.329,-1.0996950803701901,-0.12145007306380906,0.24751875304432566
16.349,-1.1017700925474916,-0.12151826595226498,0.25168826108134457
16.369,-1.103845104724793,-0.12158645884072089,0.2558577691183635
16.389,-1.1059201169020945,-0.1216546517291768,0.2600272771553824
16.409,-1.1079951290793961,-0.12172284461763273,0.2641967851924013
16.429,-1.1100701412566976,-0.12179103750608865,0.2683662932294202
16.449,-1.1121451534339992,-0.12185923039454458,0.27253580126643984
16.469,-1.1142201656113009,-0.12192742328300049,0.27670530930345877
16.489,-1.1162951777886023,-0.1219956161714564,0.28087481734047764
16.509,-1.1183701899659038,-0.12206380905991232,0.2850443253774966
16.529,-1.1204452021432052,-0.12213200194836824,0.28921383341451545
16.549,-1.1225202143205066,-0.12220019483682416,0.2933833414515344
16.569,-1.124595226497808,-0.12226838772528008,0.2975528494885533
16.589,-1.1266702386751095,-0.12233658061373599,0.3017223575255722
16.609,-1.1287452508524114,-0.12240477350219192,0.30589186556259185
16.629,-1.1308202630297128,-0.12247296639064784,0.3100613735996107
16.649,-1.1328952752070143,-0.12254115927910375,0.31423088163662966
16.669,-1.1349702873843157,-0.12260935216755967,0.3184003896736486
16.689,-1.1370452995616174,-0.1226775450560156,0.32256989771066746
16.709,-1.1391203117389188,-0.12274573794447151,0.32673940574768634
16.729,-1.1411953239162203,-0.12281393083292742,0.33090891378470527
16.749,-1.1432703360935217,-0.12288212372138334,0.3350784218217242
16.769000000000002,-1.1453453482708236,-0.12295031660983927,0.33924792985874386
16.789,-1.147420360448125,-0.12301850949829518,0.34341743789576273
16.809,-1.1494953726254264,-0.1230867023867511,0.3475869459327816
16.829,-1.1515703848027279,-0.12315489527520701,0.35175645396980054
16.849,-1.1536453969800293,-0.12322308816366294,0.3559259620068195
16.869,-1.1557204091573308,-0.12329128105211885,0.36009547004383835
16.889,-1.1577954213346322,-0.12335947394057477,0.3642649780808573
16.909,-1.1598704335119336,-0.12342766682903068,0.3684344861178762
16.929,-1.161945445689235,-0.1234958597174866,0.3726039941548951
16.949,-1.164020457866537,-0.12356405260594253,0.37677350219191474
16.969,-1.1660954700438384,-0.12363224549439844,0.3809430102289336
16.989,-1.1681704822211398,-0.12370043838285437,0.38511251826595255
17.009,-1.1702454943984415,-0.12376863127131028,0.3892820263029715
17.029,-1.172320506575743,-0.1238368241597662,0.39345153433999036
17.049,-1.1743955187530444,-0.12390501704822211,0.39762104237700924
17.069,-1.1764705309303458,-0.12397320993667803,0.40179055041402817
17.089,-1.1785455431076473,-0.12404140282513394,0.4059600584510471
17.109,-1.1806205552849491,-0.12410959571358987,0.41012956648806675
17.129,-1.1826955674622506,-0.12417778860204579,0.41429907452508563
17.149,-1.184770579639552,-0.12424598149050171,0.4184685825621045
17.169,-1.1868455918168535,-0.12431417437895763,0.42263809059912344
17.189,-1.188920603994155,-0.12438236726741354,0.42680759863614237
17.209,-1.1909956161714563,-0.12445056015586946,0.43097710667316125
17.229,-1.193070628348758,-0.12451875304432537,0.4351466147101801
17.249,-1.1951456405260594,-0.12458694593278129,0.43931612274719906
17.269000000000002,-1.197220652703361,-0.12465513882123722,0.4434856307842187
17.289,-1.1992956648806627,-0.12472333170969314,0.44765513882123764
17.309,-1.2013706770579642,-0.12479152459814906,0.4518246468582565
17.329,-1.2034456892352656,-0.12485971748660497,0.4559941548952754
17.349,-1.205520701412567,-0.12492791037506089,0.4601636629322943
17.369,-1.2075957135898685,-0.1249961032635168,0.46433317096931326
17.389,-1.20967072576717,-0.12506429615197273,0.46850267900633213
17.409,-1.2117457379444714,-0.12513248904042865,0.472672187043351
17.429000000000002,-1.2138207501217733,-0.12520068192888456,0.47684169508037066
17.449,-1.2158957622990747,-0.12526887481734048,0.48101120311738965
17.469,-1.2179707744763761,-0.1253370677057964,0.48518071115440853
17.489,-1.2200457866536776,-0.1254052605942523,0.4893502191914274
17.509,-1.222120798830979,-0.12547345348270825,0.4935197272284463
17.529,-1.2241958110082805,-0.12554164637116416,0.49768923526546527
17.549,-1.2262708231855821,-0.12560983925962008,0.5018587433024841
17.569,-1.2283458353628836,-0.125678032148076,0.506028251339503
17.589,-1.230420847540185,-0.1257462250365319,0.510197759376522
17.609,-1.2324958597174869,-0.12581441792498782,0.5143672674135416
17.629,-1.2345708718947883,-0.12588261081344373,0.5185367754505605
17.649,-1.2366458840720898,-0.12595080370189965,0.5227062834875794
17.669,-1.2387208962493912,-0.1260189965903556,0.5268757915245983
17.689,-1.2407959084266926,-0.1260871894788115,0.5310452995616173
17.709,-1.242870920603994,-0.12615538236726742,0.5352148075986362
17.729,-1.2449459327812955,-0.12622357525572334,0.539384315635655
17.749,-1.2470209449585972,-0.12629176814417925,0.5435538236726739
17.769000000000002,-1.2490959571358988,-0.12635996103263517,0.5477233317096936
17.789,-1.2511709693132003,-0.12642815392109108,0.5518928397467125
17.809,-1.253245981490502,-0.12649634680954702,0.5560623477837314
17.829,-1.2553209936678034,-0.12656453969800294,0.5602318558207503
17.849,-1.2573960058451048,-0.12663273258645885,0.5644013638577692
17.869,-1.2594710180224062,-0.12670092547491477,0.5685708718947882
17.889,-1.2615460301997077,-0.12676911836337068,0.572740379931807
17.909,-1.2636210423770091,-0.1268373112518266,0.5769098879688259
17.929000000000002,-1.265696054554311,-0.1269055041402825,0.5810793960058456
17.949,-1.2677710667316124,-0.12697369702873845,0.5852489040428644
17.969,-1.2698460789089139,-0.12704188991719437,0.5894184120798834
17.989,-1.2719210910862153,-0.12711008280565028,0.5935879201169023
18.009,-1.2739961032635168,-0.1271782756941062,0.5977574281539212
18.029,-1.2760711154408182,-0.1272464685825621,0.6019269361909401
18.049,-1.2781461276181196,-0.12731466147101803,0.606096444227959
18.069,-1.2802211397954213,-0.12738285435947394,0.6102659522649779
18.089,-1.2822961519727227,-0.12745104724792986,0.6144354603019968
18.109,-1.2843711641500244,-0.1275192401363858,0.6186049683390165
18.129,-1.286446176327326,-0.1275874330248417,0.6227744763760353
18.149,-1.2885211885046275,-0.12765562591329763,0.6269439844130543
18.169,-1.290596200681929,-0.12772381880175354,0.6311134924500732
18.189,-1.2926712128592304,-0.12779201169020946,0.6352830004870921
18.209,-1.2947462250365318,-0.12786020457866537,0.6394525085241111
18.229,-1.2968212372138332,-0.12792839746712129,0.6436220165611299
18.249,-1.2988962493911347,-0.1279965903555772,0.6477915245981488
18.269000000000002,1.66727272727279,0.4324545454545396,-0.35363636363633444
18.289,2.1496999999999984,0.32110000000000194,-0.10139999999999914
18.309,1.867,0.46375,-0.1075
18.329,1.5976666666666706,0.7365555555555513,-0.3209999999999921
18.349,1.4265454545454523,0.9010909090909108,-0.6982727272727305
18.369,1.1602000000000174,1.0701999999999914,-0.7978000000000023
18.389,0.6096250000001119,1.2152500000000128,-0.6568750000000358
18.409,-0.1379999999999737,1.1586000000000032,-0.2770000000000441
18.429000000000002,-0.1429999999999094,0.6313999999998523,-0.04300000000005756
18.449,0.803000000000109,-0.8128888888889776,-0.3737777777777799
18.469,1.2755454545454201,-0.9371818181817368,-0.14854545454540857
18.489,0.7281818181817893,0.3110000000000872,0.3526363636363885
18.509,0.7956666666666563,1.0528888888888839,0.229222222222234
18.529,1.23325,1.13175,-0.15025
18.549,1.2005000000000048,1.0505999999999995,-0.19569999999999968
18.569,0.9658888888889013,1.006333333333348,-0.1832222222222221
18.589,0.7806363636363698,0.6334545454545571,-0.2756363636363588
18.609,0.5505999999999708,0.2315999999999591,-0.3960000000000064
18.629,0.32739999999998337,-0.15920000000004178,-0.38319999999998533
18.649,0.19663636363636058,-0.5265454545454584,-0.3121818181818187
18.669,0.05554545454545009,-0.8342727272727303,-0.20863636363635896
18.689,-0.27639999999998566,-0.8772000000000049,0.3263999999999693
18.709,-0.55375,-0.84475,1.176
18.729,-0.5752500000000136,-0.8519999999999964,1.5514999999999906
18.749,-0.40836363636363415,-0.9085454545454564,1.6621818181818175
18.769000000000002,-0.4457500000000037,-0.8067499999999836,1.7555000000000247
18.789,-0.724000000000027,-0.650999999999992,1.736999999999986
18.809,-1.0986000000000007,-0.4795999999999932,1.2381999999999775
18.829,-0.8422999999999781,-0.25309999999999483,0.6706999999999843
18.849,-0.148000000000036,-0.24899999999999645,0.2455000000000242
18.869,0.3621111111110891,-0.23800000000000593,-0.08966666666665797
18.889,0.5724000000000041,-0.06100000000001492,-0.12920000000000667
18.909,0.3872500000000154,0.1202499999999879,-0.035250000000007886
18.929000000000002,0.19754545454545008,0.31027272727274957,0.05254545454545525
18.949,0.17500000000000668,0.48100000000002935,0.07600000000001465
18.969,0.24784615384615916,0.5771538461538457,0.1692307692307695
18.989,0.4961818181818552,0.5469999999999943,0.1144545454545333
19.009,0.9007499999999824,0.4255000000000069,-0.008749999999997447
19.029,1.0049999999999923,0.4260000000000024,0.025000000000007103
19.049,0.7945,0.40299999999999997,0.14475
19.069,0.522100000000003,0.26780000000000476,0.17910000000000117
19.089,0.4198000000000004,-0.1407999999999699,0.12999999999999715
19.109,0.4433999999999949,-0.5442000000000348,0.13059999999999766
19.129,0.24459999999998644,-0.8312000000000095,0.06019999999999773
19.149,-0.2174000000000162,-0.9988000000000047,0.12310000000000831
19.169,-0.48500000000000093,-1.006999999999996,0.4123636363636407
19.189,-0.5053333333333333,-0.8296666666666667,0.801
19.209,-0.40339999999999737,-0.6802000000000112,1.2001999999999833
19.229,-0.46260000000000473,-0.19560000000002253,1.6283999999999865
19.249,-0.39171428571423755,0.41371428571416247,1.951714285714268
19.269000000000002,-1.1500000000002015,1.5105000000002127,2.063100000000018
19.289,-2.323250000000112,2.7205000000000963,2.301500000000029
19.309,-2.8427999999999836,3.134399999999993,1.8779999999999464
19.329,-2.4704285714285943,2.641999999999953,0.06457142857131687
19.349,-3.6294999999998687,2.0777499999999924,-1.3799999999999817
19.369,-6.508800000000108,2.7448000000000428,-0.735199999999943
19.389,-9.162999999999862,4.080399999999907,0.9031999999998894
19.409,-9.852456790123451,4.564567901234565,1.491851851851847
19.429000000000002,-9.997395061728414,4.693950617283968,1.6659259259259493
19.449,-10.14233333333335,4.823333333333349,1.8400000000000207
19.469,-10.287271604938287,4.95271604938273,2.014074074074092
19.489,-10.889500000000014,5.047999999999984,2.709833333333353
19.509,12.93627272727375,-14.441363636363901,-0.8617272727270341
19.529,21.72263636363637,-13.207090909090821,2.4107272727273013
19.549,18.686,-9.071,1.963
19.569,12.64263636363659,-12.627272727272132,-5.8533636363630475
19.589,11.107000000000042,-17.870363636363468,-10.458454545454472
19.609,11.576461538461604,-18.829076923076986,-8.584384615384248
19.629,11.141749999999845,-19.770750000000135,-2.916499999999294
19.649,8.731777777777259,-19.994333333333,3.0172222222228005
19.669,5.3631818181816975,-17.101090909090722,5.3669999999999485
19.689,4.991666666666719,-14.331333333333145,4.547999999999943
19.709,5.494399999999929,-9.967066666666428,2.2588666666664943
19.729,-0.8373999999992283,-2.4294000000005482,-1.9037999999998099
19.749,-13.160909090908742,7.209272727272366,-5.098818181818155
19.769000000000002,-21.803363636363752,18.54109090909173,-4.637090909090549
19.789,-13.704999999999451,16.591599999999588,-3.6052000000000604
19.809,-5.270500000000011,7.675299999999804,-5.627800000000088
19.829,-7.572181818181714,3.85218181818187,-7.513909090909072
19.849,-9.636000000000001,3.1365,-4.663
19.869,-8.863636363636466,4.705000000000001,1.9112727272725456
19.889,-5.726571428571805,4.110857142857293,5.760142857142483
19.909,-3.962083333333342,3.666166666666637,8.122916666666598
19.929000000000002,-4.981600000000216,5.085000000000211,8.694199999999944
19.949,-6.81509090909106,6.652000000000093,7.163909090908733
19.969,-7.490818181818203,6.706727272727236,3.6705454545452194
19.989,-7.818600000000007,6.044199999999986,-0.13840000000012587
20.009,-8.025250000000003,5.9785833333333365,-3.3735833333333676
20.029,-8.5105,5.868499999999999,-5.557
20.049,-8.550583333333368,5.769249999999964,-5.924750000000036
20.069,-7.8620000000001085,7.2102727272725184,-4.30818181818204
20.089,-6.58030769230774,10.099307692307498,-2.1166153846154847
20.109,-6.522909090909098,12.12381818181818,-1.244636363636365
20.129,-6.764636363636321,9.525727272726922,-2.3701818181819774
20.149,-6.548500000000031,4.544999999999656,-4.010500000000047
20.169,-7.456100000000051,2.7786999999999944,-3.207299999999893
20.189,-6.205916666666933,0.8345000000002694,0.8271666666665116
20.209,2.9199999999999995,-8.3765,0.8785
20.229,14.651499999999213,-16.094999999999757,-2.075499999999966
20.249,16.86918181818189,-15.372818181818223,1.3789090909089565
20.269000000000002,16.224500000000063,-15.239000000000141,2.19199999999976
20.289,13.665181818181484,-15.199909090908971,-0.5954545454546503
20.309,8.56033333333312,-12.986333333333226,-0.43233333333322155
20.329,5.903692307692311,-10.46584615384619,1.660692307692297
20.349,6.8733999999999655,-7.3199000000000405,1.6761000000000263
20.369,8.621999999999991,-5.991700000000009,0.05590000000002088
20.389,7.743000000000136,-5.683666666666694,-0.6529999999999849
20.409,4.573230769230964,-3.8671538461540003,-0.7263076923076833
20.429000000000002,1.8049999999998423,-2.127999999999911,-1.7315000000001475
20.449,0.8824999999999934,-1.403999999999973,-3.1180000000000474
20.469,0.7137999999999938,-0.41139999999996346,-4.1086000000000125
20.489,0.2267272727272995,0.5987272727272427,-3.721454545454579
20.509,-0.7300769230769129,1.550538461538452,-2.307769230769248
20.529,-1.7495,2.2314999999999996,-0.748
20.549,-2.541090909090889,2.4610909090909026,9.0909090896929e-05
20.569,-3.228699999999985,2.515200000000007,0.10020000000000662
20.589,-4.342999999999902,2.3164999999999836,-0.5414999999999426
20.609,-5.015076923076945,2.5483076923077084,-0.9159230769230968
20.629,-5.006499999999969,2.3704999999999408,-1.08500000000001
20.649,-4.359714285714123,1.7945714285713297,-1.0779999999999799
20.669,-3.0650000000000004,0.993,-0.9259999999999999
20.689,-2.038,0.20400000000000001,-0.7755
20.709,-1.2032499999999755,-0.46075000000002453,-0.5627499999999903
20.729,-0.3610000000000281,-1.7065999999999537,-0.35280000000000156
20.749,-0.028727272727259223,-2.522818181818145,-0.10645454545457272
20.769000000000002,-0.4478000000000416,-2.8093999999999935,0.6402000000000586
20.789,-1.019714285714333,-2.7627142857142784,1.276428571428606
20.809,-1.6104000000000318,-2.386999999999966,1.6822000000000175
20.829,-1.7949999999999982,-2.095363636363631,1.8012727272727265
20.849,-1.5820000000000072,-1.6532000000000227,1.8389999999999946
20.869,-1.6641818181818275,-1.0232727272727096,2.1019090909091
20.889,-1.998,-0.544,2.324
20.909,-1.9684000000000133,-0.5853999999999929,2.1238000000000143
20.929000000000002,-1.4058181818181177,-0.744181818181837,1.6790909090908552
20.949,-0.8129999999999631,-0.7719999999999979,1.1815999999999653
20.969,-0.35659999999996395,-0.9912000000000394,0.6415999999999575
20.989,0.44627272727275735,-1.8536363636363904,-0.029636363636386415
21.009,1.0716000000000017,-1.9778000000000269,-0.5337999999999987
21.029,0.31199999999997635,-0.7355714285713993,0.3537142857143143
21.049,-0.5810000000000427,0.44333333333341784,1.393500000000035
21.069,-0.41838461538467264,0.9589999999999983,1.176230769230827
21.089,0.4729999999999588,0.8555000000000105,0.24150000000005775
21.109,0.581,0.802,-0.068
21.129,0.8940000000000405,0.9010000000000146,-0.1255000000000034
21.149,1.012363636363629,1.0902727272727328,0.023727272727281416
21.169,1.0122000000000202,1.2998000000000125,0.12539999999999135
21.189,1.3664999999999998,1.53,0.024
21.209,1.5687999999999962,2.0808000000000333,-0.2702000000000276
21.229,1.7719999999999456,2.684999999999974,-1.639499999999814
21.249,2.1175454545454064,3.7547272727272114,-3.6168181818180827
21.269000000000002,3.8561111111112494,3.1029999999998936,-3.8441111111110318
21.289,5.289000000000016,1.8565999999999858,-1.6277999999998685
21.309,5.4764,2.0452,1.9808
21.329,3.5646153846152857,1.3836153846153558,2.674230769230727
21.349,1.6366666666666667,0.989,1.6763333333333335
21.369,0.019888888888968503,0.5154444444444647,1.015000000000013
21.389,-0.9189090909090721,0.5849090909090778,0.9333636363636375
21.409,-0.9630000000000654,0.8714000000000006,0.9969999999999745
21.429000000000002,-0.012599999999950762,0.5855999999999583,1.1055999999999593
21.449,0.31133333333333857,0.3346666666666685,0.5553333333332936
21.469,0.12428571428568927,0.4742857142857251,-0.21957142857148132
21.489,-0.1175,0.5389999999999999,-1.2575
21.509,-0.1335,0.5960000000000001,-1.862
21.529,-0.34009090909090406,0.5816363636363671,-1.884727272727286
21.549,-0.49419999999999675,0.41180000000002526,-1.1594000000000801
21.569,-0.5775999999999992,0.0688000000000101,-0.05320000000002509
21.589,-0.6405999999999978,-0.1608999999999999,0.21779999999999908
21.609,-0.6459166666666396,-0.18441666666668108,-0.15133333333340834
21.629,-0.8030909090909515,0.12527272727277705,-0.8950909090909548
21.649,-0.8435454545454071,0.4715454545454491,-1.0261818181817917
21.669,-0.16127272727269146,0.3160909090908999,-0.37536363636358
21.689,0.37418181818180357,0.27736363636363104,0.4008181818181583
21.709,0.9177272727272925,0.3438181818181764,0.7465454545454462
21.729,2.208272727272679,-0.8833636363635781,0.14372727272727884
21.749,2.641500000000028,-1.3418750000000248,-0.016124999999994838
21.769000000000002,1.2440999999998332,-0.400599999999917,-0.5047000000000799
21.789,0.26390909090904335,-0.06963636363635166,-0.6243636363636109
21.809,-0.13880000000000114,-0.0024000000000034116,0.2606000000000712
21.829,0.0885,-0.4875,0.8109999999999999
21.849,0.396,-1.4765,0.13399999999999995
21.869,0.25479999999997954,-2.015400000000001,-0.9044000000000229
21.889,-0.5937272727272381,-1.6240000000000188,-0.8681818181818391
21.909,-1.8071111111110434,-1.0433333333333632,-0.007111111111162943
21.929000000000002,-2.1754999999999702,-0.5044999999999564,0.4285000000000012
21.949,-1.362818181818152,-0.39936363636364586,-0.10181818181820354
21.969,-0.482,-0.708,-0.5683333333333334
21.989,0.013230769230774958,-0.6763076923076894,-0.13323076923075144
22.009,0.10844444444444339,-0.5514444444444541,0.6292222222221826
22.029,0.08787499999999983,-0.44837500000000224,0.9372499999999964
22.049,0.19739999999999702,-0.36620000000000313,1.064599999999995
22.069,0.00399999999999999,-0.15449999999999997,1.1604999999999999
22.089,-0.34255555555554007,0.35811111111107297,1.1030000000000202
22.109,-0.5655000000000198,0.9220000000000441,0.7119999999999591
22.129,-0.7084999999999999,1.2845,0.404
22.149,-0.549499999999987,1.5030000000000259,0.2949999999999975
22.169,-0.514,1.8035,0.243
22.189,-0.657,2.068,0.138
22.209,-0.7695,2.4295,0.44499999999999995
22.229,-0.5694999999999949,3.210999999999916,1.1374999999999316
22.249,-1.2559999999998892,4.614499999999841,1.8349999999999533
22.269000000000002,-2.87418181818187,6.316454545454593,2.308363636363644
22.289,-4.1920000000000615,7.412000000000041,2.4005000000000045
22.309,-4.606181818181823,6.901545454545413,2.0565454545454274
22.329,-4.885999999999984,4.728272727272808,0.7758181818182333
22.349,-5.572727272727251,2.7080000000000415,-0.08309090909091309
22.369,-5.629,1.735,0.3335
22.389,-3.1034999999999995,0.402,0.7284999999999999
22.409,5.027799999999606,-4.769199999999749,-1.0147999999998876
22.429000000000002,16.472000000001042,-11.693500000000512,-5.282500000000392
22.449,24.306888888889254,-11.870666666666125,-7.107666666666684
22.469,21.46279999999957,-10.691800000000146,-10.786000000000374
22.489,15.087916666666356,-13.613833333333487,-13.74766666666672
22.509,12.887124999999964,-16.8888749999999,-12.002625000000094
22.529,13.676875000000013,-19.44187499999996,-7.915500000000117
22.549,10.80633333333326,-19.51011111111109,-3.4938888888887796
22.569,8.388272727272758,-17.090000000000046,3.0555454545453506
22.589,4.58230000000019,-12.964500000000173,7.591899999999911
22.609,-0.674875000000999,-8.406249999999003,8.133000000000061
22.629,-4.8270000000003535,-2.187999999999314,8.895000000000085
22.649,-8.15326911076443,3.374308112324493,9.110382995319814
22.669,-8.160832813312533,3.382001820072803,9.108326313052522
22.689,-8.168396515860634,3.3896955278211123,9.106269630785231
22.709,-8.175960218408736,3.397389235569422,9.104212948517942
22.729,-8.183523920956837,3.405082943317732,9.10215626625065
22.749,-8.19108762350494,3.412776651066042,9.10009958398336
22.769000000000002,-8.198651326053042,3.420470358814353,9.098042901716068
22.789,-8.206215028601145,3.4281640665626627,9.095986219448779
22.809,-8.213778731149246,3.4358577743109726,9.093929537181488
22.829,-8.221342433697348,3.443551482059282,9.091872854914197
22.849,-8.228906136245449,3.451245189807592,9.089816172646907
22.869,-8.236469838793552,3.458938897555902,9.087759490379616
22.889,-8.244033541341652,3.4666326053042114,9.085702808112325
22.909,-8.251597243889755,3.4743263130525213,9.083646125845034
22.929000000000002,-8.259160946437857,3.4820200208008325,9.081589443577744
22.949,-8.26672464898596,3.4897137285491424,9.079532761310453
22.969,-8.27428835153406,3.497407436297452,9.077476079043162
22.989,-8.281852054082163,3.505101144045762,9.075419396775871
23.009,-8.289415756630264,3.5127948517940717,9.073362714508582
23.029,-8.296979459178367,3.520488559542381,9.07130603224129
23.049,-8.304543161726468,3.528182267290691,9.069249349974
23.069,-8.31210686427457,3.535875975039001,9.06719266770671
23.089,-8.319670566822673,3.5435696827873104,9.065135985439419
23.109,-8.327234269370775,3.5512633905356217,9.063079303172128
23.129,-8.334797971918876,3.5589570982839316,9.061022620904836
23.149,-8.342361674466979,3.5666508060322415,9.058965938637547
23.169,-8.349925377015081,3.574344513780551,9.056909256370256
23.189,-8.357489079563182,3.582038221528861,9.054852574102965
23.209,-8.365052782111285,3.5897319292771708,9.052795891835673
23.229,-8.372616484659385,3.5974256370254802,9.050739209568384
23.249,-8.380180187207488,3.60511934477379,9.048682527301093
23.269000000000002,-8.38774388975559,3.6128130525221014,9.046625845033802
23.289,-8.395307592303693,3.620506760270411,9.04456916276651
23.309,-8.402871294851794,3.6282004680187208,9.042512480499221
23.329,-8.410434997399896,3.6358941757670307,9.04045579823193
23.349,-8.417998699947997,3.64358788351534,9.038399115964639
23.369,-8.4255624024961,3.65128159126365,9.03634243369735
23.389,-8.4331261050442,3.65897529901196,9.034285751430058
23.409,-8.440689807592303,3.66666900676027,9.032229069162767
23.429000000000002,-8.448253510140406,3.6743627145085807,9.030172386895476
23.449,-8.455817212688508,3.6820564222568906,9.028115704628185
23.469,-8.463380915236609,3.6897501300052005,9.026059022360895
23.489,-8.470944617784712,3.69744383775351,9.024002340093604
23.509,-8.478508320332812,3.70513754550182,9.021945657826313
23.529,-8.486072022880915,3.7128312532501297,9.019888975559024
23.549,-8.493635725429016,3.720524960998439,9.017832293291733
23.569,-8.501199427977118,3.728218668746749,9.015775611024441
23.589,-8.508763130525221,3.735912376495059,9.013718928757152
23.609,-8.516326833073323,3.7436060842433703,9.01166224648986
23.629,-8.523890535621424,3.7512997919916797,9.00960556422257
23.649,-8.531454238169527,3.7589934997399896,9.007548881955278
23.669,-8.539017940717628,3.7666872074882995,9.005492199687987
23.689,-8.54658164326573,3.774380915236609,9.003435517420698
23.709,-8.554145345813833,3.782074622984919,9.001378835153407
23.729,-8.561709048361934,3.789768330733229,8.999322152886116
23.749,-8.569272750910036,3.7974620384815383,8.997265470618826
23.769000000000002,-8.576836453458139,3.8051557462298495,8.995208788351535
23.789,-8.584400156006241,3.8128494539781594,8.993152106084244
23.809,-8.591963858554342,3.8205431617264694,8.991095423816953
23.829,-8.599527561102445,3.828236869474779,8.989038741549663
23.849,-8.607091263650545,3.8359305772230887,8.986982059282372
23.869,-8.614654966198648,3.8436242849713986,8.984925377015081
23.889,-8.622218668746749,3.851317992719708,8.98286869474779
23.909,-8.629782371294851,3.859011700468018,8.9808120124805
23.929000000000002,-8.637346073842954,3.8667054082163292,8.97875533021321
23.949,-8.644909776391057,3.874399115964639,8.976698647945918
23.969,-8.652473478939157,3.8820928237129486,8.974641965678627
23.989,-8.66003718148726,3.8897865314612585,8.972585283411338
24.009,-8.66760088403536,3.8974802392095684,8.970528601144046
24.029,-8.675164586583463,3.905173946957878,8.968471918876755
24.049,-8.682728289131564,3.912867654706188,8.966415236609466
24.069,-8.690291991679667,3.9205613624544977,8.964358554342175
24.089000000000002,-8.69785569422777,3.9282550702028085,8.962301872074883
24.109,-8.705419396775872,3.9359487779511184,8.960245189807592
24.129,-8.712983099323973,3.9436424856994283,8.958188507540303
24.149,-8.720546801872075,3.9513361934477382,8.956131825273012
24.169,-8.728110504420176,3.9590299011960477,8.95407514300572
24.189,-8.735674206968278,3.9667236089443576,8.95201846073843
24.209,-8.743237909516381,3.9744173166926675,8.94996177847114
24.229,-8.750801612064482,3.982111024440977,8.947905096203849
24.249,-8.758365314612584,3.989804732189287,8.945848413936558
24.269000000000002,-8.765929017160687,3.997498439937598,8.943791731669267
24.289,-8.773492719708788,4.005192147685908,8.941735049401977
24.309,-8.78105642225689,4.0128858554342175,8.939678367134686
24.329,-8.788620124804993,4.020579563182527,8.937621684867395
24.349,-8.796183827353094,4.028273270930837,8.935565002600105
24.369,-8.803747529901196,4.035966978679147,8.933508320332814
24.389,-8.811311232449297,4.043660686427456,8.931451638065523
24.409,-8.8188749349974,4.051354394175767,8.929394955798232
24.429000000000002,-8.826438637545502,4.059048101924078,8.927338273530943
24.449,-8.834002340093605,4.066741809672387,8.925281591263651
24.469,-8.841566042641706,4.074435517420697,8.92322490899636
24.489,-8.849129745189808,4.082129225169007,8.921168226729069
24.509,-8.856693447737909,4.089822932917317,8.91911154446178
24.529,-8.864257150286011,4.097516640665626,8.917054862194489
24.549,-8.871820852834112,4.105210348413936,8.914998179927197
24.569,-8.879384555382215,4.112904056162246,8.912941497659908
24.589000000000002,-8.886948257930317,4.120597763910557,8.910884815392617
24.609,-8.89451196047842,4.128291471658867,8.908828133125326
24.629,-8.90207566302652,4.135985179407177,8.906771450858034
24.649,-8.909639365574623,4.143678887155486,8.904714768590743
24.669,-8.917203068122724,4.151372594903796,8.902658086323454
24.689,-8.924766770670827,4.159066302652106,8.900601404056163
24.709,-8.93233047321893,4.166760010400416,8.898544721788872
24.729,-8.93989417576703,4.174453718148725,8.896488039521582
24.749,-8.947457878315133,4.1821474258970355,8.894431357254291
24.769000000000002,-8.955021580863235,4.189841133645347,8.892374674987
24.789,-8.962585283411336,4.197534841393656,8.890317992719709
24.809,-8.970148985959439,4.205228549141966,8.88826131045242
24.829,-8.977712688507541,4.212922256890276,8.886204628185128
24.849,-8.985276391055642,4.2206159646385855,8.884147945917837
24.869,-8.992840093603744,4.228309672386895,8.882091263650546
24.889,-9.000403796151845,4.236003380135205,8.880034581383256
24.909,-9.007967498699948,4.243697087883515,8.877977899115965
24.929000000000002,-9.01553120124805,4.251390795631826,8.875921216848674
24.949,-9.023094903796153,4.2590845033801354,8.873864534581383
24.969,-9.030658606344254,4.266778211128445,8.871807852314094
24.989,-9.038222308892356,4.274471918876755,8.869751170046802
25.009,-9.045786011440457,4.282165626625065,8.867694487779511
25.029,-9.05334971398856,4.289859334373375,8.865637805512222
25.049,-9.06091341653666,4.2975530421216845,8.86358112324493
25.069,-9.068477119084763,4.305246749869994,8.86152444097764
25.089000000000002,-9.076040821632866,4.312940457618305,8.859467758710348
25.109,-9.083604524180968,4.320634165366615,8.857411076443059
25.129,-9.091168226729069,4.328327873114925,8.855354394175768
25.149,-9.098731929277172,4.3360215808632345,8.853297711908477
25.169,-9.106295631825272,4.343715288611545,8.851241029641185
25.189,-9.113859334373375,4.351408996359854,8.849184347373896
25.209,-9.121423036921476,4.359102704108164,8.847127665106605
25.229,-9.128986739469578,4.366796411856473,8.845070982839314
25.249,-9.13655044201768,4.374490119604784,8.843014300572024
25.269000000000002,-9.144114144565783,4.382183827353095,8.840957618304733
25.289,-9.151677847113884,4.389877535101404,8.838900936037442
25.309,-9.159241549661987,4.397571242849715,8.83684425377015
25.329,-9.16680525221009,4.405264950598024,8.834787571502861
25.349,-9.17436895475819,4.412958658346334,8.83273088923557
25.369,-9.181932657306293,4.420652366094643,8.830674206968279
25.389,-9.189496359854394,4.428346073842953,8.828617524700988
25.409,-9.197060062402496,4.436039781591263,8.826560842433699
25.429000000000002,-9.204623764950599,4.443733489339574,8.824504160166407
25.449,-9.212187467498701,4.4514271970878845,8.822447477899116
25.469,-9.219751170046802,4.459120904836194,8.820390795631825
25.489,-9.227314872594905,4.466814612584503,8.818334113364536
25.509,-9.234878575143005,4.474508320332813,8.816277431097244
25.529,-9.242442277691108,4.482202028081123,8.814220748829953
25.549,-9.250005980239209,4.489895735829433,8.812164066562664
25.569,-9.257569682787311,4.497589443577743,8.810107384295373
25.589000000000002,-9.265133385335414,4.505283151326053,8.808050702028082
25.609,-9.272697087883516,4.512976859074364,8.80599401976079
25.629,-9.280260790431617,4.520670566822673,8.803937337493501
25.649,-9.28782449297972,4.528364274570983,8.80188065522621
25.669,-9.29538819552782,4.536057982319293,8.799823972958919
25.689,-9.302951898075923,4.5437516900676025,8.797767290691628
25.709,-9.310515600624024,4.551445397815913,8.795710608424338
25.729,-9.318079303172127,4.559139105564222,8.793653926157047
25.749,-9.325643005720227,4.566832813312532,8.791597243889756
25.769000000000002,-9.333206708268332,4.574526521060843,8.789540561622465
25.789,-9.340770410816432,4.5822202288091525,8.787483879355175
25.809,-9.348334113364535,4.589913936557463,8.785427197087884
25.829,-9.355897815912638,4.597607644305772,8.783370514820593
25.849,-9.363461518460738,4.605301352054082,8.781313832553302
25.869,-9.37102522100884,4.612995059802392,8.779257150286012
25.889,-9.378588923556942,4.620688767550702,8.777200468018721
25.909,-9.386152626105044,4.628382475299011,8.77514378575143
25.929000000000002,-9.393716328653147,4.636076183047322,8.773087103484139
25.949,-9.40128003120125,4.643769890795632,8.77103042121685
25.969,-9.40884373374935,4.651463598543942,8.768973738949558
25.989,-9.416407436297453,4.6591573062922516,8.766917056682267
26.009,-9.423971138845554,4.666851014040562,8.764860374414978
26.029,-9.431534841393656,4.674544721788871,8.762803692147687
26.049,-9.439098543941757,4.682238429537181,8.760747009880395
26.069,-9.44666224648986,4.689932137285491,8.758690327613106
26.089000000000002,-9.454225949037962,4.6976258450338015,8.756633645345815
26.109,-9.461789651586065,4.705319552782112,8.754576963078524
26.129,-9.469353354134165,4.713013260530421,8.752520280811233
26.149,-9.476917056682268,4.720706968278732,8.750463598543941
26.169,-9.484480759230369,4.728400676027041,8.748406916276652
26.189,-9.492044461778471,4.736094383775351,8.74635023400936
26.209,-9.499608164326572,4.74378809152366,8.74429355174207
26.229,-9.507171866874675,4.7514817992719705,8.74223686947478
26.249,-9.514735569422776,4.75917550702028,8.74018018720749
26.269000000000002,-9.52229927197088,4.766869214768591,8.738123504940198
26.289,-9.52986297451898,4.7745629225169015,8.736066822672907
26.309,-9.537426677067083,4.782256630265211,8.734010140405617
26.329,-9.544990379615184,4.78995033801352,8.731953458138326
26.349,-9.552554082163287,4.79764404576183,8.729896775871035
26.369,-9.560117784711387,4.80533775351014,8.727840093603744
26.389,-9.56768148725949,4.81303146125845,8.725783411336455
26.409,-9.575245189807593,4.82072516900676,8.723726729069163
26.429000000000002,-9.582808892355695,4.828418876755071,8.721670046801872
26.449,-9.590372594903796,4.836112584503381,8.719613364534581
26.469,-9.597936297451898,4.84380629225169,8.717556682267292
26.489,-9.6055,4.8515,8.7155
26.509,-9.613063702548102,4.85919370774831,8.71344331773271
26.529,-9.620627405096204,4.8668874154966195,8.71138663546542
26.549,-9.628191107644305,4.87458112324493,8.709329953198129
26.569,-9.635754810192408,4.882274830993239,8.707273270930838
26.589000000000002,-9.64331851274051,4.889968538741551,8.705216588663546
26.609,-9.650882215288613,4.89766224648986,8.703159906396257
26.629,-9.658445917836714,4.9053559542381695,8.701103224128966
26.649,-9.666009620384816,4.91304966198648,8.699046541861675
26.669,-9.673573322932917,4.920743369734789,8.696989859594384
26.689,-9.68113702548102,4.9284370774831,8.694933177327094
26.709,-9.68870072802912,4.936130785231409,8.692876495059803
26.729,-9.696264430577223,4.943824492979719,8.690819812792512
26.749,-9.703828133125324,4.951518200728028,8.688763130525222
26.769000000000002,-9.711391835673428,4.959211908476339,8.686706448257931
26.789,-9.718955538221529,4.96690561622465,8.68464976599064
26.809,-9.726519240769631,4.974599323972959,8.682593083723349
26.829,-9.734082943317732,4.9822930317212695,8.68053640145606
26.849,-9.741646645865835,4.989986739469579,8.678479719188768
26.869,-9.749210348413936,4.997680447217888,8.676423036921477
26.889,-9.756774050962038,5.005374154966198,8.674366354654186
26.909,-9.76433775351014,5.013067862714508,8.672309672386897
26.929000000000002,-9.771901456058243,5.0207615704628195,8.670252990119605
26.949,-9.779465158606344,5.028455278211129,8.668196307852314
26.969,-9.787028861154447,5.036148985959439,8.666139625585023
26.989,-9.794592563702547,5.043842693707749,8.664082943317734
27.009,-9.80215626625065,5.051536401456058,8.662026261050443
27.029,-9.809719968798753,5.059230109204368,8.659969578783151
27.049,-9.817283671346853,5.066923816952678,8.657912896515862
27.069,-9.824847373894956,5.0746175247009875,8.65585621424857
27.089000000000002,-9.832411076443059,5.082311232449299,8.65379953198128
27.109,-9.83997477899116,5.090004940197608,8.651742849713989
27.129,-9.847538481539262,5.0976986479459185,8.649686167446697
27.149,-9.855102184087364,5.105392355694228,8.647629485179408
27.169,-9.862665886635465,5.1130860634425375,8.645572802912117
27.189,-9.870229589183568,5.120779771190848,8.643516120644826
27.209,-9.877793291731669,5.128473478939157,8.641459438377536
27.229,-9.885356994279771,5.136167186687468,8.639402756110245
27.249,-9.892920696827872,5.143860894435777,8.637346073842954
27.269000000000002,-9.900484399375976,5.151554602184088,8.635289391575663
27.289,-9.908048101924077,5.159248309932398,8.633232709308373
27.309,-9.91561180447218,5.166942017680707,8.631176027041082
27.329,-9.92317550702028,5.174635725429018,8.629119344773791
27.349,-9.930739209568383,5.182329433177327,8.6270626625065
27.369,-9.938302912116484,5.1900231409256365,8.62500598023921
27.389,-9.945866614664586,5.197716848673947,8.62294929797192
27.409,-9.953430317212689,5.205410556422256,8.620892615704628
27.429000000000002,-9.960994019760792,5.213104264170568,8.618835933437337
27.449,-9.968557722308892,5.220797971918877,8.616779251170048
27.469,-9.976121424856995,5.2284916796671865,8.614722568902756
27.489,-9.983685127405096,5.236185387415497,8.612665886635465
27.509,-9.991248829953198,5.243879095163806,8.610609204368176
27.529,-9.9988125325013,5.251572802912117,8.608552522100885
27.549,-10.006376235049402,5.259266510660426,8.606495839833594
27.569,-10.013939937597504,5.266960218408736,8.604439157566304
27.589000000000002,-10.021503640145607,5.274653926157047,8.602382475299013
27.609,-10.029067342693708,5.282347633905356,8.600325793031722
27.629,-10.03663104524181,5.290041341653667,8.59826911076443
27.649,-10.044194747789913,5.297735049401976,8.59621242849714
27.669,-10.051758450338014,5.3054287571502865,8.59415574622985
27.689,-10.059322152886116,5.313122464898596,8.592099063962559
27.709,-10.066885855434217,5.320816172646905,8.590042381695268
27.729,-10.07444955798232,5.328509880395215,8.587985699427978
27.749,-10.08201326053042,5.336203588143525,8.585929017160687
27.769000000000002,-10.089576963078525,5.3438972958918365,8.583872334893396
27.789,-10.097140665626625,5.351591003640146,8.581815652626105
27.809,-10.104704368174728,5.359284711388456,8.579758970358816
27.829,-10.112268070722829,5.366978419136766,8.577702288091524
27.849,-10.119831773270931,5.374672126885075,8.575645605824233
27.869,-10.127395475819032,5.382365834633385,8.573588923556942
27.889,-10.134959178367135,5.390059542381695,8.571532241289653
27.909,-10.142522880915237,5.397753250130005,8.569475559022361
27.929000000000002,-10.15008658346334,5.405446957878316,8.56741887675507
27.949,-10.15765028601144,5.413140665626626,8.56536219448778
27.969,-10.165213988559543,5.420834373374936,8.56330551222049
27.989,-10.172777691107644,5.428528081123245,8.561248829953199
28.009,-10.180341393655747,5.4362217888715545,8.559192147685907
28.029,-10.187905096203849,5.443915496619865,8.557135465418618
28.049,-10.19546879875195,5.451609204368174,8.555078783151327
28.069,-10.20303250130005,5.459302912116485,8.553022100884036
28.089000000000002,-10.210596203848155,5.466996619864796,8.550965418616745
28.109,-10.218159906396256,5.474690327613105,8.548908736349453
28.129,-10.225723608944358,5.482384035361415,8.546852054082164
28.149,-10.233287311492461,5.490077743109724,8.544795371814873
28.169,-10.240851014040562,5.497771450858035,8.542738689547582
28.189,-10.248414716588663,5.505465158606344,8.540682007280292
28.209,-10.255978419136765,5.5131588663546545,8.538625325013001
28.229,-10.263542121684868,5.520852574102964,8.53656864274571
28.249,-10.271105824232968,5.528546281851273,8.53451196047842
28.269000000000002,-10.278669526781073,5.536239989599585,8.53245527821113
28.289,-10.286233229329174,5.543933697347894,8.530398595943838
28.309,-10.293796931877276,5.5516274050962044,8.528341913676547
28.329,-10.301360634425377,5.559321112844514,8.526285231409258
28.349,-10.30892433697348,5.567014820592824,8.524228549141966
28.369,-10.31648803952158,5.574708528341134,8.522171866874675
28.389,-10.324051742069683,5.582402236089443,8.520115184607384
28.409,-10.331615444617785,5.590095943837753,8.518058502340095
28.429000000000002,-10.339179147165888,5.597789651586064,8.516001820072804
28.449,-10.346742849713989,5.605483359334373,8.513945137805512
28.469,-10.354306552262091,5.613177067082684,8.511888455538221
28.489,-10.361870254810192,5.620870774830994,8.509831773270932
28.509,-10.369433957358295,5.6285644825793035,8.50777509100364
28.529,-10.376997659906397,5.636258190327613,8.50571840873635
28.549,-10.384561362454498,5.6439518980759225,8.503661726469058
28.569,-10.392125065002599,5.651645605824233,8.501605044201769
28.589000000000002,-10.399688767550703,5.659339313572543,8.499548361934478
28.609,-10.407252470098804,5.6670330213208535,8.497491679667187
28.629,-10.414816172646907,5.674726729069164,8.495434997399895
28.649,-10.42237987519501,5.682420436817473,8.493378315132606
28.669,-10.42994357774311,5.690114144565783,8.491321632865315
28.689,-10.43750728029121,5.697807852314092,8.489264950598024
28.709,-10.445070982839313,5.705501560062402,8.487208268330734
28.729,-10.452634685387416,5.713195267810712,8.485151586063443
28.749,-10.460198387935517,5.720888975559022,8.483094903796152
28.769000000000002,-10.467762090483621,5.728582683307334,8.48103822152886
28.789,-10.475325793031722,5.736276391055643,8.478981539261571
28.809,-10.482889495579823,5.743970098803953,8.47692485699428
28.829,-10.490453198127925,5.751663806552262,8.47486817472699
28.849,-10.498016900676028,5.7593575143005715,8.472811492459698
28.869,-10.505580603224129,5.767051222048882,8.470754810192409
28.889,-10.513144305772231,5.774744929797192,8.468698127925117
28.909,-10.520708008320332,5.782438637545502,8.466641445657826
28.929000000000002,-10.528271710868436,5.790132345293813,8.464584763390535
28.949,-10.535835413416537,5.797826053042122,8.462528081123246
28.969,-10.54339911596464,5.805519760790432,8.460471398855955
28.989,-10.55096281851274,5.813213468538741,8.458414716588663
29.009,-10.558526521060843,5.820907176287052,8.456358034321374
29.029,-10.566090223608946,5.828600884035362,8.454301352054083
29.049,-10.573653926157046,5.8362945917836715,8.452244669786792
29.069,-10.581217628705147,5.843988299531981,8.4501879875195
29.089000000000002,-10.588781331253251,5.851682007280292,8.448131305252211
29.109,-10.596345033801352,5.859375715028602,8.44607462298492
29.129,-10.603908736349455,5.867069422776911,8.444017940717629
29.149,-10.611472438897557,5.8747631305252215,8.441961258450338
29.169,-10.619036141445658,5.882456838273531,8.439904576183048
29.189,-10.626599843993759,5.890150546021841,8.437847893915757
29.209,-10.634163546541862,5.897844253770151,8.435791211648466
29.229,-10.641727249089964,5.90553796151846,8.433734529381177
29.249,-10.649290951638065,5.91323166926677,8.431677847113885
29.269000000000002,-10.65685465418617,5.920925377015081,8.429621164846594
29.289,-10.66441835673427,5.928619084763391,8.427564482579303
29.309,-10.67198205928237,5.936312792511701,8.425507800312012
29.329,-10.679545761830473,5.944006500260011,8.423451118044722
29.349,-10.687109464378576,5.951700208008321,8.421394435777431
29.369,-10.694673166926677,5.95939391575663,8.41933775351014
29.389,-10.70223686947478,5.9670876235049395,8.41728107124285
29.409,-10.70980057202288,5.97478133125325,8.41522438897556
29.429000000000002,-10.717364274570983,5.982475039001561,8.413167706708268
29.449,-10.724927977119085,5.9901687467498705,8.411111024440977
29.469,-10.732491679667188,5.997862454498181,8.409054342173688
29.489,-10.740055382215289,6.00555616224649,8.406997659906397
29.509,-10.747619084763391,6.0132498699948,8.404940977639106
29.529,-10.755182787311492,6.020943577743109,8.402884295371816
29.549,-10.762746489859595,6.02863728549142,8.400827613104525
29.569,-10.770310192407695,6.036330993239729,8.398770930837234
29.589000000000002,-10.7778738949558,6.04402470098804,8.396714248569943
29.609,-10.7854375975039,6.051718408736351,8.394657566302651
29.629,-10.793001300052003,6.05941211648466,8.392600884035362
29.649,-10.800565002600106,6.06710582423297,8.390544201768071
29.669,-10.808128705148206,6.074799531981279,8.38848751950078
29.689,-10.815692407696307,6.082493239729589,8.38643083723349
29.709,-10.82325611024441,6.090186947477899,8.3843741549662
29.729,-10.830819812792512,6.097880655226209,8.382317472698908
29.749,-10.838383515340613,6.105574362974519,8.380260790431617
29.769000000000002,-10.845947217888718,6.11326807072283,8.378204108164327
29.789,-10.853510920436818,6.120961778471139,8.376147425897036
29.809,-10.861074622984919,6.128655486219449,8.374090743629745
29.829,-10.868638325533022,6.136349193967759,8.372034061362454
29.849,-10.876202028081124,6.144042901716069,8.369977379095165
29.869,-10.883765730629225,6.151736609464379,8.367920696827873
29.889,-10.891329433177328,6.1594303172126885,8.365864014560582
29.909,-10.898893135725428,6.167124024960998,8.363807332293293
29.929000000000002,-10.906456838273531,6.174817732709309,8.361750650026002
29.949,-10.914020540821634,6.182511440457619,8.35969396775871
29.969,-10.921584243369736,6.190205148205928,8.35763728549142
29.989,-10.929147945917837,6.1978988559542385,8.35558060322413
30.009,-10.93671164846594,6.205592563702549,8.353523920956839
30.029,-10.94427535101404,6.213286271450858,8.351467238689548
30.049,-10.951839053562143,6.220979979199168,8.349410556422256
30.069,-10.959402756110244,6.228673686947477,8.347353874154967
30.089000000000002,-10.966966458658348,6.2363673946957885,8.345297191887676
30.109,-10.974530161206449,6.244061102444098,8.343240509620385
30.129,-10.982093863754551,6.251754810192408,8.341183827353094
30.149,-10.989657566302652,6.259448517940719,8.339127145085804
30.169,-10.997221268850755,6.267142225689028,8.337070462818513
30.189,-11.004784971398855,6.274835933437338,8.335013780551222
30.209,-11.012348673946958,6.282529641185647,8.332957098283932
30.229,-11.01991237649506,6.2902233489339565,8.330900416016641
30.249,-11.027476079043161,6.297917056682267,8.32884373374935
30.269000000000002,-11.035039781591266,6.305610764430578,8.326787051482059
30.289,-11.042603484139367,6.3133044721788885,8.32473036921477
30.309,-11.050167186687467,6.320998179927198,8.322673686947478
30.329,-11.05773088923557,6.328691887675507,8.320617004680187
30.349,-13.962375000000184,8.790625000000155,7.20699999999993
30.369,-1.963,1.906,4.13
30.389,-2.9947251184834176,1.2766255924170624,0.830336492890994
30.409,-2.7355781990521417,1.2408909952606648,0.8930853080568698
30.429000000000002,-2.4764312796208197,1.2051563981042608,0.9558341232227568
30.449,-2.217284360189544,1.1694218009478632,1.0185829383886327
30.469,-1.958137440758268,1.1336872037914656,1.0813317535545086
30.489,-1.698990521326992,1.097952606635068,1.1440805687203845
30.509,-1.4398436018957161,1.0622180094786704,1.2068293838862605
30.529,-1.1806966824644403,1.026483412322273,1.2695781990521362
30.549,-0.9215497630331644,0.9907488151658753,1.3323270142180121
30.569,-0.6624028436018885,0.9550142180094777,1.395075829383888
30.589000000000002,-0.487750000000004,0.9512500000000126,1.535000000000057
30.609,-0.11874999999979528,0.5572499999999312,1.0589999999998703
30.629,-0.8150769230769397,0.5305384615384644,1.3486153846153883
30.649,-1.982888888888925,-0.21655555555560463,0.14705555555549765
30.669,-0.613,0.6995,-2.6005000000000003
30.689,2.999076923076903,-0.008000000000032259,-1.2420769230769795
30.709,3.1848157894736953,0.7474473684210009,-0.2346842105263589
30.729,3.0737631578947506,1.274289473684144,0.2042631578946814
30.749,1.0236363636364743,0.8154545454545254,-4.288363636363626
30.769000000000002,0.5846578947368373,0.963947368421062,-4.148157894736821
30.789,0.5241315789473653,1.0807894736842165,-3.8776315789473546
30.809,0.6154000000003615,2.657399999999394,-1.4372000000007008
30.829,-0.3888000000000488,1.6264000000000278,-3.6057999999999955
30.849,-0.6416666666666667,2.1470000000000002,-0.9716666666666669
30.869,0.07253846153845174,1.1750000000000376,2.0794615384615183
30.889,0.048,0.21433333333333332,0.9119999999999999
30.909,0.882899999999981,-0.08769999999999353,-0.17139999999996572
30.929000000000002,0.32849999999995794,0.12808333333335062,-0.11874999999997307
30.949,0.015999999999980002,0.1772499999999965,-0.0718750000000099
30.969,-0.2255000000000048,0.4279000000000066,-1.017600000000008
30.989,-0.7046666666666667,0.49533333333333335,-0.848
31.009,-1.3212000000000095,0.3226999999999979,-0.5712999999999954
31.029,-2.061,0.5883333333333334,-0.28733333333333333
31.049,-2.161800000000011,0.6437000000000098,-0.7795999999999724
31.069,-1.9353333333333333,0.8176666666666668,-0.45399999999999996
31.089000000000002,-1.6655999999998743,0.9857999999998817,-2.0322000000000644
31.109,-1.7734545454545951,0.6673636363636402,-2.477454545454609
31.129,-1.4621999999999888,0.8271000000000058,-3.346600000000012
31.149,-1.4427272727272684,0.5102727272725881,-3.02563636363624
31.169,-1.616875000000016,-0.16362499999996427,-1.366999999999966
31.189,-1.6529999999999476,0.7199000000000052,-0.8531000000000054
31.209,-0.8548235294117783,0.6138823529411822,-0.9578823529411742
31.229,-0.5466000000000029,0.6220666666666644,-0.9032000000000022
31.249000000000002,-0.3845999999999741,0.7507333333333539,-0.7791999999999801
31.269000000000002,-0.2225999999999741,0.8794000000000206,-0.6551999999999801
31.289,-0.4225454545454139,0.2554545454545293,-0.05799999999992249
31.309,-0.002,0.35,0.49
31.329,0.5842,0.5314000000000001,0.3522
31.349,1.5537500000000353,0.6167499999999914,0.15166666666666864
31.369,2.049,0.513,0.07100000000000001
31.389,2.147499999999997,0.5607222222222183,-0.21794444444442665
31.409,1.6603043478261021,0.6556086956521749,-0.5872608695652205
31.429000000000002,1.3570909090908911,0.5823636363636293,-0.4528181818181703
31.449,1.8541818181819245,0.5851818181818287,0.28181818181820484
31.469,2.741400000000091,0.618599999999991,0.3454000000000111
31.489,3.499400000000072,0.5734000000000068,0.4291999999999885
31.509,4.130666666666677,0.7165555555555597,0.2549999999999858
31.529,4.094800000000005,0.8601999999999885,0.06020000000000242
31.549,3.8154545454545667,1.0638181818181809,0.0506363636363551
31.569,3.2738000000000316,1.0621999999999985,0.24479999999998522
31.589000000000002,2.843555555555521,1.092222222222226,0.3745555555555491
31.609,2.2725999999999282,1.169200000000014,0.14719999999996078
31.629,1.653111111111071,1.208333333333323,-0.2883333333333645
31.649,1.0441818181817681,1.0548181818181854,-0.6358181818181914
31.669,0.5799090909090983,1.1625454545454512,-0.7177272727272733
31.689,0.5300000000000095,1.1674444444444343,-0.5422222222221929
31.709,0.7741818181818045,1.0066363636363675,-0.16463636363635994
31.729,0.9666666666666772,0.9705555555555604,-0.48188888888882203
31.749000000000002,0.850454545454524,0.9230000000000078,-0.9977272727273047
31.769000000000002,0.6351999999999842,0.9511999999999842,-1.1768000000000094
31.789,0.6871111111111279,0.8380000000000023,-1.286111111111116
31.809,0.8201111111111148,0.8043333333333244,-1.275777777777774
31.829,0.8773999999999953,0.7092000000000009,-1.3673999999999964
31.849,0.8777142857142894,0.6057142857142934,-1.2902857142857278
31.869,0.8887999999999947,0.43160000000000265,-0.8258000000000167
31.889,1.0261999999999964,0.4079999999999972,-0.45940000000000164
31.909,1.0342222222222313,0.5201111111110943,-0.5658888888888395
31.929000000000002,0.9770000000000126,0.635000000000017,-0.9320000000000435
31.949,1.0678571428571566,0.6838571428571415,-1.0747142857142917
31.969,1.2316000000000007,0.6555999999999985,-1.138600000000007
31.989,1.1216666666666486,0.695222222222232,-1.097333333333317
32.009,0.8201999999999979,0.7465999999999792,-0.7325999999999756
32.029,1.0850000000000983,0.5123846153845976,-0.4829999999998672
32.04900000000001,0.9035555555553497,0.8612222222223085,-0.3040000000001469
32.069,0.5256666666667409,0.9963333333333148,-0.688333333333304
32.089000000000006,1.159375000000066,0.7071249999998888,-0.23199999999973892
32.109,1.2909999999999526,0.6829999999999242,0.24066666666657036
