timestamp,acc_x,acc_y,acc_z
0.035,0.074,-0.206,1.474
0.05500000000000001,-0.21900000000000006,-1.7027499999999998,1.9622500000000003
0.07500000000000001,-0.2012222222222222,-1.4554444444444443,1.9978888888888888
0.09500000000000001,-0.07933333333333327,-1.5079999999999998,0.9139999999999999
0.11500000000000002,0.47733333333333405,-1.1613333333333327,-0.08966666666666773
0.135,0.9257272727272724,-0.17299999999999963,-0.8959090909090907
0.15500000000000003,0.45007692307692343,0.21976923076923055,-0.44676923076923103
0.17500000000000002,0.6643333333333331,0.12099999999999964,-0.35733333333333306
0.19500000000000003,0.6499999999999997,-0.21640000000000031,-0.6003999999999997
0.21500000000000005,0.42809090909090886,-0.5351818181818194,-0.7393636363636391
0.23500000000000004,-3.1542000000000296,3.010600000000033,0.26320000000000987
0.255,-2.4831818181818184,5.0604545454545455,1.0381818181818183
0.275,0.36900000000000005,2.917,-2.3113333333333332
0.29500000000000004,-1.3613333333333326,0.2543333333333306,0.6149999999999984
0.31500000000000006,-0.029523809523808606,-0.2376190476190474,-0.5652380952380961
0.3350000000000001,-0.04666666666666764,-0.02100000000000013,-0.7403333333333344
0.3550000000000001,-0.03993333333333142,0.12533333333333427,-0.6623999999999974
0.3750000000000001,0.2524999999999991,0.43850000000000205,-0.4270000000000034
0.39500000000000013,-0.4104000000000052,0.4623999999999999,-0.7329999999999973
0.41500000000000004,-1.0124,0.3567999999999984,-0.4654000000000018
0.43500000000000005,-0.3681999999999983,0.1585999999999998,-0.6450000000000008
0.45500000000000007,0.02100000000000421,0.2402000000000007,-0.4405999999999907
0.4750000000000001,1.110600000000001,0.3132000000000008,1.3607999999999776
0.4950000000000001,1.1591999999999827,0.6016000000000008,-2.3442000000000003
0.5150000000000001,-1.014454545454548,0.4236363636363602,-1.9887272727272707
0.5350000000000001,-0.48059999999999714,-0.04380000000000085,-0.7551999999999901
0.5550000000000002,-0.7437272727272742,-0.2590000000000011,0.6296363636363708
0.5750000000000002,-0.750599999999995,-0.3264999999999997,1.2513999999999994
0.5950000000000001,-0.3373999999999989,-0.07919999999999691,1.634200000000004
0.6150000000000001,-0.1713999999999993,0.2510000000000002,1.9843999999999982
0.6350000000000001,-0.30066666666666864,0.29900000000000143,1.0576666666666574
0.6550000000000001,-0.6680000000000018,0.5103333333333341,-0.48300000000000654
0.6750000000000002,-0.8657999999999999,0.6681999999999999,-1.794200000000006
0.6950000000000002,-0.8326000000000006,0.6502000000000012,-2.3870000000000013
0.7150000000000002,-1.0610000000000022,0.5981999999999966,-2.5404000000000018
0.7350000000000002,-1.220600000000006,0.2261999999999993,-2.8422000000000063
0.7550000000000002,-1.8297500000000069,0.16975000000000043,-3.46575000000001
0.7750000000000001,-1.8273333333333275,0.0646666666666681,-4.630666666666672
0.7950000000000002,-0.5751999999999913,0.5722000000000015,-4.810199999999994
0.8150000000000002,-0.1010000000000082,0.2203333333333265,-3.151333333333314
0.8350000000000002,-1.2119090909090975,-0.4269090909090956,-0.8343636363636218
0.8550000000000002,-1.4975714285714294,-0.7739999999999994,-0.7995714285714521
0.8750000000000002,-1.4931111111111122,-0.9333333333333335,-2.434666666666679
0.8950000000000002,-1.852200000000001,-1.1130000000000069,-2.2327999999999832
0.9150000000000001,-1.4075555555555508,-1.4722222222222237,-0.5952222222222143
0.9350000000000002,2.8083333333333615,-4.8550000000000395,0.08733333333332616
0.9550000000000002,-1.5602500000000767,-1.4404999999999402,-1.4640000000000146
0.9750000000000002,-4.966555555555541,-0.13922222222223882,-2.267555555555558
0.9950000000000002,-1.5073333333332684,-2.209666666666699,-2.2653333333333294
1.0150000000000001,1.1907142857142874,-3.2418571428571386,-1.7751428571428467
1.0350000000000001,0.3837272727272624,-2.489909090909087,-0.698272727272722
1.0550000000000002,-0.5824166666666688,-2.5910833333333376,-0.033249999999998586
1.0750000000000002,-0.5063999999999913,-3.898400000000019,0.03859999999999931
1.0950000000000002,0.09836363636363928,-5.364090909090916,0.33072727272728075
1.1150000000000002,0.7839000000000074,-5.7889,1.6234000000000095
1.1350000000000002,2.522800000000025,-5.297999999999991,3.4792000000000183
1.155,4.79436363636364,-4.73081818181818,5.086727272727275
1.175,5.800500000000003,-3.826499999999994,5.775000000000001
1.195,6.8182,-2.6630000000000003,5.5922
1.215,6.3260526315789445,-2.484421052631578,5.164421052631578
1.235,5.152,-0.746,5.108
1.2550000000000001,4.0874615384615325,0.9821538461538494,5.5166923076923045
1.2750000000000001,3.542076923076917,1.273692307692311,5.2436153846153815
1.2950000000000002,1.9588571428571293,2.221571428571441,2.519714285714259
1.3150000000000002,0.9421111111111067,3.3770000000000078,0.6016666666666597
1.3350000000000002,0.709391304347824,4.019565217391311,0.3673913043478242
1.3550000000000002,-1.12534285714286,6.639485714285716,0.17657142857142874
1.3750000000000002,-1.6522000000000046,6.909200000000002,0.2080000000000003
1.3950000000000002,-2.5632500000000205,7.058999999999998,0.4415000000000079
1.4150000000000003,-5.1109999999999856,5.696999999999957,2.3975000000000155
1.4350000000000003,-3.821999999999968,2.6869999999999616,2.7300000000000004
1.4550000000000003,-1.0135833333332787,1.016249999999975,2.244416666666647
1.4750000000000003,3.197272727272778,-1.0271818181818504,0.18509090909087927
1.495,6.589400000000012,-4.908000000000021,-2.4848000000000123
1.5150000000000001,11.359500000000034,-9.398500000000015,-3.6564999999999936
1.5350000000000001,15.76450000000002,-10.473,-1.6324999999999785
1.5550000000000002,14.567999999999978,-12.061000000000016,-1.1500000000000066
1.5750000000000002,12.315192307692309,-14.008153846153853,-2.2536538461538496
1.5950000000000002,12.329807692307693,-15.19584615384616,-2.871346153846157
1.6150000000000002,15.39500000000003,-18.695000000000036,-3.1611428571428415
1.6350000000000002,14.786333333333221,-21.581999999999994,-0.8613333333333314
1.6550000000000002,5.8098124999999055,-21.5948125,-2.061125000000003
1.6750000000000003,-0.7050000000000164,-16.404624999999882,1.08100000000008
1.6950000000000003,-1.7176250000000315,-8.898187499999917,6.888937500000079
1.7150000000000003,-6.630793103448296,-2.270586206896537,13.319379310344837
1.7350000000000003,-8.27975862068968,-1.028517241379291,14.116275862068978
1.7550000000000003,-9.928724137931066,0.2135517241379552,14.913172413793118
1.7750000000000004,-18.935666666667238,10.425666666667532,15.321666666666474
1.7950000000000002,0.9833076923077201,4.670461538461528,-3.98884615384616
1.8150000000000002,2.745242424242419,4.208060606060611,-4.221060606060602
1.8350000000000002,2.2137272727272697,4.780181818181822,-3.8131818181818153
1.8550000000000002,-5.371615384615385,5.026538461538449,-0.7350769230769237
1.8750000000000002,-5.504000000000143,4.41999999999999,-0.05199999999974953
1.8950000000000002,-8.738500000000032,4.859000000000017,1.8864999999999985
1.9150000000000003,-10.618545454545478,5.945454545454563,1.5665454545454471
1.9350000000000003,-10.47845454545451,7.110454545454552,0.7179090909090792
1.9550000000000003,-6.645454545454493,7.091272727272721,-0.2087272727272853
1.9750000000000003,-3.898499999999977,6.040499999999983,-0.7730000000000036
1.9950000000000003,-3.6815714285714685,5.599428571428584,-1.1391428571428726
2.0150000000000006,-6.037333333333389,6.274888888888908,-2.4401111111111566
2.0350000000000006,-6.524499999999962,7.205500000000037,-4.029500000000036
2.0550000000000006,-5.5372727272727165,8.285636363636389,-4.073545454545428
2.0750000000000006,-5.971500000000034,8.832000000000008,-2.765999999999947
2.0950000000000006,-6.849692307692328,8.908076923076925,-1.296999999999963
2.1150000000000007,-7.723000000000033,8.924500000000002,0.14900000000003522
2.1350000000000007,-8.069999999999986,9.053799999999974,0.4141999999999767
2.1550000000000007,-7.478222222222205,7.942777777777727,-0.5613333333333728
2.1750000000000007,-5.8954444444442595,5.290777777777539,-1.3690000000000428
2.1950000000000007,1.1163333333336531,-2.763333333333679,-2.0753333333333313
2.2150000000000007,10.287800000000287,-12.491000000000216,-0.5953999999998363
2.2350000000000008,13.079999999999925,-13.323499999999909,5.7850000000002515
2.255000000000001,10.250818181818094,-11.037363636363548,9.5199999999999
2.2750000000000004,5.963499999999934,-11.172500000000037,2.646499999999812
2.2950000000000004,3.0629999999999673,-12.431999999999988,-0.6513333333333087
2.3150000000000004,4.48600000000009,-12.437666666666694,0.23144444444447412
2.3350000000000004,7.511600000000032,-12.062599999999971,0.9566000000000027
2.3550000000000004,7.438199999999977,-9.648199999999942,0.6593999999999953
2.3750000000000004,6.513499999999992,-7.813999999999973,1.1905000000000197
2.3950000000000005,7.378000000000032,-8.022500000000027,1.2439999999999836
2.4150000000000005,8.233999999999996,-8.676363636363627,0.24936363636360714
2.4350000000000005,6.788499999999936,-7.686499999999946,-0.7345000000000174
2.4550000000000005,4.240999999999935,-5.266199999999939,-0.830799999999992
2.4750000000000005,1.6877999999999294,-2.870999999999932,-0.4701999999999924
2.4950000000000006,-0.79809090909098,-0.7619090909090454,-0.5430909090909225
2.5150000000000006,-2.4026000000000125,0.6740000000000282,-1.065000000000006
2.5350000000000006,-2.2847999999999926,1.4086000000000152,-0.8205999999999872
2.5550000000000006,-2.028363636363628,2.006636363636383,-0.24281818181816103
2.5750000000000006,-1.8619999999999923,2.908222222222257,0.5072222222222491
2.5950000000000006,-1.5145000000000026,3.200999999999977,1.1300000000000163
2.6150000000000007,-0.75599999999996,3.35220000000003,1.3628000000000018
2.6350000000000007,0.8591818181818704,4.331545454545479,1.3400909090909099
2.6550000000000007,1.8772000000000149,4.030199999999988,0.49019999999991615
2.6750000000000007,3.0916666666667316,5.335888888888928,-0.4860000000000344
2.6950000000000007,4.258454545454567,4.210727272727215,-1.1266363636363745
2.7150000000000007,4.491199999999986,2.6695999999999556,-1.207799999999993
2.7350000000000008,3.5925714285713557,1.546285714285649,-0.8791428571428311
2.755000000000001,1.7270909090908253,0.2413636363635997,-0.39027272727271245
2.775000000000001,-1.1528000000001293,0.0544000000000191,0.40720000000006207
2.795000000000001,-2.7791818181818364,0.34509090909090245,1.6034545454545819
2.815000000000001,-2.967199999999988,-0.01300000000002241,2.4792000000000223
2.835000000000001,-2.8152727272727174,-0.5487272727272855,2.8051818181818247
2.855000000000001,-2.164666666666629,-0.6834444444444426,2.7082222222222057
2.875000000000001,-1.544999999999985,-0.5554999999999931,2.5915000000000066
2.895000000000001,-1.33181818181817,-0.6860909090909322,2.6984545454545463
2.915000000000001,-1.350181818181829,-1.2605454545454842,2.280909090909036
2.9350000000000005,-1.1436666666666528,-1.976333333333347,0.23966666666660286
2.9550000000000005,-0.936399999999993,-1.7683999999999813,-1.5976000000000279
2.9750000000000005,-0.07759999999996597,-1.2737999999999927,-2.0499999999999985
2.9950000000000006,0.17872727272725664,-1.0853636363636339,-2.4585454545454657
3.0150000000000006,-0.6096000000000195,-0.4403999999999714,-2.3017999999999885
3.0350000000000006,-0.4677499999999801,0.29191666666667804,-5.645250000000274
3.0550000000000006,-0.17659999999997578,2.6262000000000008,-5.297000000000044
3.0750000000000006,4.698000000000122,0.23918181818177903,-5.227090909090876
3.0950000000000006,4.091799999999909,0.8132000000000146,-2.7019999999999493
3.1150000000000007,0.5027272727271889,1.0911818181817923,-1.3475454545454286
3.1350000000000007,-2.407800000000103,-0.32640000000003666,0.8924000000001455
3.1550000000000007,-3.057727272727275,-1.01963636363637,4.157818181818216
3.1750000000000007,-3.470800000000015,0.06520000000008735,4.439800000000011
3.1950000000000007,-2.8994999999998887,1.2334999999999605,3.567999999999962
3.2150000000000007,0.4096000000001043,0.7163999999999995,1.639799999999929
3.2350000000000008,1.6530000000000036,0.30772727272726086,1.2366363636363777
3.255000000000001,0.4246666666666132,0.4736666666666929,2.2110000000000416
3.275000000000001,0.19491666666669205,0.9643333333333457,1.4257499999999284
3.295000000000001,-0.04733333333335693,0.6606666666666681,0.383333333333295
3.315000000000001,-0.5661000000000137,1.0906000000000182,0.0908000000000172
3.335000000000001,-0.4137000000000136,1.2466999999999941,0.4934000000000061
3.355000000000001,-0.8656000000000184,0.9922999999999864,0.3952999999999991
3.375000000000001,-1.1613333333333409,0.8133333333333278,0.7166666666666909
3.395000000000001,-1.4129166666666901,0.6764166666666516,0.2550833333332799
3.415000000000001,-1.3164999999999676,0.5757999999999986,-1.080700000000034
3.435000000000001,-0.6135999999999586,0.19679999999999884,-0.32599999999990814
3.455000000000001,0.506600000000053,0.4699000000000141,1.257400000000044
3.475000000000001,0.9045999999999872,0.32489999999998287,0.2442999999998876
3.495000000000001,0.3493999999999673,0.6504000000000221,-0.6610000000000362
3.515000000000001,-0.5995000000000722,0.8540999999999992,-1.3112000000000053
3.535000000000001,-1.7476000000000402,0.9209000000000065,-1.1202999999999814
3.5550000000000006,-2.2367999999999997,1.0180999999999896,-1.4989000000000174
3.5750000000000006,-1.923399999999993,0.758999999999984,-0.5761999999999577
3.5950000000000006,-1.6209999999999836,-0.6920000000000582,0.7607000000000157
3.6150000000000007,-0.7522999999999764,-1.1512999999999494,-0.37150000000008565
3.6350000000000007,-2.2017000000000393,1.841500000000095,-0.7640999999999647
3.6550000000000007,-1.9265454545454894,1.6347272727272326,-0.6145454545455391
3.6750000000000007,-0.4706999999999196,0.6270999999999818,-2.8633000000000495
3.6950000000000007,2.0562727272728094,1.3598181818182222,-3.5434545454545807
3.7150000000000007,3.5116999999999936,1.1345000000000125,-4.518499999999998
3.7350000000000008,3.0521999999999685,0.5374999999999449,-5.0413000000000405
3.755000000000001,1.5594999999999493,-0.26720000000000893,-5.986000000000013
3.775000000000001,1.329545454545454,-0.37351515151515463,-6.033212121212121
3.795000000000001,1.3113636363636356,-0.45412121212121526,-6.021696969696969
3.815000000000001,1.2931818181818175,-0.5347272727272758,-6.010181818181818
3.835000000000001,1.2749999999999992,-0.6153333333333364,-5.998666666666666
3.855000000000001,1.2568181818181812,-0.6959393939393971,-5.987151515151514
3.875000000000001,1.238636363636363,-0.7765454545454576,-5.9756363636363625
3.895000000000001,-2.78499999999993,-2.5529999999999102,-0.8949999999999858
3.915000000000001,-0.5485833333332704,-4.070833333333358,-0.48941666666666256
3.935000000000001,1.3893636363637223,-4.599636363636359,0.08536363636368433
3.955000000000001,2.454166666666697,-3.855916666666629,0.7341666666666739
3.975000000000001,3.5387272727273436,-3.227272727272712,1.1071818181818396
3.995000000000001,5.668111111111223,-3.0658888888888853,1.594888888888914
4.015000000000001,7.55933333333339,-2.66399999999997,2.446333333333383
4.035000000000001,8.047166666666646,-0.9177499999998866,3.637916666666691
4.055000000000001,6.988818181818148,0.8564545454545841,3.5679999999999845
4.075000000000001,5.708599999999903,1.5082000000000158,2.644799999999927
4.095000000000001,4.306454545454525,1.7278181818181806,1.459363636363614
4.115000000000001,3.705363636363607,1.6330909090909176,0.5267272727272343
4.135000000000001,2.6769999999999468,2.2650000000000374,0.26000000000000995
4.155000000000001,1.7319999999999438,2.9110000000000453,0.7075000000000515
4.175000000000001,1.106272727272711,3.9108181818182413,1.3541818181818406
4.195000000000001,0.8653333333333137,4.854666666666697,1.488333333333327
4.215000000000001,0.7836443057722307,4.975708268330734,1.4696521060842436
4.235000000000001,0.7655787831513253,4.995365054602185,1.4727722308892357
4.255000000000001,0.7475132605304209,5.015021840873635,1.4758923556942278
4.275000000000001,0.7294477379095157,5.0346786271450865,1.4790124804992202
4.295000000000001,0.7113822152886112,5.054335413416537,1.4821326053042123
4.315000000000001,0.6933166926677059,5.073992199687988,1.4852527301092047
4.335000000000001,0.6752511700468015,5.0936489859594385,1.4883728549141968
4.355000000000001,0.6571856474258962,5.11330577223089,1.491492979719189
4.375000000000001,0.6391201248049918,5.13296255850234,1.494613104524181
4.395000000000001,0.6210546021840866,5.152619344773791,1.4977332293291734
4.415000000000001,0.602989079563182,5.172276131045242,1.5008533541341655
4.435000000000001,0.5849235569422768,5.191932917316693,1.5039734789391577
4.455000000000001,0.5668580343213724,5.211589703588144,1.5070936037441498
4.475000000000001,0.5487925117004671,5.231246489859595,1.5102137285491422
4.495000000000001,0.5307269890795627,5.250903276131046,1.5133338533541343
4.515000000000001,0.5126614664586582,5.270560062402496,1.5164539781591264
4.535000000000001,0.49459594383775296,5.290216848673948,1.5195741029641188
4.555000000000001,0.4765304212168485,5.309873634945398,1.522694227769111
4.575000000000001,0.45846489859594325,5.329530421216849,1.525814352574103
4.595000000000001,0.4403993759750388,5.3491872074883,1.5289344773790952
4.615000000000001,0.42233385335413354,5.368843993759751,1.5320546021840875
4.635000000000001,0.4042683307332291,5.388500780031202,1.5351747269890796
4.655000000000001,0.3862028081123238,5.408157566302653,1.5382948517940718
4.675000000000001,0.3681372854914194,5.427814352574104,1.541414976599064
4.695000000000001,0.35007176287051417,5.447471138845555,1.5445351014040563
4.715000000000001,0.3320062402496097,5.467127925117005,1.5476552262090484
4.735000000000001,0.31394071762870446,5.486784711388457,1.5507753510140407
4.755000000000001,0.2958751950078,5.506441497659907,1.5538954758190329
4.775000000000001,0.2778096723868947,5.526098283931359,1.557015600624025
4.795000000000001,0.25974414976599025,5.545755070202809,1.5601357254290171
4.815000000000001,0.24167862714508503,5.5654118564742605,1.5632558502340095
4.835000000000001,0.2236131045241806,5.585068642745711,1.5663759750390016
4.855000000000001,-3.1335714285714573,7.851571428571377,-2.1291428571426736
4.875000000000001,-4.8916000000001185,7.562400000000003,-0.8541999999999599
4.895000000000001,-6.683000000000081,8.169222222222277,-0.37055555555551556
4.915000000000001,-5.965545454545384,9.364272727272773,-0.3121818181817958
4.935000000000001,-4.419090909090844,10.345181818181874,0.1554545454545763
4.955000000000001,-5.207300000000049,11.060200000000023,0.23929999999999638
4.975000000000001,-6.562900000000116,10.838999999999928,-0.36160000000008125
4.995000000000001,-7.981900000000059,9.541499999999964,-0.791199999999979
5.0150000000000015,-8.735199999999956,9.503600000000029,1.270000000000151
5.035000000000001,-3.153399999999578,6.295199999999677,1.405199999999914
5.0550000000000015,5.579500000000763,-4.249200000001094,-1.671000000000293
5.075000000000001,10.134899999999954,-13.718200000000103,-3.1232999999999693
5.0950000000000015,5.3563333333330645,-11.860777777777773,0.3843333333336356
5.115000000000001,1.529599999999793,-10.672799999999851,2.8060000000000103
5.135000000000002,1.3102000000000849,-12.837600000000393,0.6361999999997644
5.155000000000001,3.967600000000231,-14.738800000000046,1.956200000000148
5.175000000000001,7.761400000000238,-12.903199999999893,3.02199999999995
5.195000000000001,7.750400000000035,-12.329599999999852,0.39979999999981075
5.215000000000001,6.312599999999886,-10.4559999999999,-1.1872000000000447
5.235000000000001,5.329799999999988,-9.990799999999993,-1.614400000000012
5.255000000000001,5.321428571428581,-10.052142857142876,-1.6171428571428625
5.275000000000001,5.064599999999986,-9.904599999999972,-2.0288000000000226
5.295000000000001,5.280444444444453,-9.284111111111086,-2.0094444444444326
5.315000000000001,4.461181818181717,-7.555999999999872,-1.2208181818181263
5.335000000000001,2.495888888888782,-5.098333333333191,-0.5696666666666457
5.355000000000001,1.2791999999999535,-3.313399999999934,-0.9968000000000428
5.375000000000001,0.4057999999999484,-2.4379999999999526,-1.4314000000000084
5.395000000000001,-0.5374000000000545,-1.2397999999999225,-1.0839999999999639
5.415000000000001,-1.2186000000000268,-0.14399999999994245,-0.4763999999999635
5.435000000000001,-0.7779999999999452,0.9022000000000596,0.1670000000000361
5.455000000000001,-0.09685714285712713,1.5118571428571583,0.3941428571428599
5.475000000000001,-0.22227272727277972,2.247000000000061,0.4318181818181813
5.495000000000001,-0.9838000000000325,3.032800000000038,0.3231999999999914
5.5150000000000015,-1.3630000000000166,3.714400000000042,0.07079999999998024
5.535000000000001,-1.436777777777784,4.214000000000023,-0.29366666666668995
5.5550000000000015,-1.864800000000038,4.466400000000023,-0.48220000000000424
5.575000000000001,-2.5656666666667003,4.772333333333348,-0.5450000000000018
5.5950000000000015,-2.744399999999996,5.034800000000014,-0.5275999999999953
5.615000000000001,-2.3261999999999685,5.248600000000005,-0.45299999999999785
5.635000000000002,-1.701363636363585,4.931454545454505,-0.7216363636363984
5.655000000000001,-1.1239999999999755,4.214999999999958,-1.2692000000000345
5.675000000000002,-0.5876666666665578,3.1743333333331307,-2.0323333333334688
5.695000000000001,0.11740000000002909,1.4811999999999104,-2.8996000000000346
5.715000000000002,0.5336000000000443,-0.38200000000019346,-3.0919999999999837
5.735000000000001,0.8406000000000045,-2.332400000000102,-2.585399999999965
5.755000000000002,0.19027272727265082,-3.3010909090909357,-1.3024545454544152
5.775000000000001,-0.7512222222222765,-2.834111111111061,0.6415555555556778
5.795000000000002,-1.1612727272727423,-2.0057272727272015,2.1248181818182847
5.815000000000001,-1.1999999999999957,-0.8131999999999343,3.117400000000039
5.835000000000001,-1.0899999999999905,0.2684000000000499,3.418600000000001
5.855000000000001,-0.5195999999999645,0.7594000000000132,2.9943999999999664
5.875000000000001,-0.04959999999998796,0.7066000000000002,2.0763999999999405
5.895000000000001,-0.052999999999998756,0.7101999999999931,0.7613999999999158
5.915000000000001,0.048818181818187575,0.4197272727272554,-0.4346363636364159
5.935000000000001,0.2992000000000196,-0.168000000000054,-1.2672000000000523
5.955000000000001,0.593400000000012,-0.9344000000000323,-1.5781999999999994
5.975000000000001,0.32433333333329284,-0.5655555555554881,-0.9013333333332633
5.995000000000001,-0.2681818181818475,0.09618181818183959,-0.1859090909090576
6.0150000000000015,-1.1976666666667632,0.5871111111111894,0.6110000000000726
6.035000000000001,-2.1864000000000403,2.199600000000094,1.28080000000003
6.0550000000000015,-2.1460515021459208,3.2921201716738233,1.4742789699570815
6.075000000000001,-2.126180257510728,3.3324206008583714,1.4724763948497854
6.0950000000000015,-2.1063090128755344,3.372721030042922,1.4706738197424891
6.115000000000001,-2.086437768240342,3.4130214592274704,1.468871244635193
6.135000000000002,-2.0665665236051485,3.4533218884120207,1.467068669527897
6.155000000000001,-2.0466952789699557,3.4936223175965693,1.4652660944206009
6.175000000000002,-2.026824034334762,3.533922746781119,1.4634635193133045
6.195000000000001,-2.0069527896995694,3.5742231759656677,1.4616609442060085
6.215000000000002,-1.9870815450643757,3.614523605150218,1.4598583690987124
6.235000000000001,-1.967210300429183,3.6548240343347667,1.4580557939914163
6.255000000000002,-1.9473390557939896,3.695124463519317,1.4562532188841202
6.275000000000001,-1.9274678111587968,3.7354248927038656,1.4544506437768239
6.295000000000002,-1.9075965665236032,3.7757253218884155,1.4526480686695278
6.315000000000001,-1.8877253218884107,3.816025751072964,1.4508454935622317
6.335000000000002,-1.867854077253217,3.8563261802575144,1.4490429184549356
6.355000000000001,-1.8479828326180243,3.896626609442063,1.4472403433476395
6.375000000000002,-1.8281115879828307,3.9369270386266133,1.4454377682403432
6.395000000000001,-1.808240343347638,3.9772274678111614,1.4436351931330471
6.415000000000002,-1.7883690987124443,4.017527896995712,1.441832618025751
6.435000000000001,-1.7684978540772518,4.05782832618026,1.440030042918455
6.455000000000001,-1.748626609442059,4.098128755364809,1.4382274678111588
6.475000000000001,-1.7287553648068654,4.138429184549359,1.4364248927038625
6.495000000000001,-1.7088841201716727,4.178729613733908,1.4346223175965664
6.5150000000000015,-1.6280000000015098,6.618000000002301,0.8039999999992362
6.535000000000001,4.838199999999427,11.073999999999803,-20.36360000000056
6.5550000000000015,-0.8385000000001542,8.837099999999795,-12.354099999998999
6.575000000000001,-1.167999999999996,7.690666666666587,4.170333333334522
6.5950000000000015,-0.110799999999969,4.624799999999784,10.534200000000201
6.615000000000001,-3.4817000000002647,4.801900000000061,8.599899999999723
6.635000000000002,-6.168300000000191,6.359400000000146,4.562799999999735
6.655000000000001,-8.837888888889102,7.614000000000111,2.20111111111101
6.675000000000002,-8.649111111110972,9.085777777777894,0.7277777777776138
6.695000000000001,-4.694299999999726,9.284200000000011,-1.1906000000001256
6.715000000000002,-2.3778999999998707,9.066099999999965,-1.7592000000000052
6.735000000000001,-2.2682000000000437,8.736199999999986,-1.0435999999999266
6.755000000000002,-3.300800000000091,8.365199999999968,0.06920000000007648
6.775000000000001,-4.662900000000077,8.135300000000003,1.273500000000079
6.795000000000002,-3.828699999999886,8.685700000000063,1.21819999999995
6.815000000000001,-3.1168999999999887,9.995700000000094,-0.942000000000182
6.835000000000002,-3.865800000000071,10.411800000000007,-3.1514000000001414
6.855000000000001,-5.238000000000031,10.124999999999956,-4.673000000000018
6.875000000000002,-6.418000000000063,9.479000000000003,-4.819999999999863
6.895000000000001,-6.432999999999765,9.997000000000037,-2.8229999999999036
6.915000000000002,-3.2536999999997107,9.132299999999816,-2.931600000000118
6.935000000000001,-3.3389999999998343,5.654999999999371,-5.242000000000081
6.955000000000002,-0.9854999999997773,-1.9400000000006203,-5.20109999999991
6.975000000000001,0.6530000000000028,-6.178999999999983,-0.6929999999995806
6.995000000000002,2.1640000000002506,-6.721000000000108,3.5861000000002825
7.0150000000000015,6.886777777778148,-7.347777777777792,3.926888888888772
7.035000000000002,10.64400000000064,-8.881833333333804,0.30049999999926613
7.0550000000000015,10.372222222222131,-10.395888888888948,-1.2790000000000281
7.075000000000001,8.32037499999983,-8.622249999999923,-1.726374999999933
7.0950000000000015,8.371777777777783,-9.26666666666667,-2.897555555555684
7.115000000000001,8.098000000000027,-8.63999999999998,-3.6740000000000013
7.135000000000002,8.560454545454569,-8.257181818181797,-3.388181818181774
7.155000000000001,8.961000000000025,-8.55900000000004,-1.7819999999999785
7.175000000000002,9.098999999999934,-9.320000000000094,-1.4529999999999625
7.195000000000001,8.041999999999907,-10.20799999999998,-0.7629999999999842
7.215000000000002,5.785999999999851,-9.688999999999984,-1.2470000000001535
7.235000000000001,4.564999999999989,-9.598000000000003,-2.985000000000085
7.255000000000002,4.130999999999915,-9.294999999999881,-5.0200000000000715
7.275000000000001,3.407000000000003,-8.14499999999997,-5.321999999999951
7.295000000000002,3.3679999999999657,-7.401999999999946,-3.8069999999998383
7.315000000000001,2.767999999999934,-6.869999999999989,-1.950999999999909
7.335000000000002,0.907999999999765,-6.635999999999952,0.07200000000018225
7.355000000000001,-1.5340000000000802,-6.18999999999999,2.2420000000001155
7.375000000000002,-3.216000000000173,-6.186999999999965,4.90400000000029
7.395000000000001,-5.513000000000106,-5.420999999999918,7.829000000000111
7.415000000000002,-6.266000000000013,-4.586999999999931,8.438999999999892
7.435000000000001,-6.570909090909125,-3.8738181818181343,7.094545454545347
7.455000000000002,-6.7400909090908945,-3.2971818181817847,5.166909090908962
7.475000000000001,-5.974999999999946,-2.367999999999849,4.110000000000047
7.495000000000002,-5.094999999999905,-0.8389999999999425,4.658000000000016
7.5150000000000015,-4.267749999999959,-0.39374999999998456,4.753749999999999
7.535000000000002,-4.420999999999968,-0.15399999999993125,4.60799999999994
7.5550000000000015,-3.638999999999871,0.6570000000000539,3.665999999999866
7.575000000000002,-2.2839999999999145,1.1710000000000282,2.106999999999896
7.5950000000000015,-1.4219999999999888,1.6300000000000627,0.9789999999999375
7.615000000000002,-1.472000000000022,2.3220000000000494,0.42699999999997784
7.635000000000002,-1.9970000000001134,2.896000000000046,0.16699999999997417
7.655000000000002,-3.307000000000073,3.454000000000029,-0.06600000000001227
7.675000000000002,-4.054000000000033,3.7000000000000175,-0.1179999999999798
7.695000000000002,-4.280999999999989,3.8480000000000047,0.06999999999997673
7.715000000000002,-4.163999999999998,3.9440000000000124,-0.26900000000003377
7.735000000000001,-4.081999999999988,4.056000000000011,-0.48899999999999266
7.755000000000002,-3.599999999999905,4.236999999999983,-0.2819999999999849
7.775000000000001,-2.705999999999965,3.9239999999999697,-0.12799999999997497
7.795000000000002,-1.7039999999999338,3.089999999999903,0.780000000000098
7.815000000000001,-1.0899999999999854,2.0729999999999693,1.7540000000000218
7.835000000000002,-0.7499999999999698,1.3979999999999375,1.8929999999999052
7.855000000000001,-0.39299999999998597,0.6419999999999698,0.5579999999999302
7.875000000000002,-0.023999999999927007,-0.024000000000086074,-0.7020000000000498
7.895000000000001,1.007000000000058,-1.2590000000000774,-1.2210000000000139
7.915000000000002,1.2709999999999646,-1.7470000000000072,-1.412000000000024
7.935000000000001,1.0820000000000722,-1.966000000000048,-1.790000000000059
7.955000000000002,1.9764615384616186,-2.596000000000059,-2.396846153846199
7.975000000000001,3.0052000000000465,-3.2822000000000244,-2.794000000000005
7.995000000000002,3.1677500000000003,-3.207749999999971,-2.1504999999998806
8.015,2.9302222222221914,-2.8987777777777435,-1.0961111111110382
8.035000000000002,2.3712222222221784,-1.7376666666665668,0.26122222222231445
8.055000000000001,1.764000000000002,0.10600000000007875,1.4010000000000262
8.075000000000001,1.9330000000000207,1.0844000000000595,1.5828000000000007
8.095000000000002,2.530000000000038,2.231000000000031,0.9759999999999288
8.115000000000002,2.9154000000000226,2.5316000000000156,0.15579999999993976
8.135000000000002,3.065222222222241,2.7728888888889127,-0.3927777777778173
8.155000000000001,3.284700000000008,2.749799999999996,-0.5460000000000016
8.175000000000002,3.846818181818259,2.327909090909029,-0.5409999999999946
8.195000000000002,4.487600000000106,1.6893999999998885,-0.504199999999994
8.215000000000002,5.19740000000003,0.8179999999999594,-0.3261999999999818
8.235000000000001,5.0799999999999335,0.6790000000000118,0.6130000000000929
8.255000000000003,4.223999999999934,0.8210000000000124,1.585000000000057
8.275000000000002,3.4815999999998954,0.9242000000000069,2.156600000000066
8.295000000000002,2.7229999999999444,1.0265555555555723,2.441444444444451
8.315000000000001,2.147777777777753,1.2044444444444524,2.166111111111082
8.335000000000003,1.8917931034482691,1.4112413793103515,1.475482758620652
8.355000000000002,1.8476551724137873,1.4560689655172472,1.2251379310344497
8.375000000000002,1.3279999999999996,1.6859999999999795,0.46599999999998226
8.395000000000001,1.3777272727272762,1.431909090909082,0.3196363636363606
8.415000000000001,1.5335999999999932,0.8353999999999656,0.002899999999978739
8.435000000000002,1.2789999999999557,0.4559999999999838,-0.238
8.455000000000002,0.8789999999999791,0.27099999999998836,-0.11099999999994731
8.475000000000001,0.648999999999978,0.13499999999998882,0.5350000000000601
8.495000000000001,0.42400000000001065,-0.009000000000047664,1.0359999999999867
8.515000000000002,0.8216000000001157,-1.0134000000002423,0.5643999999998643
8.535000000000002,0.5206363636362537,-1.4921818181817543,-0.10718181818184262
8.555000000000001,-0.4140000000000785,-1.2595000000000312,0.2546000000000702
8.575000000000001,-0.18299999999994437,-2.7190000000000794,1.027000000000021
8.595000000000002,0.45500000000000285,-3.488999999999936,1.092999999999927
8.615000000000002,0.38499999999996964,-2.4219999999998687,0.09399999999989005
8.635000000000002,0.22000000000001776,-0.9949999999998996,-1.064000000000073
8.655000000000001,0.35244444444444534,0.3185555555556027,-1.950777777777807
8.675000000000002,0.09199999999996199,1.6890000000000804,-2.4250000000000145
8.695000000000002,-0.25000000000001227,2.296999999999978,-2.5900000000000247
8.715000000000002,-0.3312959183673489,2.164785714285713,-2.7464591836734717
8.735000000000001,-0.3558877551020423,2.148357142857142,-2.7773775510204097
8.755000000000003,-0.38047959183673785,2.131928571428569,-2.808295918367351
8.775000000000002,-0.40507142857143125,2.115499999999998,-2.839214285714289
8.795000000000002,-0.42966326530612464,2.099071428571427,-2.8701326530612272
8.815000000000001,-0.45425510204081804,2.082642857142856,-2.901051020408165
8.835000000000003,-0.47884693877551365,2.0662142857142833,-2.9319693877551063
8.855000000000002,-0.503438775510207,2.0497857142857123,-2.9628877551020443
8.875000000000002,-0.5280306122449003,2.0333571428571413,-2.9938061224489823
8.895000000000001,-0.5526224489795938,2.0169285714285703,-3.0247244897959207
8.915000000000003,-1.010999999999523,0.3924999999998388,-0.14149999999930057
8.935000000000002,-0.31663636363635095,-0.060909090909084834,-0.8651818181818536
8.955000000000002,-0.28600000000001496,0.08000000000001369,-1.0654000000000043
8.975000000000001,-0.5091666666666692,0.23699999999999527,-1.0898333333333308
8.995000000000001,-0.533,0.11289999999999525,-1.097500000000002
9.015000000000002,-0.4437999999999843,0.052499999999996536,-0.7884999999999549
9.035000000000002,-0.6160000000000275,-0.07900000000001207,-0.35299999999996107
9.055000000000001,-0.8235833333333317,-0.2496666666666781,0.08258333333335298
9.075000000000001,-0.9170000000000271,-0.4760000000000064,0.42200000000002375
9.095000000000002,-1.181999999999996,-0.5099999999999915,0.7120000000000201
9.115000000000002,-1.103090909090903,-0.38736363636363297,0.9451818181818197
9.135000000000002,-1.0202499999999948,-0.3403749999999968,0.9682500000000017
9.155000000000001,-0.8249999999999961,-0.22900000000000162,0.8329999999999632
9.175000000000002,-0.8470000000000073,-0.23899999999998703,0.3629999999999467
9.195000000000002,-0.9139999999999836,-0.01899999999998125,-0.20900000000006158
9.215000000000002,-0.6899999999999875,0.09700000000001083,-0.8130000000000425
9.235000000000001,-0.6439999999999937,0.26600000000000734,-1.2820000000000258
9.255000000000003,-0.5679999999999924,0.2849999999999985,-1.505000000000002
9.275000000000002,-0.3612307692307326,0.20123076923074407,-1.4995384615384515
9.295000000000002,-0.042666666666621805,-0.013333333333362993,-1.4828888888888956
9.315000000000001,0.21699999999999303,-0.2730000000000033,-1.7070000000000127
9.335000000000003,0.12911111111109902,-0.254111111111099,-1.763666666666658
9.355000000000002,0.40390909090913407,-0.0498181818181664,-1.6051818181817974
9.375000000000002,0.5801666666666455,0.132499999999994,-1.4412499999999897
9.395000000000001,0.19399999999999348,-0.2140000000001502,-1.2159999999999511
9.415000000000003,0.08699999999983775,-1.8140000000000585,-0.7209999999998046
9.435000000000002,-0.3898999999999543,-1.2548999999998207,0.20790000000001393
9.455000000000002,-0.121249999999975,-0.21858333333323876,0.09799999999996895
9.475000000000001,0.02266666666666509,0.3523333333333349,0.01322222222223196
9.495000000000003,0.08480000000005197,0.15119999999989953,0.1594000000000117
9.515000000000002,0.7360000000001451,-0.9207500000002095,0.12774999999997264
9.535000000000002,1.7807000000000395,-2.425200000000061,0.07810000000002001
9.555000000000001,2.10699999999994,-3.0659999999999625,0.5570000000001035
9.575000000000003,1.2909230769229436,-2.49623076923067,1.6741538461540009
9.595000000000002,1.181204819277106,-2.4151686746987937,1.800337349397593
9.615000000000002,1.1625435073627826,-2.402022757697455,1.8207121820615817
9.635000000000002,1.143882195448459,-2.388876840696117,1.8410870147255707
9.655000000000001,1.1252208835341353,-2.3757309236947783,1.8614618473895594
9.675000000000002,1.1065595716198102,-2.362585006693439,1.8818366800535502
9.695000000000002,1.0878982597054867,-2.3494390896921002,1.902211512717539
9.715000000000002,1.069236947791163,-2.336293172690762,1.922586345381528
9.735000000000001,1.0505756358768394,-2.3231472556894235,1.9429611780455167
9.755000000000003,1.0319143239625141,-2.310001338688084,1.9633360107095075
9.775000000000002,1.0132530120481906,-2.2968554216867454,1.9837108433734962
9.795000000000002,0.9945917001338671,-2.2837095046854072,2.004085676037485
9.815000000000001,0.9759303882195436,-2.2705635876840686,2.024460508701474
9.835000000000003,0.9572690763052183,-2.257417670682729,2.0448353413654647
9.855000000000002,0.9386077643908948,-2.2442717536813905,2.0652101740294535
9.875000000000002,0.9199464524765713,-2.2311258366800524,2.0855850066934423
9.895000000000001,0.9012851405622476,-2.2179799196787138,2.105959839357431
9.915000000000003,0.8826238286479224,-2.2048340026773743,2.126334672021422
9.935000000000002,0.8639625167335989,-2.191688085676036,2.1467095046854108
9.955000000000002,0.8453012048192753,-2.1785421686746975,2.1670843373493995
9.975000000000001,0.8266398929049517,-2.165396251673359,2.1874591700133887
9.995000000000003,0.8079785809906265,-2.1522503346720194,2.2078340026773793
10.015000000000002,0.7893172690763028,-2.1391044176706813,2.228208835341368
10.035000000000002,0.7706559571619793,-2.1259585006693427,2.248583668005357
10.055000000000001,0.7519946452476558,-2.112812583668004,2.2689585006693456
10.075000000000003,0.7333333333333305,-2.0996666666666646,2.2893333333333366
10.095000000000002,0.714672021419007,-2.0865207496653264,2.3097081659973253
10.115000000000002,0.6960107095046835,-2.073374832663988,2.330082998661314
10.135000000000002,0.6773493975903598,-2.060228915662649,2.350457831325303
10.155000000000003,0.6586880856760347,-2.0470829986613097,2.370832663989294
10.175000000000002,0.6400267737617111,-2.0339370816599716,2.3912074966532826
10.195000000000002,0.6213654618473875,-2.020791164658633,2.4115823293172713
10.215000000000002,0.602704149933064,-2.007645247657295,2.43195716198126
10.235000000000003,0.5840428380187387,-1.994499330655955,2.4523319946452506
10.255000000000003,0.5653815261044152,-1.9813534136546167,2.47270682730924
10.275000000000002,0.5467202141900916,-1.968207496653278,2.4930816599732286
10.295000000000002,0.528058902275768,-1.9550615796519397,2.5134564926372174
10.315000000000001,0.5093975903614445,-1.9419156626506013,2.5338313253012066
10.335000000000003,2.1893333333298615,-9.579666666664332,5.323333333332262
10.355000000000002,-4.555999999994769,8.692999999997971,-1.3510000000017577
10.375000000000002,6.581692307692123,6.086692307692245,-2.598230769230419
10.395000000000001,4.156937499999625,5.627187499999957,0.025500000000247658
10.415000000000003,-4.149071428572265,4.393071428571197,1.6472857142856536
10.435000000000002,-8.577000000000318,2.9612857142856988,1.1515714285714334
10.455000000000002,-11.158200000000189,4.843600000000226,1.8430000000000362
10.475000000000001,-12.355599999999997,6.381800000000029,1.8775999999999895
10.495000000000003,-11.037363636363219,6.731363636363605,1.4479090909089447
10.515000000000002,-7.154999999999574,6.580200000000017,0.055599999999810495
10.535000000000002,-4.641999999999825,6.714000000000003,-1.3570000000001357
10.555000000000001,-3.319769230769217,6.759076923076933,-2.1992307692307707
10.575000000000003,-2.998692307692317,7.092615384615405,-1.8859999999999213
10.595000000000002,-3.565352941176619,7.66523529411776,-1.1124117647058516
10.615000000000002,-5.811454545454753,9.09336363636369,-0.9090000000000317
10.635000000000002,-7.3680000000001735,9.527000000000083,-0.994999999999958
10.655000000000003,-9.085000000000347,10.379000000000135,-0.47399999999987563
10.675000000000002,-11.179200000000069,11.097999999999974,0.23620000000015318
10.695000000000002,-10.705799999999817,9.841599999999762,1.5034000000000105
10.715000000000002,-7.127199999999651,5.424799999999601,1.0102999999998985
10.735000000000003,0.04800000000144955,-2.4124000000016137,-0.7378000000002591
10.755000000000003,9.489300000001082,-10.504200000000122,-1.8344000000000376
10.775000000000002,15.433200000000348,-12.313800000000686,-2.057999999999881
10.795000000000002,16.16379999999994,-15.423000000000213,-0.8773999999999644
10.815000000000003,13.326099999998991,-16.65490000000043,0.9960000000001661
10.835000000000003,6.972399999998826,-15.392699999998868,1.4974000000004482
10.855000000000002,1.5690000000001052,-12.080899999999932,2.711099999999622
10.875000000000002,3.2675555555558575,-10.98388888888882,-0.47400000000024867
10.895000000000003,8.239333333333956,-9.78911111111075,-3.4481111111116296
10.915000000000003,9.798208053691255,-7.595449664429505,-7.051577181208098
10.935000000000002,9.630288590604009,-7.389946308724809,-7.41734899328863
10.955000000000002,9.462369127516762,-7.184442953020115,-7.783120805369161
10.975000000000001,9.294449664429518,-6.978939597315421,-8.148892617449691
10.995000000000003,9.126530201342256,-6.773436241610707,-8.514664429530256
11.015000000000002,8.958610738255011,-6.567932885906012,-8.880436241610788
11.035000000000002,8.790691275167765,-6.362429530201318,-9.24620805369132
11.055000000000001,8.622771812080519,-6.156926174496623,-9.61197986577185
11.075000000000003,0.42649999999911936,2.715500000000673,2.053500000001123
11.095000000000002,-1.8061999999999578,3.0052999999999863,-0.3722000000000223
11.115000000000002,-1.1157499999999185,2.7754999999999708,-0.5860000000000172
11.135000000000002,0.1313333333334486,2.375833333333294,-0.8191666666666799
11.155000000000003,0.8285555555555394,2.089111111111076,-0.7546666666666302
11.175000000000002,0.7066923076923067,1.7566923076922405,-0.43192307692301657
11.195000000000002,0.5965999999999622,1.29219999999993,0.049800000000085554
11.215000000000002,-0.09500000000003618,1.1213636363636512,0.9033636363636885
11.235000000000003,-0.5795454545455041,1.3722727272727604,1.7315454545455573
11.255000000000003,-0.811600000000007,1.459199999999999,2.4542000000000685
11.275000000000002,-0.7598181818181386,1.0838181818180956,2.8636363636363855
11.295000000000002,-0.3004999999999727,-0.09550000000017919,2.3429999999997992
11.315000000000003,-0.22190909090909644,-1.5219090909090185,-0.2737272727275437
11.335000000000003,0.1294545454546805,-1.3311818181818567,-1.6662727272729723
11.355000000000002,0.8533333333333172,-1.357166666666623,-3.7626666666668664
11.375000000000002,0.32099999999993123,-0.841999999999909,-5.276000000000037
11.395000000000003,0.2180625000001967,0.44787500000004254,-5.227624999999853
11.415000000000003,1.7381111111114587,0.6270000000000119,-3.901777777777438
11.435000000000002,3.0378333333334133,0.8380000000000293,-1.9083333333331463
11.455000000000002,3.099090909090869,0.9057272727272427,-0.49372727272722977
11.475000000000003,2.149090909090754,0.3402727272726467,-0.08372727272725401
11.495000000000003,0.12414285714272666,-0.27592857142859506,-0.12935714285712416
11.515000000000002,-1.3201818181820428,-0.49972727272730194,0.09390909090912809
11.535000000000002,-2.9417500000000425,-0.44949999999998846,0.5037500000000295
11.555000000000003,-3.1654615384615403,-0.42061538461539233,0.8264615384615837
11.575000000000003,-2.38679999999986,-0.6567999999999874,1.3424000000001008
11.595000000000002,-1.4784999999998807,-0.48259999999996256,2.0030000000000876
11.615000000000002,-0.7433999999999694,-0.2940999999999852,2.4475000000000056
11.635000000000002,-0.36169999999999003,0.06450000000003614,2.4198999999999753
11.655000000000003,-0.2536028708133942,0.29570334928229747,2.1421483253588494
11.675000000000002,-0.23762200956937554,0.3003923444976084,2.1298038277511946
11.695000000000002,-0.22164114832535683,0.30508133971291923,2.1174593301435394
11.715000000000002,-0.20566028708133816,0.3097703349282301,2.105114832535884
11.735000000000003,-0.18967942583731803,0.3144593301435414,2.0927703349282276
11.755000000000003,-0.17369856459329935,0.3191483253588523,2.080425837320573
11.775000000000002,-0.15771770334928065,0.32383732057416315,2.0680813397129176
11.795000000000002,-0.14173684210526197,0.328526315789474,2.0557368421052624
11.815000000000003,-0.12575598086124185,0.3332153110047853,2.0433923444976063
11.835000000000003,-0.10977511961722317,0.33790430622009615,2.031047846889951
11.855000000000002,-0.09379425837320449,0.34259330143540706,2.018703349282296
11.875000000000002,2.6510000000002307,0.20000000000011547,0.12399999999963052
11.895000000000003,-0.5426250000001014,-0.3160000000000342,-0.7974999999999332
11.915000000000003,-0.9353333333333518,-0.44033333333334623,-0.3516666666666135
11.935000000000002,-0.8580999999999487,-0.7246000000000669,-0.04009999999999746
11.955000000000002,-0.3231999999999791,-1.4248000000000296,-0.16100000000002362
11.975000000000003,-0.5320769230769785,-1.145307692307614,-0.16869230769228027
11.995000000000003,-0.8510000000000045,-0.596999999999956,0.13500000000006687
12.015000000000002,-0.9820000000000357,-0.28099999999994507,0.5530909090909735
12.035000000000002,-1.1540714285714353,-0.054785714285712495,0.8403571428571489
12.055000000000003,-0.8184999999999081,-0.16840000000001062,0.5967999999999232
12.075000000000003,-0.30099999999993926,-0.5768000000000789,-0.46440000000016823
12.095000000000002,0.12286666666671903,-0.8538000000000218,-1.2317333333334097
12.115000000000002,0.764727272727304,-0.8459090909090817,-2.057545454545503
12.135000000000003,0.869999999999944,-0.6928999999999638,-2.4332000000000535
12.155000000000003,0.42235714285705306,-0.667000000000024,-2.663642857142865
12.175000000000002,-0.2548000000000997,-0.7584000000000037,-2.6186999999999823
12.195000000000002,-1.2985000000001032,-0.7963333333333373,-2.3296666666666344
12.215000000000002,-2.2078888888889256,-0.5263333333333053,-1.795999999999962
12.235000000000003,-2.5842000000000116,-0.10439999999995822,-1.2399999999999354
12.255000000000003,-2.6601111111111075,0.36066666666674324,-0.7363333333332733
12.275000000000002,-2.357699999999935,0.940700000000037,-0.13249999999991502
12.295000000000002,-1.661076923076869,1.1296153846153876,0.68853846153853
12.315000000000003,-1.0440833333332507,1.252916666666714,1.5916666666667783
12.335000000000003,-0.4381999999999233,1.638600000000054,2.271500000000068
12.355000000000002,-0.4640000000000485,2.692900000000164,2.432399999999999
12.375000000000002,-1.3793636363636956,4.694727272727408,2.4406363636363677
12.395000000000003,-2.5170000000001216,7.552777777778183,2.5583333333333016
12.415000000000003,-3.0866000000000153,9.612200000000088,1.892799999999832
12.435000000000002,-2.8627499999998745,9.19499999999969,0.25199999999975353
12.455000000000002,-2.241000000000015,6.874555555555362,-1.3323333333334608
12.475000000000003,-2.7201250000000905,4.384749999999445,-3.0383750000002996
12.495000000000003,-2.6206666666665974,1.7633333333330206,-3.861777777777812
12.515000000000002,0.9785000000003281,-2.9080000000003654,-2.2276428571426727
12.535000000000002,9.232000000000902,-10.955000000000844,1.2040000000004976
12.555000000000003,12.793200000000123,-13.018599999999758,5.136000000000678
12.575000000000003,13.761000000000239,-11.31349999999974,7.99700000000008
12.595000000000002,14.084333333333163,-10.866000000000227,5.901333333332663
12.615000000000002,12.815285714285666,-14.470714285714596,-0.23671428571464337
12.635000000000003,11.484399999999761,-19.0592000000003,-5.277200000000308
12.655000000000003,10.639333333333262,-19.662666666666585,-4.307999999999118
12.675000000000002,9.405499999999686,-18.79049999999986,3.059000000001234
12.695000000000002,6.532999999999478,-17.635999999999793,10.763000000000787
12.715000000000003,2.541999999999455,-14.670999999999257,11.874399999999177
12.735000000000003,0.9571111111109121,-9.402555555554443,3.6077777777761804
12.755000000000003,-2.1068181818191287,-2.4955454545442874,-3.6770000000009446
12.775000000000002,-10.7996666666681,6.1315555555570525,-11.706000000000515
12.795000000000003,-16.352818181818012,14.971363636364703,-9.25945454545335
12.815000000000003,-11.628999999998472,19.50466666666595,-2.0097777777779986
12.835000000000003,-4.319499999999362,13.29164285714204,-5.465214285714822
12.855000000000002,-5.552300000000235,6.1091999999997215,-9.42509999999975
12.875000000000002,-6.139222222221886,4.931444444444578,-4.730777777776795
12.895000000000003,-3.026399999999462,6.134200000000087,2.7925000000010765
12.915000000000003,-1.091499999999988,5.758749999999927,6.903500000000216
12.935000000000002,-2.0366000000003304,6.015200000000178,7.303399999999784
12.955000000000002,-4.254000000000361,7.11800000000019,5.409999999999505
12.975000000000003,-6.893428571428865,8.137857142857131,1.2595714285707973
12.995000000000003,-7.957727272727273,8.132090909090891,-2.451727272727677
13.015000000000002,-7.256636363636182,7.789272727272694,-4.743454545454681
13.035000000000002,-5.381199999999833,7.496399999999976,-4.684199999999905
13.055000000000003,-3.3774545454543397,7.12709090909088,-3.258727272727029
13.075000000000003,-2.3826363636362844,7.262454545454601,-1.553727272727068
13.095000000000002,-2.333555555555712,8.17055555555585,-0.48822222222214096
13.115000000000002,-3.817545454545618,10.374181818182047,-0.44636363636366844
13.135000000000003,-5.022307692307783,11.689230769230754,-1.222846153846366
13.155000000000003,-5.811666666666894,10.982555555555386,-3.5454444444448323
13.175000000000002,-7.141000000000051,9.850499999999808,-5.167500000000062
13.195000000000002,-6.067999999999811,7.934352941176285,-4.753705882352871
13.215000000000003,-1.6414444444436247,2.6946666666654284,-3.9913333333332517
13.235000000000003,3.2085000000004964,-5.868750000000919,-2.987916666666443
13.255000000000003,8.580500000000939,-12.100500000000517,-0.15374999999955208
13.275000000000002,14.151400000000221,-14.810800000000057,3.727600000000303
13.295000000000003,14.151785714284896,-13.81935714285679,7.339142857143444
13.315000000000003,7.008166666664091,-15.168666666666292,6.068666666666769
13.335000000000003,-1.8440000000002013,-11.654999999999959,6.235999999999744
13.355000000000002,-1.7865454545451276,-10.79281818181792,3.2571818181815426
13.375000000000004,1.5473750000008248,-8.898749999999763,1.0582499999995998
13.395000000000003,4.621428571428797,-8.056714285714229,-0.5459285714287018
13.415000000000003,5.101909090909082,-7.541090909090813,-0.7636363636362201
13.435000000000002,5.438800000000101,-6.473933333333214,0.8441333333335158
13.455000000000004,6.685727272727392,-4.867999999999767,2.875090909091072
13.475000000000003,7.3604000000000305,-2.8259999999997314,3.738800000000002
13.495000000000003,7.261727272727237,-1.1069090909088732,3.4738181818181144
13.515000000000002,6.8428999999999105,0.1397000000000721,2.658499999999872
13.535000000000002,5.368749999999682,0.6947500000000542,1.1822499999997704
13.555000000000003,2.851444444444025,1.022222222222253,-0.3717777777779847
13.575000000000003,0.3449230769229144,1.0389999999999688,-1.5923846153846881
13.595000000000002,-0.8043000000000945,0.8375999999999837,-2.0131999999999763
13.615000000000002,-1.2950000000000448,0.7920000000000185,-1.7849999999999522
13.635000000000003,-1.7835555555555878,0.9916666666666863,-0.9714444444442909
13.655000000000003,-1.840571428571406,1.149571428571488,-0.15385714285695667
13.675000000000002,-1.5286666666666082,1.3254999999999821,0.5727500000000231
13.695000000000002,-1.1159999999999746,1.0619999999999694,0.8050000000000342
13.715000000000003,-1.083076923076948,0.7758461538461429,1.0833076923077014
13.735000000000003,-1.26854545454547,0.8080000000000275,1.2256363636363825
13.755000000000003,-1.1994999999999667,1.024500000000015,1.3000000000000047
13.775000000000002,-0.9196666666666421,0.9789999999999818,1.23899999999999
13.795000000000003,-0.6459999999999586,0.7449999999999704,1.1209999999999867
13.815000000000003,-0.5443000000000041,0.7617000000000518,1.1222999999999892
13.835000000000003,-0.542909090909082,1.1302727272727817,0.9802727272726856
13.855000000000002,-0.4373333333333157,1.3186666666666573,0.5839999999999614
13.875000000000004,-0.13241666666661728,1.093083333333281,0.031083333333239704
13.895000000000003,0.08560000000002686,0.8560999999999691,-0.401100000000066
13.915000000000003,0.17828571428571388,0.7107857142857014,-0.730000000000028
13.935000000000002,0.19433333333334582,0.6209999999999943,-0.9883333333333538
13.955000000000004,0.402571428571521,0.5205714285713954,-1.1557142857143232
13.975000000000003,0.7455000000000275,0.5050000000000266,-1.2059999999999858
13.995000000000003,0.93050000000002,0.6835000000000173,-0.9589999999999456
14.015000000000002,1.0061666666666758,0.7873333333333373,-0.47674999999994494
14.035000000000004,1.1877000000000504,0.7324999999999623,-0.08809999999995198
14.055000000000003,1.429999999999991,0.4489999999999531,0.17400000000003446
14.075000000000003,1.1174166666666148,0.29550000000000115,0.41316666666668994
14.095000000000002,0.6765454545454113,0.20463636363633733,0.5569090909090947
14.115000000000002,0.2604999999999432,-0.027500000000016785,0.4034999999999635
14.135000000000003,-0.08681818181820322,-0.12327272727274893,0.1610909090908853
14.155000000000003,-0.10354545454544556,-0.29045454545456606,0.09236363636364298
14.175000000000002,0.02300000000001972,-0.3179999999999899,0.2490000000000421
14.195000000000002,0.2220000000000272,-0.3010000000000101,0.5910000000000437
14.215000000000003,0.32433333333334163,-0.43233333333335405,0.9483333333333789
14.235000000000003,0.2899863547758279,-0.5120935672514615,1.1319122807017543
14.255000000000003,0.28593177387914187,-0.5084678362573095,1.1315614035087718
14.275000000000002,0.2818771929824558,-0.5048421052631575,1.1312105263157894
14.295000000000003,0.27782261208576936,-0.5012163742690053,1.130859649122807
14.315000000000003,0.27376803118908327,-0.4975906432748533,1.1305087719298244
14.335000000000003,0.2697134502923972,-0.4939649122807014,1.130157894736842
14.355000000000002,0.2656588693957111,-0.4903391812865494,1.1298070175438595
14.375000000000004,0.2616042884990247,-0.4867134502923971,1.1294561403508772
14.395000000000003,0.25754970760233864,-0.4830877192982451,1.1291052631578946
14.415000000000003,0.25349512670565255,-0.47946198830409315,1.128754385964912
14.435000000000002,0.24944054580896646,-0.47583625730994117,1.1284035087719297
14.455000000000004,0.24538596491228004,-0.47221052631578886,1.1280526315789472
14.475000000000003,0.24133138401559395,-0.4685847953216369,1.1277017543859649
14.495000000000003,0.2372768031189079,-0.46495906432748496,1.1273508771929823
14.515000000000002,0.2332222222222218,-0.461333333333333,1.127
14.535000000000004,0.22916764132553538,-0.4577076023391807,1.1266491228070175
14.555000000000003,0.22511306042884932,-0.4540818713450287,1.126298245614035
14.575000000000003,0.22105847953216323,-0.4504561403508767,1.1259473684210526
14.595000000000002,0.21700389863547714,-0.44683040935672474,1.12559649122807
14.615000000000004,0.21294931773879072,-0.4432046783625725,1.1252456140350877
14.635000000000003,0.20889473684210463,-0.4395789473684205,1.1248947368421052
14.655000000000003,0.20484015594541857,-0.43595321637426854,1.1245438596491228
14.675000000000002,0.2007855750487325,-0.43232748538011656,1.1241929824561403
14.695000000000004,0.19673099415204606,-0.42870175438596425,1.1238421052631578
14.715000000000003,0.19267641325536,-0.4250760233918123,1.1234912280701754
14.735000000000003,0.1886218323586739,-0.4214502923976603,1.1231403508771929
14.755000000000003,2.7710000000002983,1.7080000000003535,-3.7770000000007995
14.775000000000002,-0.01940000000005951,0.5683999999999945,0.46600000000002667
14.795000000000003,-0.42920000000006137,0.5359999999999941,0.5537999999999954
14.815000000000003,-0.7065000000000347,0.5540000000000018,0.44049999999997247
14.835000000000003,-0.9546000000000445,0.6408000000000278,0.2687999999999846
14.855000000000002,-1.0324999999999767,0.7915000000000061,0.08549999999998245
14.875000000000004,-0.5485714285712301,0.655428571428473,-0.08457142857149275
14.895000000000003,0.3884000000001813,-0.109600000000186,-0.34900000000002734
14.915000000000003,0.7749999999999871,-0.489272727272685,-0.35027272727271597
14.935000000000002,0.56399999999997,0.12350000000009603,-0.2697500000000108
14.955000000000004,0.42044444444446255,0.6320000000000237,-0.4198888888889162
14.975000000000003,0.6085000000000543,0.6553749999999949,-0.6052500000000411
14.995000000000003,0.8239090909091026,0.4598181818181519,-0.811909090909105
15.015000000000002,0.8981428571428566,-0.032857142857251026,-0.9815714285714587
15.035000000000004,0.8101818181818065,-0.8234545454546653,-1.1276363636363702
15.055000000000003,0.5483333333332596,-1.3773333333333566,-0.949999999999937
15.075000000000003,-0.37527272727283273,-1.2215454545454112,-0.16681818181808405
15.095000000000002,-1.2342000000001065,-0.8861999999999497,0.6006000000000955
15.115000000000004,-1.9209090909091653,-0.4080909090908386,1.3191818181819215
15.135000000000003,-2.0815999999999772,-0.19039999999999874,1.867800000000074
15.155000000000003,-1.7580909090908359,-0.36054545454548914,2.2529090909091205
15.175000000000002,-1.113545454545382,-0.5636363636363788,2.160909090909037
15.195000000000004,-0.4729999999998211,-0.6322857142856892,1.5444285714283892
15.215000000000003,-0.016666666666556147,-0.4566666666665541,0.9766666666665189
15.235000000000003,0.3711111111111567,-0.23588888888887652,0.6015555555555084
15.255000000000003,0.5922000000000179,-0.17879999999999122,0.26839999999997366
15.275000000000004,0.7310000000000124,-0.08533333333331952,0.03188888888884099
15.295000000000003,0.8037272727272775,-0.06545454545455162,-0.1442727272727355
15.315000000000003,0.6421818181817831,-0.1697272727272852,-0.10918181818180128
15.335000000000003,0.41319999999993234,-0.21199999999996305,0.04120000000004605
15.355000000000004,0.14499999999991503,0.08333333333347495,0.18333333333338583
15.375000000000004,-0.04533333333336926,0.35066666666668256,0.22166666666664525
15.395000000000003,-0.3292003853564553,0.4343326910725756,0.026307642903018305
15.415000000000003,-0.3326300578034687,0.4352832369942198,0.024329479768785852
15.435000000000002,-0.33605973025048214,0.43623378291586395,0.022351316634553395
15.455000000000004,-0.33948940269749583,0.4371843288375082,0.020373153500320762
15.475000000000003,-0.34291907514450926,0.43813487475915236,0.018394990366088305
15.495000000000003,-0.3463487475915227,0.43908542068079653,0.016416827231855852
15.515000000000002,-0.3497784200385361,0.4400359666024407,0.014438664097623396
15.535000000000004,-0.3532080924855498,0.44098651252408494,0.012460500963390764
15.555000000000003,-0.3566377649325632,0.4419370584457291,0.01048233782915831
15.575000000000003,-0.3600674373795766,0.4428876043673733,0.008504174694925853
15.595000000000002,-0.36349710982659,0.44383815028901746,0.006526011560693396
15.615000000000004,-0.36692678227360376,0.4447886962106617,0.004547848426460766
15.635000000000003,-0.3703564547206172,0.44573924213230587,0.0025696852922283096
15.655000000000003,-0.37378612716763054,0.44668978805395004,0.0005915221579958531
15.675000000000002,-0.37721579961464397,0.4476403339755942,-0.0013866409762366
15.695000000000004,-0.3806454720616577,0.44859087989723845,-0.0033648041104692335
15.715000000000003,-0.3840751445086711,0.4495414258188826,-0.00534296724470169
15.735000000000003,-0.3875048169556845,0.4504919717405268,-0.0073211303789341466
15.755000000000003,-0.3909344894026979,0.451442517662171,-0.009299293513166596
15.775000000000004,-0.3943641618497117,0.4523930635838152,-0.011277456647399233
15.795000000000003,-0.39779383429672505,0.4533436095054594,-0.01325561978163169
15.815000000000003,-0.40122350674373847,0.45429415542710355,-0.01523378291586414
15.835000000000003,-0.4046531791907519,0.4552447013487477,-0.017211946050096596
15.855000000000004,-0.4080828516377656,0.45619524727039196,-0.019190109184329233
15.875000000000004,-0.411512524084779,0.45714579319203613,-0.021168272318561682
15.895000000000003,-0.41494219653179243,0.4580963391136803,-0.02314643545279414
15.915000000000003,-0.41837186897880585,0.4590468850353245,-0.025124598587026595
15.935000000000004,-0.42180154142581955,0.4599974309569687,-0.027102761721259225
15.955000000000004,-0.42523121387283297,0.4609479768786129,-0.029080924855491682
15.975000000000003,-0.4286608863198464,0.46189852280025706,-0.03105908798972414
15.995000000000003,-0.4320905587668598,0.46284906872190124,-0.0330372511239566
16.015000000000004,-0.4355202312138735,0.46379961464354547,-0.03501541425818923
16.035000000000004,-0.43894990366088693,0.46475016056518964,-0.03699357739242169
16.055000000000003,-0.44237957610790035,0.4657007064868338,-0.03897174052665414
16.075000000000003,-0.4458092485549138,0.466651252408478,-0.04094990366088659
16.095000000000002,-0.4492389210019272,0.46760179833012216,-0.042928066795119055
16.115000000000002,-0.4526685934489406,0.4685523442517663,-0.044906229929351504
16.135,-0.45609826589595404,0.46950289017341046,-0.04688439306358397
16.155000000000005,-0.459527938342968,0.4704534360950548,-0.04886255619781678
16.175000000000004,-0.46295761078998143,0.471403982016699,-0.05084071933204923
16.195000000000004,-0.46638728323699485,0.47235452793834315,-0.05281888246628168
16.215000000000003,-0.4698169556840083,0.4733050738599873,-0.05479704560051414
16.235000000000003,-0.4732466281310217,0.4742556197816315,-0.05677520873474659
16.255000000000003,-0.4766763005780351,0.4752061657032757,-0.058753371868979054
16.275000000000002,-0.48010597302504854,0.4761567116249198,-0.060731535003211504
16.295,-0.4835356454720619,0.47710725754656397,-0.06270969813744397
16.315000000000005,-0.48696531791907594,0.4780578034682083,-0.06468786127167676
16.335000000000004,-0.49039499036608936,0.4790083493898525,-0.06666602440590923
16.355000000000004,-0.4938246628131028,0.47995889531149666,-0.06864418754014168
16.375000000000004,-0.4972543352601162,0.48090944123314083,-0.07062235067437414
16.395000000000003,-0.5006840077071296,0.481859987154785,-0.07260051380860659
16.415000000000003,-0.504113680154143,0.4828105330764292,-0.07457867694283905
16.435000000000002,-0.5075433526011564,0.4837610789980733,-0.0765568400770715
16.455000000000002,-0.5109730250481699,0.4847116249197175,-0.07853500321130395
16.475000000000005,-0.5144026974951839,0.4856621708413618,-0.08051316634553676
16.495000000000005,-0.5178323699421973,0.486612716763006,-0.08249132947976923
16.515000000000004,-0.5212620423892107,0.48756326268465017,-0.08446949261400168
16.535000000000004,-0.5246917148362241,0.48851380860629434,-0.08644765574823414
16.555000000000003,-0.5281213872832375,0.4894643545279385,-0.08842581888246659
16.575000000000003,-0.5315510597302509,0.4904149004495827,-0.09040398201669904
16.595000000000002,-0.5349807321772644,0.4913654463712268,-0.0923821451509315
16.615000000000002,-0.5384104046242777,0.492315992292871,-0.09436030828516395
16.635000000000005,-0.5418400770712918,0.4932665382145153,-0.09633847141939676
16.655000000000005,-0.5452697495183052,0.4942170841361595,-0.09831663455362921
16.675000000000004,-0.5486994219653186,0.4951676300578037,-0.10029479768786168
16.695000000000004,-0.552129094412332,0.49611817597944785,-0.10227296082209414
16.715000000000003,-0.5555587668593454,0.49706872190109197,-0.10425112395632657
16.735000000000003,-0.5589884393063589,0.4980192678227362,-0.10622928709055904
16.755000000000003,-0.5624181117533722,0.4989698137443803,-0.1082074502247915
16.775000000000002,-0.5658477842003856,0.4999203596660245,-0.11018561335902397
16.795,-0.569277456647399,0.5008709055876687,-0.1121637764932564
16.815000000000005,-0.572707129094413,0.501821451509313,-0.11414193962748923
16.835000000000004,-0.5761368015414265,0.5027719974309571,-0.11612010276172166
16.855000000000004,-0.5795664739884399,0.5037225433526014,-0.11809826589595412
16.875000000000004,-0.5829961464354534,0.5046730892742455,-0.12007642903018659
16.895000000000003,-0.5864258188824667,0.5056236351958897,-0.12205459216441905
16.915000000000003,-0.5898554913294801,0.5065741811175338,-0.12403275529865149
16.935000000000002,-0.5932851637764935,0.5075247270391781,-0.12601091843288395
16.955000000000002,-1.3605000000003953,-3.4514999999990454,2.2480000000003573
16.975000000000005,-2.746333333334401,0.025999999999545234,-5.401000000001397
16.995000000000005,-3.8140000000001244,-0.5232500000000683,-6.076499999999877
17.015000000000004,-3.7519999999997102,-0.7970000000001882,-5.131999999999314
17.035000000000004,-2.415999999999684,-1.1776000000000628,-3.2681999999996543
17.055000000000003,-1.2365999999997854,-1.207199999999976,-1.7733999999997199
17.075000000000003,-0.3132222222221033,-0.6814444444443866,-0.5996666666665325
17.095000000000002,0.2104000000000546,-0.31609999999994687,0.14760000000010748
17.115000000000002,0.6226250000001061,-0.07800000000001865,0.5636250000000252
17.135000000000005,0.7015555555554911,-0.18477777777779883,0.36733333333324847
17.155000000000005,0.19871428571405297,-0.2684285714286135,0.12299999999990864
17.175000000000004,-0.43628571428586393,-0.340999999999996,-0.22071428571438373
17.195000000000004,-0.6952500000000509,-0.23716666666661063,-0.34858333333333846
17.215000000000003,-0.6161818181817609,0.05245454545457187,-0.28581818181816154
17.235000000000003,-0.18479999999994431,0.2467000000000344,-0.09199999999996304
17.255000000000003,0.06900000000001706,0.5354000000000154,0.1578000000000115
17.275000000000002,0.272000000000016,0.7426666666666936,0.17633333333332663
17.295000000000005,0.5566000000001075,0.9571000000000339,0.08039999999996292
17.315000000000005,1.212250000000263,0.5383749999998084,-0.245125000000136
17.335000000000004,2.3652857142861046,-0.5907142857146874,-0.7580000000001269
17.355000000000004,2.6433999999999216,-1.066999999999926,-0.5551999999999053
17.375000000000004,1.357399999999731,0.05060000000018289,-0.11129999999997617
17.395000000000003,0.4940909090908563,0.3758181818181965,-0.2233636363636517
17.415000000000003,0.061363636363607116,0.6024545454545622,-0.4980000000000291
17.435000000000002,-0.14014285714286387,0.11442857142847135,-0.5605714285713992
17.455000000000002,-0.4158888888889595,-0.4142222222222588,-0.2994444444444371
17.475000000000005,-0.767400000000012,-0.6564000000000666,-0.38360000000002786
17.495000000000005,-0.6364999999999178,-0.6717499999999456,-0.16137499999985735
17.515000000000004,-0.17759999999985873,-0.5033999999999771,0.4770000000001666
17.535000000000004,0.22400000000004353,-0.40512499999997087,1.0497500000000863
17.555000000000003,0.27254545454545076,-0.11799999999995156,1.5067272727273375
17.575000000000003,0.44140000000001534,0.0368000000000037,1.8252000000000141
17.595000000000002,0.5988750000000322,0.1338750000000167,1.8118749999999701
17.615000000000002,0.7443333333333444,0.16966666666666805,1.3233333333332615
17.635000000000005,0.7589999999999893,0.16766666666667063,0.5366666666665012
17.655000000000005,0.7261111111111105,0.24577777777779686,-0.31988888888914413
17.675000000000004,0.7045000000000058,0.3829000000000301,-0.8972000000001196
17.695000000000004,0.6869999999999972,0.44159999999999605,-1.2640000000000355
17.715000000000003,0.5723333333332867,0.37933333333331876,-1.2579999999999432
17.735000000000003,0.12679999999991418,0.48420000000003893,-0.7817999999999256
17.755000000000003,-0.5435000000000741,0.985250000000069,-0.30149999999995425
17.775000000000002,-1.3807500000001331,1.990500000000189,0.12175000000007136
17.795000000000005,-2.1016000000001496,3.2580000000003184,0.540000000000097
17.815000000000005,-2.770000000000221,4.540400000000385,0.4819999999999055
17.835000000000004,-4.380000000000469,6.753000000000577,0.20066666666664615
17.855000000000004,-6.062333333333695,8.101666666666878,0.450222222222397
17.875000000000004,-6.2354444444443535,8.002444444444244,2.182555555556087
17.895000000000003,-4.964111111110714,5.9594444444438555,2.7054444444442973
17.915000000000003,-4.484444444444469,3.1832222222220636,0.8067777777776369
17.935000000000002,-5.224777777777823,1.2548888888887617,-0.8506666666667468
17.955000000000002,-4.450444444444319,-1.7573333333335752,-0.27955555555543377
17.975000000000005,-0.5552727272717024,-5.96518181818265,2.357818181818676
17.995000000000005,5.81033333333496,-9.28866666666728,3.0416666666664045
18.015000000000004,9.84288888888964,-10.129222222222364,0.5492222222214638
18.035000000000004,11.127600000000069,-10.426600000000157,-0.7144000000002548
18.055000000000003,11.108333333333364,-12.527666666666972,-3.187666666667003
18.075000000000003,12.357555555555656,-16.46166666666691,-6.67588888888907
18.095000000000002,13.397111111111155,-18.549222222222312,-7.11377777777771
18.115000000000002,12.38366666666653,-19.051222222222236,-3.5198888888885627
18.135000000000005,8.820333333332117,-18.911777777777555,1.624777777779062
18.155000000000005,6.665249999999676,-18.196999999999875,3.3820000000002395
18.175000000000004,4.835813186813162,-17.033076923076877,4.46296703296703
18.195000000000004,4.6791098901098644,-16.72230769230764,4.444725274725272
18.215000000000003,4.522406593406567,-16.41153846153841,4.426483516483513
18.235000000000003,4.36570329670327,-16.100769230769178,4.408241758241755
18.255000000000003,4.208999999999268,-15.789999999998065,4.38999999999967
18.275000000000002,-9.92100000000119,10.878000000001926,1.1443333333340169
18.295000000000005,-6.599818181815439,12.446363636359958,-1.36445454545614
18.315000000000005,-1.7699999999995844,4.916090909090051,-4.318909090909403
18.335000000000004,-3.218888888889796,4.403222222222663,-4.03155555555514
18.355000000000004,-6.558727272727664,6.495636363636595,-0.805090909090346
18.375000000000004,-7.431833333333361,5.604083333332872,2.5404166666673387
18.395000000000003,-8.40460000000032,4.914200000000115,5.3400000000003685
18.415000000000003,-9.490000000000045,6.1272222222222865,5.947888888888864
18.435000000000002,-9.785200000000007,7.069400000000064,5.20299999999993
18.455000000000005,-9.618399999999871,7.201399999999921,3.6385999999995184
18.475000000000005,-8.3669999999996,6.942999999999997,1.1026666666658944
18.495000000000005,-6.381399999999557,7.454200000000169,-1.9200000000006043
18.515000000000004,-4.96899999999978,7.9750000000001,-3.4512000000002168
18.535000000000004,-4.556272727272708,8.487454545454627,-3.372454545454449
18.555000000000003,-4.775000000000107,9.113600000000135,-2.1717999999997146
18.575000000000003,-5.445545454545551,9.534636363636402,-0.9318181818179838
18.595000000000002,-6.007500000000057,9.750125000000029,0.41175000000016937
18.615000000000002,-6.078600000000003,9.176499999999912,1.2803000000000762
18.635000000000005,-6.4221111111112466,8.610555555555417,1.8567777777779388
18.655000000000005,-5.3377777777770925,6.251111111109838,1.4446666666663726
18.675000000000004,-2.155999999998977,-0.16270000000211038,0.17209999999963566
18.695000000000004,3.189000000000697,-9.258000000000532,-0.21899999999971384
18.715000000000003,6.4332000000003005,-10.03959999999976,1.78930000000031
18.735000000000003,10.125000000000448,-15.109200000000959,3.7807000000001922
18.755000000000003,9.15479999999959,-17.16809999999996,4.549800000000065
18.775000000000002,5.496888888888892,-15.832999999999808,4.991999999999997
18.795000000000005,4.031230769231027,-14.094384615384175,4.13753846153754
18.815000000000005,7.6388181818188325,-13.546454545454502,1.3239999999995253
18.835000000000004,10.168600000000419,-11.607199999999505,-1.4326000000005996
18.855000000000004,10.059999999999853,-9.22077777777749,-3.317888888889043
18.875000000000004,8.206199999999544,-7.554399999999681,-3.7074000000000376
18.895000000000003,6.129666666666195,-6.069999999999625,-3.724222222222273
18.915000000000003,4.391399999999895,-4.477799999999902,-6.486600000000262
18.935000000000002,2.5843999999998717,-2.9713999999998912,-7.631999999999947
18.955000000000005,1.478999999999811,-1.5873999999996882,-3.833999999998814
18.975000000000005,0.9113333333331656,-0.34777777777738816,0.8472222222235887
18.995000000000005,0.37999999999983836,0.5212000000002108,3.241600000000374
19.015000000000004,-0.2672000000003399,0.9208000000000751,3.086399999999446
19.035000000000004,-1.5405555555557462,1.2218888888889436,1.559666666666471
19.055000000000003,-2.7103333333334603,1.5225555555555708,0.5093333333332142
19.075000000000003,-3.166222222222262,1.964000000000083,-0.10677777777783988
19.095000000000002,-2.9164545454545108,2.708363636363694,-0.23554545454545409
19.115000000000006,-2.2982222222220137,3.3376666666668227,-0.22944444444445958
19.135000000000005,-1.8534444444443294,3.5450000000000474,-0.22866666666666272
19.155000000000005,-1.8066000000000333,3.748000000000052,-0.2070000000000025
19.175000000000004,-1.8636666666666408,3.7771111111110773,-0.32500000000004425
19.195000000000004,-1.7216249999999689,3.5798749999999737,-0.5935000000000493
19.215000000000003,-1.5349090909090566,3.3758181818181363,-0.7890000000000261
19.235000000000003,-1.1305454545454103,2.66472727272719,-0.9030000000000022
19.255000000000003,-0.4119999999999225,1.2499999999997706,-0.850999999999927
19.275000000000002,-0.023499999999958998,0.01169999999985405,-0.3162999999999147
19.295000000000005,0.2440000000000906,-0.777000000000245,0.2755000000002009
19.315000000000005,0.5363125000000261,-1.4540000000000421,1.0583125000001106
19.335000000000004,0.2344545454544201,-1.1309090909089443,1.917545454545562
19.355000000000004,-0.4640000000001119,-0.3294999999998708,2.1161250000000025
19.375000000000004,-0.923200000000087,0.18360000000009463,1.74659999999989
19.395000000000003,-1.062666666666665,0.46050000000004143,0.9469999999998366
19.415000000000003,-0.7047499999998904,0.5019999999999907,0.10099999999981657
19.435000000000002,-0.1689999999999467,0.22749999999996223,-0.8500000000000977
19.455000000000005,0.37500000000020817,-0.10185714285729802,-1.6375714285717162
19.475000000000005,0.9600000000000515,-0.35399999999998605,-2.249000000000011
19.495000000000005,1.3390000000000475,-0.2829999999999794,-2.211999999999929
19.515000000000004,1.473,-0.10633333333327714,-1.823999999999911
19.535000000000004,1.203769230769166,0.11946153846154553,-1.2446153846153136
19.555000000000003,0.5799999999999504,0.23100000000000992,-0.8479999999999672
19.575000000000003,0.3108181818181299,0.20618181818177353,-0.6633636363635974
19.595000000000002,0.16339999999999544,0.011199999999983515,-0.33179999999994686
19.615000000000006,0.30780000000006613,-0.06860000000002536,0.03620000000008554
19.635000000000005,0.5640000000000313,-0.07499999999999253,0.3840000000000249
19.655000000000005,0.6489999999999645,-0.07100000000000414,0.4910000000000071
19.675000000000004,0.3309999999999999,0.051000000000000094,0.498
19.695000000000004,0.33044571635136755,0.05154464393300406,0.4979156524882516
19.715000000000003,0.3298914327027352,0.05208928786600802,0.4978313049765032
19.735000000000003,0.3293371490541029,0.05263393179901199,0.4977469574647548
19.755000000000003,0.3287828654054705,0.053178575732015954,0.4976626099530064
19.775000000000006,0.32822858175683806,0.053723219665020014,0.49757826244125797
19.795000000000005,0.3276742981082057,0.05426786359802398,0.49749391492950956
19.815000000000005,0.32712001445957334,0.05481250753102795,0.49740956741776116
19.835000000000004,0.326565730810941,0.05535715146403191,0.49732521990601275
19.855000000000004,0.3260114471623086,0.055901795397035874,0.49724087239426434
19.875000000000004,0.32545716351367626,0.05644643933003984,0.49715652488251594
19.895000000000003,0.3249028798650439,0.05699108326304381,0.49707217737076753
19.915000000000003,0.3243485962164116,0.05753572719604777,0.4969878298590191
19.935000000000002,0.32379431256777924,0.05808037112905173,0.4969034823472708
19.955000000000005,0.32324002891914677,0.058625015062055794,0.4968191348355223
19.975000000000005,0.3226857452705144,0.05916965899505976,0.4967347873237739
19.995000000000005,0.32213146162188205,0.05971430292806373,0.4966504398120255
20.015000000000004,0.3215771779732497,0.06025894686106769,0.49656609230027715
20.035000000000004,0.32102289432461734,0.06080359079407165,0.49648174478852874
20.055000000000003,0.320468610675985,0.06134823472707562,0.49639739727678034
20.075000000000003,0.3199143270273527,0.06189287866007959,0.49631304976503193
20.095000000000002,0.3193600433787203,0.06243752259308355,0.4962287022532835
20.115000000000006,0.31880575973008785,0.06298216652608761,0.4961443547415351
20.135000000000005,0.3182514760814555,0.06352681045909157,0.4960600072297867
20.155000000000005,0.31769719243282313,0.06407145439209554,0.4959756597180383
20.175000000000004,0.31714290878419077,0.06461609832509951,0.4958913122062899
20.195000000000004,0.3165886251355584,0.06516074225810348,0.4958069646945415
20.215000000000003,0.31603434148692605,0.06570538619110744,0.4957226171827931
20.235000000000003,0.31548005783829375,0.0662500301241114,0.4956382696710447
20.255000000000003,0.3149257741896614,0.06679467405711537,0.4955539221592963
20.275000000000006,0.3143714905410289,0.06733931799011943,0.4954695746475479
20.295000000000005,0.31381720689239656,0.06788396192312339,0.49538522713579947
20.315000000000005,0.3132629232437642,0.06842860585612735,0.49530087962405106
20.335000000000004,0.31270863959513184,0.06897324978913133,0.49521653211230265
20.355000000000004,0.3121543559464995,0.0695178937221353,0.49513218460055425
20.375000000000004,0.3116000722978671,0.07006253765513926,0.49504783708880584
20.395000000000003,0.3110457886492348,0.07060718158814322,0.4949634895770575
20.415000000000003,0.31049150500060246,0.07115182552114718,0.4948791420653091
20.435000000000006,0.30993722135197,0.07169646945415124,0.4947947945535606
20.455000000000005,0.30938293770333763,0.0722411133871552,0.4947104470418123
20.475000000000005,0.3088286540547053,0.07278575732015917,0.49462609953006387
20.495000000000005,0.3082743704060729,0.07333040125316315,0.49454175201831546
20.515000000000004,0.30772008675744056,0.07387504518616711,0.49445740450656706
20.535000000000004,0.3071658031088082,0.07441968911917107,0.49437305699481865
20.555000000000003,0.30661151946017584,0.07496433305217504,0.49428870948307024
20.575000000000003,0.30605723581154354,0.075508976985179,0.49420436197132184
20.595000000000002,0.3055029521629112,0.07605362091818296,0.49412001445957343
20.615000000000006,0.3049486685142787,0.07659826485118702,0.494035666947825
20.635000000000005,0.30439438486564635,0.07714290878419099,0.4939513194360766
20.655000000000005,0.303840101217014,0.07768755271719495,0.4938669719243282
20.675000000000004,0.30328581756838163,0.07823219665019893,0.4937826244125798
20.695000000000004,0.3027315339197493,0.07877684058320289,0.4936982769008314
20.715000000000003,0.30217725027111697,0.07932148451620685,0.493613929389083
20.735000000000003,0.3016229666224846,0.07986612844921082,0.4935295818773346
20.755000000000003,0.30106868297385225,0.08041077238221478,0.4934452343655862
20.775000000000006,0.3005143993252198,0.08095541631521884,0.4933608868538378
20.795000000000005,0.2999601156765874,0.0815000602482228,0.49327653934208937
20.815000000000005,0.29940583202795507,0.08204470418122677,0.49319219183034096
20.835000000000004,0.2988515483793227,0.08258934811423074,0.4931078443185926
20.855000000000004,0.29829726473069035,0.0831339920472347,0.4930234968068442
20.875000000000004,0.297742981082058,0.08367863598023867,0.4929391492950958
20.895000000000003,0.2971886974334257,0.08422327991324263,0.4928548017833474
20.915000000000003,0.2966344137847933,0.0847679238462466,0.492770454271599
20.935000000000006,0.29608013013616086,0.08531256777925066,0.4926861067598506
20.955000000000005,0.2955258464875285,0.08585721171225462,0.4926017592481022
20.975000000000005,0.29497156283889614,0.0864018556452586,0.49251741173635377
20.995000000000005,0.2944172791902638,0.08694649957826256,0.49243306422460537
21.015000000000004,0.2938629955416314,0.08749114351126652,0.49234871671285696
21.035000000000004,0.29330871189299906,0.08803578744427049,0.49226436920110855
21.055000000000003,0.2927544282443667,0.08858043137727445,0.49218002168936015
21.075000000000003,0.2922001445957344,0.08912507531027841,0.49209567417761174
21.095000000000006,0.29164586094710193,0.08966971924328247,0.49201132666586334
21.115000000000006,0.2910915772984696,0.09021436317628644,0.49192697915411493
21.135000000000005,0.2905372936498372,0.0907590071092904,0.4918426316423665
21.155000000000005,0.28998301000120486,0.09130365104229438,0.4917582841306181
21.175000000000004,0.2894287263525725,0.09184829497529834,0.4916739366188697
21.195000000000004,0.28887444270394014,0.0923929389083023,0.4915895891071213
21.215000000000003,0.28832015905530783,0.09293758284130627,0.4915052415953729
21.235000000000003,0.2877658754066755,0.09348222677431023,0.49142089408362455
21.255000000000003,0.2872115917580431,0.09402687070731419,0.49133654657187614
21.275000000000006,0.28665730810941065,0.09457151464031825,0.4912521990601277
21.295000000000005,0.2861030244607783,0.09511615857332222,0.49116785154837933
21.315000000000005,0.28554874081214593,0.09566080250632619,0.4910835040366309
21.335000000000004,0.28499445716351357,0.09620544643933016,0.4909991565248825
21.355000000000004,0.2844401735148812,0.09675009037233412,0.4909148090131341
21.375000000000004,0.28388588986624885,0.09729473430533808,0.4908304615013857
21.395000000000003,0.28333160621761655,0.09783937823834205,0.4907461139896373
21.415000000000003,0.2827773225689842,0.09838402217134601,0.4906617664778889
21.435000000000006,0.2822230389203517,0.09892866610435007,0.4905774189661405
21.455000000000005,0.28166875527171936,0.09947331003735403,0.4904930714543921
21.475000000000005,0.281114471623087,0.10001795397035801,0.4904087239426437
21.495000000000005,0.28056018797445464,0.10056259790336197,0.49032437643089527
21.515000000000004,0.2800059043258223,0.10110724183636594,0.49024002891914686
21.535000000000004,0.27945162067719,0.1016518857693699,0.49015568140739846
21.555000000000003,0.27889733702855757,0.10219652970237386,0.49007133389565005
21.575000000000003,0.27834305337992526,0.10274117363537782,0.48998698638390165
21.595000000000006,0.2777887697312928,0.10328581756838189,0.48990263887215324
21.615000000000006,0.27723448608266044,0.10383046150138585,0.48981829136040483
21.635000000000005,0.2766802024340281,0.10437510543438981,0.48973394384865643
21.655000000000005,0.2761259187853957,0.10491974936739379,0.489649596336908
21.675000000000004,0.27557163513676336,0.10546439330039775,0.48956524882515967
21.695000000000004,0.275017351488131,0.10600903723340172,0.48948090131341127
21.715000000000003,0.2744630678394987,0.10655368116640568,0.48939655380166286
21.735000000000003,0.27390878419086634,0.10709832509940964,0.48931220628991445
21.755000000000006,0.27335450054223387,0.1076429690324137,0.48922785877816605
21.775000000000006,0.2728002168936015,0.10818761296541766,0.48914351126641764
21.795000000000005,0.27224593324496915,0.10873225689842163,0.48905916375466923
21.815000000000005,0.2716916495963368,0.1092769008314256,0.48897481624292083
21.835000000000004,0.27113736594770443,0.10982154476442957,0.4888904687311724
21.855000000000004,0.2705830822990721,0.11036618869743353,0.488806121219424
21.875000000000004,0.2700287986504397,0.1109108326304375,0.4887217737076756
21.895000000000003,0.2694745150018074,0.11145547656344146,0.4886374261959272
21.915000000000003,0.26892023135317505,0.11200012049644542,0.4885530786841788
21.935000000000006,0.2683659477045426,0.11254476442944948,0.4884687311724304
21.955000000000005,0.2678116640559102,0.11308940836245344,0.488384383660682
21.975000000000005,0.26725738040727787,0.11363405229545742,0.4883000361489336
21.995000000000005,0.2667030967586455,0.11417869622846138,0.4882156886371852
22.015000000000004,0.26614881311001315,0.11472334016146535,0.48813134112543677
22.035000000000004,0.26559452946138085,0.11526798409446931,0.48804699361368836
22.055000000000003,0.26504024581274843,0.11581262802747327,0.48796264610194
22.075000000000003,0.26448596216411613,0.11635727196047724,0.4878782985901916
22.095000000000006,0.26393167851548366,0.11690191589348128,0.48779395107844314
22.115000000000006,0.2633773948668513,0.11744655982648528,0.4877096035666948
22.135000000000005,0.26282311121821894,0.11799120375948924,0.4876252560549464
22.155000000000005,0.2622688275695866,0.1185358476924932,0.487540908543198
22.175000000000004,0.2617145439209543,0.11908049162549716,0.4874565610314496
22.195000000000004,0.26116026027232186,0.11962513555850113,0.48737221351970117
22.215000000000003,0.26060597662368956,0.12016977949150509,0.48728786600795276
22.235000000000003,0.2600516929750572,0.12071442342450905,0.48720351849620436
22.255000000000006,0.25949740932642473,0.1212590673575131,0.48711917098445595
22.275000000000006,0.2589431256777924,0.12180371129051709,0.48703482347270755
22.295000000000005,0.25838884202916,0.12234835522352105,0.48695047596095914
22.315000000000005,0.25783455838052766,0.12289299915652502,0.48686612844921073
22.335000000000004,0.2572802747318953,0.12343764308952898,0.4867817809374623
22.355000000000004,0.256725991083263,0.12398228702253294,0.4866974334257139
22.375000000000004,0.2561717074346306,0.12452693095553691,0.4866130859139655
22.395000000000003,0.2556174237859983,0.12507157488854087,0.4865287384022171
22.415000000000006,0.2550631401373658,0.12561621882154492,0.4864443908904687
22.435000000000006,0.25450885648873345,0.1261608627545489,0.4863600433787203
22.455000000000005,0.2539545728401011,0.12670550668755287,0.4862756958669719
22.475000000000005,0.25340028919146873,0.12725015062055683,0.4861913483552235
22.495000000000005,0.25284600554283637,0.1277947945535608,0.48610700084347513
22.515000000000004,0.252291721894204,0.12833943848656476,0.48602265333172673
22.535000000000004,0.2517374382455717,0.12888408241956872,0.4859383058199783
22.555000000000003,0.2511831545969393,0.1294287263525727,0.4858539583082299
22.575000000000003,0.250628870948307,0.12997337028557665,0.4857696107964815
22.595000000000006,0.2500745872996745,0.1305180142185807,0.4856852632847331
22.615000000000006,0.24952030365104216,0.1310626581515847,0.4856009157729847
22.635000000000005,0.2489660200024098,0.13160730208458865,0.4855165682612363
22.655000000000005,0.24841173635377745,0.13215194601759261,0.4854322207494879
22.675000000000004,0.24785745270514511,0.13269658995059658,0.4853478732377395
22.695000000000004,0.24730316905651276,0.13324123388360054,0.4852635257259911
22.715000000000003,0.2467488854078804,0.1337858778166045,0.48517917821424267
22.735000000000003,0.24619460175924807,0.13433052174960847,0.48509483070249426
22.755000000000006,0.2456403181106156,0.1348751656826125,0.48501048319074586
22.775000000000006,0.24508603446198324,0.1354198096156165,0.48492613567899745
22.795000000000005,0.24453175081335088,0.13596445354862047,0.48484178816724904
22.815000000000005,0.24397746716471852,0.13650909748162443,0.48475744065550064
22.835000000000004,0.2434231835160862,0.1370537414146284,0.48467309314375223
22.855000000000004,0.24286889986745383,0.13759838534763236,0.4845887456320038
22.875000000000004,0.24231461621882147,0.13814302928063632,0.4845043981202554
22.895000000000003,0.24176033257018914,0.13868767321364028,0.48442005060850707
22.915000000000006,0.24120604892155667,0.13923231714664433,0.4843357030967586
22.935000000000006,0.2406517652729243,0.13977696107964832,0.4842513555850102
22.955000000000005,0.24009748162429195,0.14032160501265228,0.48416700807326185
22.975000000000005,0.2395431979756596,0.14086624894565625,0.48408266056151344
22.995000000000005,0.23898891432702724,0.1414108928786602,0.48399831304976504
23.015000000000004,0.2384346306783949,0.14195553681166417,0.48391396553801663
23.035000000000004,0.23788034702976255,0.14250018074466814,0.4838296180262682
23.055000000000003,0.23732606338113021,0.1430448246776721,0.4837452705145198
23.075000000000006,0.23677177973249774,0.14358946861067615,0.4836609230027714
23.095000000000006,0.23621749608386539,0.1441341125436801,0.483576575491023
23.115000000000006,0.23566321243523303,0.1446787564766841,0.4834922279792746
23.135000000000005,0.23510892878660067,0.14522340040968806,0.4834078804675262
23.155000000000005,0.2345546451379683,0.14576804434269203,0.4833235329557778
23.175000000000004,0.23400036148933598,0.146312688275696,0.4832391854440294
23.195000000000004,0.23344607784070362,0.14685733220869995,0.483154837932281
23.215000000000003,0.2328917941920713,0.14740197614170392,0.4830704904205326
23.235000000000003,0.23233751054343893,0.14794662007470788,0.48298614290878417
23.255000000000006,0.23178322689480646,0.14849126400771193,0.48290179539703576
23.275000000000006,0.2312289432461741,0.14903590794071592,0.48281744788528735
23.295000000000005,0.23067465959754174,0.14958055187371988,0.48273310037353895
23.315000000000005,0.23012037594890938,0.15012519580672384,0.48264875286179054
23.335000000000004,0.22956609230027705,0.1506698397397278,0.4825644053500422
23.355000000000004,0.2290118086516447,0.15121448367273177,0.4824800578382938
23.375000000000004,0.22845752500301234,0.15175912760573573,0.4823957103265454
23.395000000000003,0.22790324135438,0.1523037715387397,0.482311362814797
23.415000000000006,0.22734895770574753,0.15284841547174374,0.48222701530304857
23.435000000000006,0.22679467405711518,0.15339305940474773,0.48214266779130016
23.455000000000005,0.22624039040848282,0.1539377033377517,0.48205832027955176
23.475000000000005,0.22568610675985046,0.15448234727075566,0.48197397276780335
23.495000000000005,0.22513182311121813,0.15502699120375962,0.48188962525605494
23.515000000000004,0.22457753946258577,0.1555716351367636,0.48180527774430654
23.535000000000004,0.2240232558139534,0.15611627906976755,0.48172093023255813
23.555000000000003,0.22346897216532108,0.1566609230027715,0.4816365827208097
23.575000000000006,0.2229146885166886,0.15720556693577556,0.4815522352090613
23.595000000000006,0.22236040486805625,0.15775021086877952,0.4814678876973129
23.615000000000006,0.2218061212194239,0.1582948548017835,0.4813835401855645
23.635000000000005,0.22125183757079153,0.15883949873478748,0.4812991926738161
23.655000000000005,0.2206975539221592,0.15938414266779144,0.4812148451620677
23.675000000000004,0.22014327027352684,0.1599287866007954,0.4811304976503193
23.695000000000004,0.21958898662489448,0.16047343053379937,0.4810461501385709
23.715000000000003,0.21903470297626215,0.16101807446680333,0.48096180262682253
23.735000000000003,0.2184804193276298,0.1615627183998073,0.4808774551150741
23.755000000000006,0.21792613567899732,0.16210736233281134,0.48079310760332566
23.775000000000006,0.21737185203036496,0.16265200626581533,0.48070876009157726
23.795000000000005,0.2168175683817326,0.1631966501988193,0.4806244125798289
23.815000000000005,0.21626328473310025,0.16374129413182326,0.4805400650680805
23.835000000000004,0.21570900108446792,0.16428593806482722,0.4804557175563321
23.855000000000004,0.21515471743583556,0.16483058199783118,0.4803713700445837
23.875000000000004,0.21460043378720323,0.16537522593083515,0.4802870225328353
23.895000000000003,0.21404615013857087,0.1659198698638391,0.4802026750210869
23.915000000000006,0.2134918664899384,0.16646451379684316,0.48011832750933847
23.935000000000006,0.21293758284130604,0.16700915772984715,0.48003397999759007
23.955000000000005,0.21238329919267368,0.1675538016628511,0.47994963248584166
23.975000000000005,0.21182901554404132,0.16809844559585507,0.47986528497409325
23.995000000000005,0.211274731895409,0.16864308952885904,0.47978093746234485
24.015000000000004,0.21072044824677663,0.169187733461863,0.47969658995059644
24.035000000000004,0.21016616459814427,0.16973237739486696,0.47961224243884804
24.055000000000003,0.20961188094951194,0.17027702132787093,0.47952789492709963
24.075000000000006,0.20905759730087947,0.17082166526087497,0.4794435474153512
24.095000000000006,0.2085033136522471,0.17136630919387894,0.4793591999036028
24.115000000000006,0.20794903000361475,0.17191095312688293,0.4792748523918544
24.135000000000005,0.2073947463549824,0.1724555970598869,0.479190504880106
24.155000000000005,0.20684046270635006,0.17300024099289085,0.4791061573683576
24.175000000000004,0.2062861790577177,0.17354488492589482,0.47902180985660925
24.195000000000004,0.20573189540908535,0.17408952885889878,0.47893746234486084
24.215000000000003,0.205177611760453,0.17463417279190274,0.47885311483311244
24.235000000000007,0.20462332811182055,0.1751788167249068,0.478768767321364
24.255000000000006,0.2040690444631882,0.17572346065791075,0.4786844198096156
24.275000000000006,0.20351476081455583,0.17626810459091471,0.4786000722978672
24.295000000000005,0.2029604771659235,0.17681274852391868,0.4785157247861188
24.315000000000005,0.20240619351729114,0.17735739245692264,0.4784313772743704
24.335000000000004,0.20185190986865878,0.1779020363899266,0.478347029762622
24.355000000000004,0.20129762622002642,0.1784466803229306,0.4782626822508736
24.375000000000004,0.20074334257139406,0.17899132425593456,0.4781783347391252
24.395000000000003,0.20018905892276173,0.17953596818893852,0.4780939872273768
24.415000000000006,0.19963477527412926,0.18008061212194257,0.4780096397156284
24.435000000000006,0.1990804916254969,0.18062525605494653,0.47792529220387997
24.455000000000005,0.19852620797686457,0.1811698999879505,0.47784094469213156
24.475000000000005,0.1979719243282322,0.18171454392095446,0.47775659718038316
24.495000000000005,0.19741764067959985,0.18225918785395842,0.47767224966863475
24.515000000000004,0.1968633570309675,0.1828038317869624,0.47758790215688635
24.535000000000004,0.19630907338233514,0.18334847571996638,0.47750355464513794
24.555000000000003,0.19575478973370278,0.18389311965297034,0.4774192071333896
24.575000000000006,0.19520050608507034,0.18443776358597438,0.4773348596216411
24.595000000000006,0.19464622243643798,0.18498240751897835,0.4772505121098927
24.615000000000006,0.19409193878780565,0.1855270514519823,0.4771661645981443
24.635000000000005,0.1935376551391733,0.18607169538498627,0.47708181708639597
24.655000000000005,0.19298337149054093,0.18661633931799024,0.47699746957464756
24.675000000000004,0.19242908784190857,0.1871609832509942,0.47691312206289915
24.695000000000004,0.1918748041932762,0.1877056271839982,0.47682877455115075
24.715000000000003,0.19132052054464385,0.18825027111700215,0.47674442703940234
24.735000000000007,0.1907662368960114,0.1887949150500062,0.47666007952765393
24.755000000000006,0.19021195324737905,0.18933955898301016,0.47657573201590553
24.775000000000006,0.1896576695987467,0.18988420291601413,0.4764913845041571
24.795000000000005,0.18910338595011436,0.1904288468490181,0.4764070369924087
24.815000000000005,0.188549102301482,0.19097349078202205,0.4763226894806603
24.835000000000004,0.18799481865284964,0.19151813471502602,0.4762383419689119
24.855000000000004,0.18744053500421728,0.19206277864803,0.4761539944571635
24.875000000000004,0.18688625135558493,0.19260742258103397,0.4760696469454151
24.895000000000007,0.18633196770695248,0.19315206651403802,0.4759852994336667
24.915000000000006,0.18577768405832012,0.19369671044704198,0.4759009519219183
24.935000000000006,0.18522340040968777,0.19424135438004594,0.4758166044101699
24.955000000000005,0.18466911676105544,0.1947859983130499,0.47573225689842147
24.975000000000005,0.18411483311242308,0.19533064224605387,0.47564790938667306
24.995000000000005,0.18356054946379072,0.19587528617905783,0.47556356187492466
25.015000000000004,0.18300626581515836,0.19641993011206182,0.4754792143631763
25.035000000000004,0.182451982166526,0.1969645740450658,0.4753948668514279
25.055000000000003,0.18189769851789367,0.19750921797806975,0.4753105193396795
25.075000000000006,0.1813434148692612,0.1980538619110738,0.4752261718279311
25.095000000000006,0.18078913122062884,0.19859850584407776,0.4751418243161827
25.115000000000006,0.1802348475719965,0.19914314977708172,0.4750574768044343
25.135000000000005,0.17968056392336415,0.1996877937100857,0.47497312929268587
25.155000000000005,0.1791262802747318,0.20023243764308965,0.47488878178093746
25.175000000000004,0.17857199662609943,0.2007770815760936,0.47480443426918906
25.195000000000004,0.17801771297746707,0.2013217255090976,0.47472008675744065
25.215000000000003,0.17746342932883474,0.20186636944210157,0.47463573924569225
25.235000000000007,0.17690914568020227,0.20241101337510561,0.47455139173394384
25.255000000000006,0.17635486203156991,0.20295565730810958,0.47446704422219543
25.275000000000006,0.17580057838293758,0.20350030124111354,0.474382696710447
25.295000000000005,0.17524629473430522,0.2040449451741175,0.4742983491986986
25.315000000000005,0.17469201108567287,0.20458958910712147,0.4742140016869502
25.335000000000004,0.1741377274370405,0.20513423304012543,0.4741296541752018
25.355000000000004,0.17358344378840815,0.20567887697312942,0.4740453066634534
25.375000000000004,0.1730291601397758,0.20622352090613338,0.473960959151705
25.395000000000007,0.17247487649114335,0.20676816483913743,0.4738766116399566
25.415000000000006,0.171920592842511,0.2073128087721414,0.4737922641282082
25.435000000000006,0.17136630919387863,0.20785745270514536,0.47370791661645983
25.455000000000005,0.1708120255452463,0.20840209663814932,0.47362356910471143
25.475000000000005,0.17025774189661394,0.20894674057115328,0.473539221592963
25.495000000000005,0.16970345824798158,0.20949138450415725,0.4734548740812146
25.515000000000004,0.16914917459934922,0.21003602843716124,0.4733705265694662
25.535000000000004,0.16859489095071686,0.2105806723701652,0.4732861790577178
25.555000000000007,0.16804060730208442,0.21112531630316925,0.4732018315459694
25.575000000000006,0.16748632365345206,0.2116699602361732,0.473117484034221
25.595000000000006,0.1669320400048197,0.21221460416917717,0.4730331365224726
25.615000000000006,0.16637775635618737,0.21275924810218114,0.4729487890107242
25.635000000000005,0.16582347270755501,0.2133038920351851,0.4728644414989758
25.655000000000005,0.16526918905892266,0.21384853596818906,0.47278009398722737
25.675000000000004,0.1647149054102903,0.21439317990119303,0.47269574647547896
25.695000000000004,0.16416062176165794,0.21493782383419702,0.47261139896373056
25.715000000000003,0.1636063381130256,0.21548246776720098,0.47252705145198215
25.735000000000007,0.16305205446439314,0.21602711170020503,0.47244270394023374
25.755000000000006,0.16249777081576078,0.216571755633209,0.47235835642848534
25.775000000000006,0.16194348716712845,0.21711639956621295,0.47227400891673693
25.795000000000005,0.1613892035184961,0.21766104349921692,0.4721896614049885
25.815000000000005,0.16083491986986373,0.21820568743222088,0.4721053138932401
25.835000000000004,0.16028063622123137,0.21875033136522484,0.47202096638149177
25.855000000000004,0.159726352572599,0.21929497529822883,0.47193661886974336
25.875000000000004,0.15917206892396668,0.2198396192312328,0.47185227135799496
25.895000000000007,0.1586177852753342,0.22038426316423684,0.47176792384624655
25.915000000000006,0.15806350162670185,0.2209289070972408,0.47168357633449814
25.935000000000006,0.15750921797806952,0.22147355103024477,0.47159922882274974
25.955000000000005,0.15695493432943716,0.22201819496324873,0.47151488131100133
25.975000000000005,0.1564006506808048,0.2225628388962527,0.4714305337992529
25.995000000000005,0.15584636703217244,0.22310748282925666,0.4713461862875045
26.015000000000004,0.15529208338354009,0.22365212676226065,0.4712618387757561
26.035000000000004,0.15473779973490773,0.2241967706952646,0.4711774912640077
26.055000000000007,0.15418351608627529,0.22474141462826866,0.4710931437522593
26.075000000000006,0.15362923243764293,0.22528605856127262,0.4710087962405109
26.095000000000006,0.1530749487890106,0.2258307024942766,0.4709244487287625
26.115000000000006,0.15252066514037824,0.22637534642728055,0.4708401012170141
26.135000000000005,0.15196638149174588,0.2269199903602845,0.4707557537052657
26.155000000000005,0.15141209784311352,0.22746463429328848,0.47067140619351727
26.175000000000004,0.15085781419448116,0.22800927822629244,0.47058705868176887
26.195000000000004,0.1503035305458488,0.22855392215929643,0.47050271117002046
26.215000000000007,0.14974924689721636,0.22909856609230048,0.47041836365827205
26.235000000000007,0.149194963248584,0.22964321002530444,0.47033401614652365
26.255000000000006,0.14864067959995164,0.2301878539583084,0.47024966863477524
26.275000000000006,0.1480863959513193,0.23073249789131237,0.4701653211230269
26.295000000000005,0.14753211230268695,0.23127714182431633,0.4700809736112785
26.315000000000005,0.1469778286540546,0.2318217857573203,0.4699966260995301
26.335000000000004,0.14642354500542223,0.23236642969032426,0.4699122785877817
26.355000000000004,0.14586926135678988,0.23291107362332825,0.46982793107603327
26.375000000000004,0.14531497770815754,0.2334557175563322,0.46974358356428486
26.395000000000007,0.14476069405952507,0.23400036148933626,0.46965923605253646
26.415000000000006,0.14420641041089272,0.23454500542234022,0.46957488854078805
26.435000000000006,0.14365212676226038,0.23508964935534418,0.46949054102903964
26.455000000000005,0.14309784311362803,0.23563429328834815,0.46940619351729124
26.475000000000005,0.14254355946499567,0.2361789372213521,0.46932184600554283
26.495000000000005,0.1419892758163633,0.23672358115435607,0.4692374984937944
26.515000000000004,0.14143499216773095,0.23726822508736006,0.469153150982046
26.535000000000004,0.14088070851909862,0.23781286902036403,0.4690688034702976
26.555000000000007,0.14032642487046615,0.23835751295336807,0.4689844559585492
26.575000000000006,0.1397721412218338,0.23890215688637204,0.4689001084468008
26.595000000000006,0.13921785757320146,0.239446800819376,0.4688157609350524
26.615000000000006,0.1386635739245691,0.23999144475237996,0.468731413423304
26.635000000000005,0.13810929027593674,0.24053608868538393,0.4686470659115556
26.655000000000005,0.13755500662730438,0.2410807326183879,0.46856271839980723
26.675000000000004,0.13700072297867202,0.24162537655139185,0.4684783708880588
26.695000000000004,0.1364464393300397,0.24217002048439584,0.4683940233763104
26.715000000000007,0.13589215568140722,0.2427146644173999,0.46830967586456196
26.735000000000007,0.13533787203277486,0.24325930835040385,0.4682253283528136
26.755000000000006,0.13478358838414253,0.24380395228340782,0.4681409808410652
26.775000000000006,0.13422930473551017,0.24434859621641178,0.4680566333293168
26.795000000000005,0.13367502108687782,0.24489324014941574,0.4679722858175684
26.815000000000005,0.13312073743824546,0.2454378840824197,0.46788793830582
26.835000000000004,0.1325664537896131,0.24598252801542367,0.4678035907940716
26.855000000000004,0.13201217014098074,0.24652717194842766,0.46771924328232317
26.875000000000007,0.1314578864923483,0.2470718158814317,0.46763489577057477
26.895000000000007,0.13090360284371594,0.24761645981443567,0.46755054825882636
26.915000000000006,0.13034931919508358,0.24816110374743963,0.46746620074707795
26.935000000000006,0.12979503554645125,0.2487057476804436,0.46738185323532955
26.955000000000005,0.1292407518978189,0.24925039161344756,0.46729750572358114
26.975000000000005,0.12868646824918653,0.24979503554645152,0.46721315821183274
26.995000000000005,0.12813218460055417,0.2503396794794555,0.46712881070008433
27.015000000000004,0.1275779009519218,0.2508843234124595,0.4670444631883359
27.035000000000004,0.12702361730328948,0.25142896734546344,0.4669601156765876
27.055000000000007,0.126469333654657,0.2519736112784675,0.4668757681648391
27.075000000000006,0.12591505000602465,0.2525182552114715,0.4667914206530907
27.095000000000006,0.12536076635739232,0.25306289914447544,0.4667070731413423
27.115000000000006,0.12480648270875996,0.2536075430774794,0.46662272562959395
27.135000000000005,0.1242521990601276,0.25415218701048337,0.46653837811784554
27.155000000000005,0.12369791541149525,0.25469683094348733,0.46645403060609714
27.175000000000004,0.12314363176286289,0.2552414748764913,0.46636968309434873
27.195000000000004,0.12258934811423056,0.25578611880949526,0.4662853355826003
27.215000000000007,0.12203506446559809,0.25633076274249933,0.4662009880708519
27.235000000000007,0.12148078081696573,0.2568754066755033,0.4661166405591035
27.255000000000006,0.1209264971683334,0.25742005060850726,0.4660322930473551
27.275000000000006,0.12037221351970104,0.2579646945415112,0.4659479455356067
27.295000000000005,0.11981792987106868,0.2585093384745152,0.4658635980238583
27.315000000000005,0.11926364622243632,0.25905398240751915,0.4657792505121099
27.335000000000004,0.11870936257380396,0.2595986263405231,0.4656949030003615
27.355000000000004,0.11815507892517163,0.26014327027352707,0.4656105554886131
27.375000000000007,0.11760079527653916,0.26068791420653115,0.46552620797686467
27.395000000000007,0.1170465116279068,0.2612325581395351,0.46544186046511626
27.415000000000006,0.11649222797927447,0.2617772020725391,0.46535751295336786
27.435000000000006,0.11593794433064211,0.26232184600554304,0.46527316544161945
27.455000000000005,0.11538366068200975,0.262866489938547,0.46518881792987105
27.475000000000005,0.1148293770333774,0.26341113387155096,0.46510447041812264
27.495000000000005,0.11427509338474504,0.2639557778045549,0.4650201229063743
27.515000000000004,0.11372080973611268,0.2645004217375589,0.4649357753946259
27.535000000000007,0.11316652608748023,0.26504506567056296,0.4648514278828774
27.555000000000007,0.11261224243884788,0.2655897096035669,0.464767080371129
27.575000000000006,0.11205795879021554,0.2661343535365709,0.46468273285938066
27.595000000000006,0.11150367514158319,0.26667899746957485,0.46459838534763226
27.615000000000006,0.11094939149295083,0.2672236414025788,0.46451403783588385
27.635000000000005,0.11039510784431847,0.2677682853355828,0.46442969032413545
27.655000000000005,0.10984082419568611,0.26831292926858674,0.46434534281238704
27.675000000000004,0.10928654054705375,0.2688575732015907,0.46426099530063863
27.695000000000004,0.10873225689842142,0.26940221713459467,0.46417664778889023
27.715000000000007,0.10817797324978895,0.26994686106759874,0.4640923002771418
27.735000000000007,0.10762368960115659,0.2704915050006027,0.4640079527653934
27.755000000000006,0.10706940595252426,0.27103614893360667,0.463923605253645
27.775000000000006,0.1065151223038919,0.27158079286661063,0.4638392577418966
27.795000000000005,0.10596083865525954,0.2721254367996146,0.4637549102301482
27.815000000000005,0.10540655500662718,0.27267008073261856,0.4636705627183998
27.835000000000004,0.10485227135799483,0.2732147246656225,0.4635862152066514
27.855000000000004,0.1042979877093625,0.2737593685986265,0.463501867694903
27.875000000000007,0.10374370406073002,0.27430401253163056,0.4634175201831546
27.895000000000007,0.10318942041209767,0.2748486564646345,0.46333317267140617
27.915000000000006,0.10263513676346533,0.2753933003976385,0.46324882515965776
27.935000000000006,0.10208085311483298,0.27593794433064245,0.46316447764790936
27.955000000000005,0.10152656946620062,0.2764825882636464,0.463080130136161
27.975000000000005,0.10551162790699825,0.2739147286821559,0.47285271317834154
27.995000000000005,0.19574418604653027,0.21220930232556867,0.6699069767442267
28.015000000000004,0.28597674418606234,0.1505038759689815,0.8669612403101119
28.035000000000007,0.37620930232561034,0.08879844961238331,1.0640155038760322
28.055000000000007,0.46644186046514247,0.027093023255796128,1.2610697674419173
28.075000000000006,0.5566744186046745,-0.034612403100791056,1.4581240310078025
28.095000000000006,0.6469069767442065,-0.09631782945737827,1.655178294573688
28.115000000000006,0.3734705882351859,-0.06552941176468699,0.9705882352938604
28.135000000000005,-0.2820454545455443,-0.06700000000000299,0.03868181818180827
28.155000000000005,-0.5825000000000801,-0.07700000000000266,0.005499999999991151
28.175000000000004,-0.8829545454546158,-0.08700000000000234,-0.02768181818182596
28.195000000000004,0.21233333333278542,0.18633333333403124,-3.378666666668318
28.215000000000007,-0.9119230769229765,0.6226153846153063,-5.0616153846153065
28.235000000000007,-0.5022424242424194,0.5414848484848077,-4.635060606060547
28.255000000000006,-0.4834545454545397,0.38390909090904257,-4.405363636363566
28.275000000000006,1.1906000000004031,1.414600000000025,-3.84999999999996
28.295000000000005,2.6365714285717092,0.9409999999998659,-3.0504285714282515
28.315000000000005,1.2357499999993014,2.354000000000328,-0.7514999999995823
28.335000000000004,-1.3680000000003625,2.285499999999767,0.23800000000005328
28.355000000000004,-1.1459999999999808,1.52749999999995,0.6380000000001713
28.375000000000007,-0.9382727272726914,1.9672727272729755,1.4950000000001615
28.395000000000007,0.4385000000008136,1.9009999999996134,2.2990000000001807
28.415000000000006,2.5995000000006945,-0.4120000000010413,2.4629999999999947
28.435000000000006,2.555999999998772,-3.0354999999997063,1.0489999999997133
28.455000000000005,1.4435000000002776,-1.96149999999986,-0.7340000000006567
28.475000000000005,1.1214999999995614,-0.8519999999995502,-2.713000000000482
28.495000000000005,0.4425555555556024,0.008111111111252178,-3.8864444444445962
28.515000000000004,0.6515000000000679,0.6420000000001478,-3.7094999999998692
28.535000000000007,1.3118181818184167,1.3621818181819578,-2.9378181818179323
28.555000000000007,1.4499999999996767,1.5144444444444123,-2.4618888888888075
28.575000000000006,0.6379999999998025,1.2199999999998608,-2.20949999999987
28.595000000000006,0.20318181818171893,0.9989999999999483,-1.8989090909089887
28.615000000000006,0.05550000000007407,1.0375000000000207,-0.9539999999996676
28.635000000000005,0.5750000000001461,1.1289999999999936,-0.06749999999990568
28.655000000000005,0.7348749999999585,1.0218749999999786,-0.01025000000004296
28.675000000000004,0.6880000000000291,0.8799999999999893,-0.19650000000001314
28.695000000000007,1.0213636363637737,1.2427272727275218,-0.23072727272738608
28.715000000000007,0.7085555555553723,1.391111111110869,-0.8807777777780882
28.735000000000007,0.19190909090882724,1.1659090909094088,-0.46372727272719877
28.755000000000006,-0.21300000000000427,1.4039999999996473,-2.2010000000006373
28.775000000000006,-0.13899999999981136,1.4715000000001859,-2.4859999999994296
28.795000000000005,0.37533333333340596,1.198444444444189,-0.22477777777736302
28.815000000000005,0.6049999999998401,0.5135000000003587,0.5149999999999403
28.835000000000004,0.42700000000000743,1.1765000000001806,0.0834999999998641
28.855000000000004,0.3796363636363993,0.9094545454542993,-0.2357272727273822
28.875000000000007,0.5108028169013872,0.549070422535247,-0.2780704225351717
28.895000000000007,0.45981690140843157,0.6344225352112997,-0.18342253521123209
28.915000000000006,0.408830985915476,0.7197746478873523,-0.08877464788729245
28.935000000000006,0.35784507042252045,0.805126760563405,0.005873239436647193
28.955000000000005,0.8245000000000072,0.6080000000000624,-0.5895000000002873
28.975000000000005,0.9079999999999745,1.0905000000000857,-0.8804999999999376
28.995000000000005,0.8129473684210313,1.2307368421052811,-0.8072631578947324
29.015000000000004,0.7182105263157679,1.3103859649122989,-0.7876140350877148
29.035000000000007,0.6234736842104877,1.3900350877193306,-0.7679649122806937
29.055000000000007,1.2385000000000046,0.6405000000000152,-1.242499999999921
29.075000000000006,1.204384615384527,0.6063846153846528,-0.7640000000001148
29.095000000000006,0.9497272727272427,0.6741818181817693,-0.54590909090895
29.115000000000006,0.8369999999999712,0.5890000000000373,0.07800000000016734
29.135000000000005,0.615777777777742,0.8045555555556166,0.5970000000000995
29.155000000000005,0.554499999999976,0.850500000000025,0.8540000000000694
29.175000000000004,0.22109090909084173,0.8328181818181567,1.0255454545454281
29.195000000000007,0.07611111111120716,0.7511111111110946,0.738777777777556
29.215000000000007,0.7615555555560106,0.9228888888889736,-0.29333333333394124
29.235000000000007,1.4755000000000662,1.1939999999999886,-1.1880000000000641
29.255000000000006,1.3859999999999073,1.2025000000000166,-1.0959999999999606
29.275000000000006,0.952999999999889,1.2244999999999888,-1.103500000000058
29.295000000000005,0.5587999999998818,1.1635999999999738,-1.2832000000000046
29.315000000000005,0.2376249999999875,0.9998750000000145,-0.9794999999998582
29.335000000000004,0.5670000000001257,1.1195999999999975,-0.3007999999998602
29.355000000000008,0.3434999999998188,1.1074999999999253,-0.6665000000001798
29.375000000000007,0.0027272727271987277,1.1999090909091954,-0.6558181818180744
29.395000000000007,-0.06463636363636834,1.37281818181821,-0.4660909090909725
29.415000000000006,-0.329333333333372,1.365666666666571,-0.6356666666666493
29.435000000000006,0.2540000000002771,1.1444999999999963,-0.6650000000000458
29.455000000000005,0.920000000000125,1.2123999999999664,-1.0764000000002423
29.475000000000005,1.1227500000000075,1.0177499999998982,-1.7220000000000426
29.495000000000005,1.3032857142858343,0.811428571428546,-1.1502857142851446
29.515000000000004,1.6836363636364096,0.7354545454544802,0.15372727272744935
29.535000000000007,1.6361111111109021,0.3885555555553888,0.4811111111109684
29.555000000000007,1.1729999999998113,0.15099999999993707,0.3260000000001442
29.575000000000006,0.7872727272725946,0.09900000000003877,0.5217272727272634
29.595000000000006,0.4242727272727108,0.33909090909097894,0.29063636363625206
29.615000000000006,0.5480666666667255,0.5272000000000522,0.03393333333326859
29.635000000000005,0.9086086956522165,0.8373913043478668,-0.05978260869564202
29.655000000000005,1.126636363636296,1.094272727272783,-0.9479090909092808
29.675000000000004,0.8986666666665762,1.1209999999999787,-1.3389999999999112
29.695000000000007,0.4729999999998963,1.0204999999999695,-0.4499999999996248
29.715000000000007,0.20157142857117977,0.9267142857143111,0.48228571428601874
