timestamp,gyro_x,gyro_y,gyro_z
0.005,-0.21,-0.2,-0.03
0.025,-0.23,-0.019999999999999983,-0.01
0.045,-0.23,0.066,0.027999999999999997
0.065,-0.24666666666666667,0.25,0.08333333333333333
0.085,-0.59,0.29,-0.18
0.10500000000000001,-0.3566666666666666,0.07666666666666658,-0.09
0.125,-0.33499999999999996,-0.255,-0.20500000000000002
0.14500000000000002,-0.32999999999999985,-0.6300000000000004,-0.3
0.165,-0.27066666666666667,-0.5233333333333333,-0.34933333333333333
0.185,-0.27,-0.15,-0.63
0.20500000000000002,-0.3400000000000003,-0.12500000000000042,-0.8900000000000006
0.225,-0.39,-0.33090909090909093,-1.100909090909091
0.245,-0.4666666666666667,-0.36,-1.5266666666666666
0.265,-0.8099999999999999,0.53,-1.694
0.28500000000000003,-1.2020000000000004,1.0380000000000003,-1.8500000000000003
0.305,-1.6766666666666665,1.0933333333333335,-1.8
0.325,-1.24,0.88,-1.5666666666666667
0.34500000000000003,-0.8806666666666662,0.7926666666666665,-1.5406666666666666
0.365,0.4823076923076923,0.02384615384615385,-1.6092307692307692
0.385,1.02,0.02,-1.6
0.405,1.28,1.01,-1.72
0.425,0.5966666666666667,-0.85,-1.5466666666666666
0.445,0.08,-0.33,-1.24
0.465,-0.05,0.865,-0.975
0.485,-0.058333333333333334,0.5491666666666667,-0.9191666666666667
0.505,0.40076923076923077,0.31384615384615383,-0.9215384615384615
0.525,0.795,-0.16,-1.12
0.545,0.9,-0.48,-1.28
0.5650000000000001,1.2700000000000018,0.33000000000000335,-1.23
0.585,2.143333333333333,0.9233333333333333,-1.1433333333333333
0.605,1.3900000000000001,-1.4033333333333333,-1.0366666666666666
0.625,0.6599999999999999,0.09000000000000001,-1.0350000000000001
0.645,0.11,0.73,-1.1
0.665,-0.7647368421052632,1.0926315789473686,-1.072105263157895
0.685,-2.2866666666666666,2.063333333333333,-1.0233333333333334
0.7050000000000001,-3.210000000000002,1.9199999999999982,-0.9699999999999992
0.725,-3.22,0.99,-0.88
0.745,-2.8775,0.3075,-1.01
0.765,-1.31,-2.1,-1.22
0.785,-1.04,-2.77,-1.02
0.805,-1.4033333333333333,-2.47,-0.8866666666666667
0.8250000000000001,-2.1933333333333374,-2.113333333333332,-0.6933333333333329
0.845,-2.77,-2.08,-0.645
0.865,-3.9905263157894733,-1.5605263157894738,-0.4863157894736842
0.885,-5.41,-1.1766666666666665,-0.38
0.905,-5.33,-1.56,0.31
0.925,-4.69,-2.57,1.39
0.9450000000000001,-3.879999999999995,-3.8800000000000088,2.5800000000000067
0.965,-3.32,-4.9,3.24
0.985,-3.33,-4.97,3.44
1.005,-4.104999999999996,-3.625000000000007,3.739999999999999
1.025,-5.17,-1.57,4.02
1.045,-5.38,-1.15,4.22
1.065,-4.660000000000004,-2.316666666666661,4.556666666666666
1.085,-3.25,-4.32,4.46
1.105,-2.32,-5.78,3.7
1.125,-0.9,-7.27,2.94
1.145,1.59,-7.53,1.59
1.1649999999999998,3.35999999999999,-6.310000000000015,-0.09999999999998593
1.1849999999999998,3.36000000000001,-4.41000000000003,-1.259999999999989
1.2049999999999998,2.070000000000022,-2.110000000000033,-1.6799999999999977
1.2249999999999999,0.4000000000000222,0.22999999999996895,-1.650000000000001
1.2449999999999999,-0.9699999999999855,2.2799999999999745,-1.5100000000000033
1.265,-1.6249999999999982,3.6799999999999966,-1.1450000000000016
1.285,-1.85,4.18,-0.5
1.305,-1.92,4.16,0.19
1.325,-2.01,3.92,0.66
1.345,-2.07,3.64,0.79
1.365,-2.0266666666666673,3.1833333333333353,0.6900000000000007
1.385,-1.82,2.5,0.44
1.405,-1.4,1.88,0.02
1.4249999999999998,-0.7900000000000059,1.280000000000006,-0.30999999999999706
1.4449999999999998,-0.21000000000000446,0.625000000000005,-0.47999999999999887
1.4649999999999999,0.3649999999999983,-0.10749999999999749,-0.6149999999999994
1.4849999999999999,0.7933333333333313,-0.739999999999997,-0.7366666666666657
1.505,1.0,-1.09,-0.77
1.525,1.0,-1.12,-0.76
1.545,0.7933333333333343,-0.8166666666666679,-0.71
1.565,0.44000000000000045,-0.3740000000000005,-0.6240000000000001
1.585,-0.02666666666666543,0.12999999999999853,-0.5166666666666669
1.605,-0.32666666666666616,0.5099999999999992,-0.5133333333333331
1.625,-0.37,0.66,-0.54
1.645,-0.24,0.57,-0.52
1.665,-0.027499999999999167,0.36499999999999944,-0.51
1.6849999999999998,0.15666666666666568,0.14000000000000148,-0.4766666666666671
1.7049999999999998,0.24,-0.08999999999999853,-0.4066666666666672
1.7249999999999999,0.24,-0.2599999999999985,-0.32000000000000073
1.7449999999999999,0.18000000000000074,-0.3999999999999985,-0.27
1.765,0.12,-0.45,-0.24
1.785,0.04666666666666692,-0.44,-0.21
1.805,-0.01,-0.39,-0.18
1.825,-0.06,-0.29,-0.14
1.845,-0.1,-0.18,-0.08
1.865,-0.09,-0.11,-0.04
1.885,-0.05,-0.12,-0.00666666666666642
1.905,0.0,-0.21666666666666715,0.02
1.9249999999999998,0.06333333333333284,-0.33333333333333287,0.01666666666666716
1.9449999999999998,0.10999999999999778,-0.38,-0.01999999999999778
1.9649999999999999,0.14599999999999966,-0.32400000000000034,-0.07599999999999965
1.9849999999999999,0.24333333333333285,-0.12000000000000148,-0.12333333333333432
2.005,0.33333333333333287,-0.006666666666667161,0.049999999999998525
2.025,0.44333333333333286,-0.02,0.3866666666666642
2.045,0.5,-0.03,0.67
2.065,0.5466666666666665,-0.01,0.76
2.085,0.6080000000000002,0.0,0.7119999999999997
2.105,0.65,0.03333333333333284,0.5533333333333343
2.125,0.5833333333333333,0.07333333333333333,0.5233333333333333
2.145,0.33625000000000044,0.12,0.6624999999999998
2.165,0.05,0.13,0.81
2.185,-0.13666666666666666,0.10333333333333333,0.85
2.205,-0.3,-0.405,0.825
2.225,-0.015,-1.03,0.66
2.245,0.5800000000000001,-1.2149999999999999,0.25
2.265,0.9150000000000006,-1.029999999999999,-0.04750000000000028
2.285,0.8799999999999978,-0.6099999999999955,0.035000000000003334
2.305,0.6466666666666627,-0.48666666666666863,0.20666666666666567
2.3249999999999997,0.17000000000000887,-0.7399999999999956,-0.08999999999999111
2.3449999999999998,-0.7366666666666597,-0.8066666666666686,-0.9499999999999941
2.3649999999999998,-1.859999999999994,-0.15333333333333876,-1.6799999999999984
2.385,-2.3799999999999994,0.7399999999999971,-1.6000000000000014
2.405,-2.135000000000008,1.4899999999999933,-0.7900000000000111
2.425,-1.2850000000000144,1.77,-0.13500000000000556
2.445,-0.43125000000000097,1.291250000000002,0.051249999999999865
2.465,-0.18,-0.1399999999999943,0.07
2.485,-0.28,-1.369999999999997,0.16999999999999704
2.505,-0.04000000000000001,-1.08,0.5549999999999999
2.525,0.43999999999999995,-1.2650000000000001,0.725
2.545,0.8366666666666641,-0.860000000000006,-0.5833333333333225
2.565,1.01,0.12000000000000001,-2.085
2.585,0.64,0.84,-2.53
2.605,-0.01666666666666667,1.3733333333333333,-2.01
2.625,-0.26,1.0150000000000001,-1.6
2.645,0.1577777777777791,-0.01888888888889103,-0.9822222222222209
2.665,0.6799999999999999,-0.63,-0.33999999999999997
2.685,0.76,-0.7333333333333328,0.34000000000000297
2.705,0.805,-0.56,0.73
2.725,0.74,-0.325,0.925
2.745,0.4774999999999986,-0.07499999999999944,0.8849999999999995
2.765,0.09999999999999779,0.04500000000000037,0.7349999999999989
2.785,-0.31666666666666865,0.20000000000000148,0.4299999999999985
2.805,-0.5560000000000004,0.4040000000000005,0.2639999999999997
2.8249999999999997,-0.7049999999999988,0.5999999999999978,0.1550000000000011
2.8449999999999998,-0.6233333333333343,0.7833333333333329,0.1
2.8649999999999998,-0.5100000000000022,0.7700000000000022,0.1449999999999989
2.885,-0.33666666666666867,0.6033333333333343,0.2566666666666657
2.905,-0.2200000000000011,0.5849999999999994,0.30499999999999944
2.925,0.03666666666666272,0.5933333333333373,0.45666666666666267
2.945,0.40428571428571375,0.05285714285714376,0.7242857142857138
2.965,0.75,-0.41666666666666613,1.0833333333333333
2.985,0.5050000000000056,-1.029999999999989,0.6300000000000111
3.005,0.45666666666666667,-1.64,0.17
3.025,0.5933333333333333,-1.97,-0.13666666666666666
3.045,0.5,-1.6133333333333333,-0.23
3.065,0.6733333333333333,-0.6633333333333333,0.13
3.085,1.0350000000000001,0.13,0.54
3.105,1.0,0.14,0.64
3.125,0.63,-0.31,0.38666666666666666
3.145,0.1766666666666642,-0.6333333333333343,-0.006666666666668639
3.165,-0.275,-0.535,-0.3
3.185,-0.6400000000000015,-0.16999999999999704,-0.39666666666666717
3.205,-0.8366666666666671,0.35666666666667013,-0.41
3.225,-0.9,1.0133333333333372,-0.47
3.245,-0.8099999999999989,1.5300000000000034,-0.49499999999999944
3.265,-0.6366666666666665,1.778888888888889,-0.401111111111111
3.285,-0.4099999999999978,1.6299999999999955,-0.24499999999999889
3.305,-0.14333333333333137,1.1066666666666627,-0.19
3.325,0.12000000000000148,0.5333333333333299,-0.24666666666666714
3.3449999999999998,0.2959999999999986,0.07000000000000356,-0.31
3.3649999999999998,0.4416666666666661,-0.26333333333333225,-0.32416666666666694
3.385,0.53,-0.4649999999999994,-0.28
3.405,0.45666666666666866,-0.37666666666666865,-0.3266666666666657
3.425,0.32,-0.12,-0.29
3.445,0.24333333333333432,0.023333333333331357,-0.23333333333333434
3.465,0.21,0.15,-0.19
3.485,0.15,0.14,-0.32
3.505,0.03333333333333333,0.17666666666666667,-0.44666666666666666
3.525,-0.04,0.24,-0.4
3.545,-0.06,0.25,-0.29500000000000054
3.565,-0.09714285714285688,0.16285714285714314,-0.28714285714285687
3.585,-0.24,-0.03,-0.38
3.605,-0.46,-0.12,-0.44
3.625,-0.68,-0.18,-0.37
3.645,-0.74,-0.24,-0.18
3.665,-0.5999999999999985,-0.28,0.08000000000000147
3.685,-0.28500000000000003,-0.28,0.29500000000000004
3.705,0.16,-0.23,0.51
3.725,0.47,-0.21,0.63
3.745,0.5933333333333335,-0.19666666666666652,0.63
3.765,0.5566666666666656,-0.10333333333333285,0.5566666666666656
3.785,0.23,-0.04,0.4
3.805,-0.16,0.04,0.31
3.825,-0.41,0.13,0.32
3.8449999999999998,-0.5599999999999971,0.21,0.4299999999999985
3.8649999999999998,-0.56,0.25,0.5899999999999955
3.885,-0.42,0.31,0.73
3.905,-0.25,0.44,0.79
3.925,-0.07666666666666865,0.43666666666666865,0.6866666666666686
3.945,0.06,0.27,0.48
3.965,0.03,0.28,0.39
3.985,-0.01,0.29,0.43
4.005,-0.14499999999999888,0.3949999999999989,0.2875000000000017
4.025,-0.28,0.87,0.16
4.045,-0.24,1.12,0.93
4.065,-0.24,1.3,1.48
4.085,0.12,1.91,1.02
4.1049999999999995,0.41999999999999704,1.4900000000000384,0.6500000000000089
4.125,0.32,-0.03,0.4
4.145,0.21,-1.46,-0.36
4.165,-0.08999999999999704,-1.4100000000000088,-1.1566666666666598
4.185,-0.17666666666667455,-0.00666666666670418,-1.3633333333333373
4.205,0.34,1.23,-1.16
4.225,0.5533333333333373,1.9266666666666628,-0.9983333333333343
4.245,0.2259999999999986,2.041999999999997,-1.0640000000000014
4.265,0.3,1.56,-1.15
4.285,0.72,2.13,-0.84
4.305,1.147500000000001,2.3700000000000268,-0.09250000000000333
4.325,0.13,-0.39,-0.64
4.345,-0.22249999999999862,-1.5274999999999925,-1.397499999999998
4.365,-0.87,-2.94,-1.49
4.385,-1.09,-2.28,-0.9
4.405,-0.7949999999999967,-1.2324999999999917,-0.5474999999999972
4.425,-0.19333333333334124,0.01666666666665286,-0.23000000000000295
4.445,0.37200000000000427,1.0540000000000085,-0.0679999999999993
4.465,0.6866666666666648,1.8033333333333295,0.026666666666664694
4.485,0.6699999999999956,1.8099999999999912,0.18500000000000666
4.505,0.4033333333333284,1.1299999999999852,0.46000000000000296
4.525,-0.0366666666666716,-0.12666666666668047,0.5466666666666657
4.545,-0.31666666666666665,-1.0,0.43333333333333335
4.565,-0.26,-1.32,0.27
4.585,0.026000000000001067,-1.0799999999999983,0.26200000000000034
4.605,0.21,-0.71,0.34
4.625,0.17666666666666567,-0.47333333333333133,0.35
4.645,-0.0159999999999968,-0.4339999999999979,0.28600000000000214
4.665,-0.18400000000000052,-0.5280000000000002,0.19199999999999984
4.685,-0.23428571428571465,-0.41857142857142926,0.1414285714285707
4.705,-0.005000000000000001,-0.215,0.355
4.725,0.21499999999999778,-0.7949999999999666,0.5499999999999956
4.745,0.20499999999999888,-1.9450000000000056,0.6325000000000005
4.765,0.28999999999998227,-2.255000000000002,0.8050000000000023
4.785,0.9050000000000022,-1.8049999999999713,0.20999999999997782
4.805,0.2750000000000289,-0.44500000000003775,-0.31499999999999334
4.825,-0.3733333333333343,0.7833333333333432,-0.11333333333332545
4.845,-0.19000000000000444,0.9475000000000056,0.29749999999999666
4.865,0.15,0.18,0.37
4.885,0.23666666666666766,-1.0633333333333206,0.18666666666667062
4.905,0.07,-1.69,-0.15
4.925,-0.10199999999999894,-1.4740000000000084,-0.4939999999999979
4.945,-0.12624999999999986,-0.657499999999998,-0.5362499999999999
4.965,-0.03,0.44,-0.45
4.985,-0.035000000000002224,1.010000000000009,-0.4950000000000022
5.005,-0.06,1.0933333333333315,-0.6166666666666686
5.025,0.00666666666666864,0.7866666666666627,-0.7133333333333343
5.045,0.12250000000000055,0.38749999999999724,-0.6974999999999993
5.065,0.21375000000000013,0.0887499999999996,-0.6062499999999998
5.085,0.27,-0.07333333333333432,-0.4866666666666657
5.105,0.22499999999999779,-0.05499999999999778,-0.5150000000000022
5.125,0.05,-0.005,-0.625
5.145,-0.1842857142857121,0.0614285714285707,-0.7414285714285707
5.165,-0.3814285714285718,0.09428571428571411,-0.8557142857142859
5.185,-0.5133333333333314,-0.11666666666666273,-0.92
5.205,-0.6,-0.28500000000000003,-0.96
5.225,-0.7366666666666627,-0.27666666666666867,-0.9666666666666686
5.245,-0.9075000000000017,-0.14249999999999832,-0.8249999999999988
5.265,-1.0074999999999992,0.014999999999998334,-0.6200000000000033
5.285,-0.9049999999999934,0.12,-0.1399999999999867
5.305,-0.6066666666666746,0.13,0.23333333333332545
5.325,-0.23599999999999893,0.13400000000000017,0.47200000000000053
5.345,0.2566666666666568,0.17,0.6033333333333314
5.365,0.57,0.17,0.59
5.385,0.7866666666666657,0.15333333333333432,0.41666666666666863
5.405,0.7049999999999933,0.10499999999999779,0.23999999999999555
5.425,0.3666666666666716,0.13,0.13333333333333433
5.445,-0.04000000000000592,0.21666666666666864,0.1
5.465,-0.38,0.35,0.08
5.485,-0.6700000000000045,0.5150000000000022,0.08
5.505,-0.73,0.5933333333333343,0.13333333333333433
5.525,-0.6874999999999989,0.6174999999999988,0.24500000000000222
5.545,-0.5500000000000015,0.5566666666666672,0.3766666666666657
5.565,-0.37,0.44,0.47
5.585,-0.07000000000000223,0.20750000000000168,0.5474999999999994
5.605,0.19200000000000425,-0.038000000000002844,0.57
5.625,0.42333333333333134,-0.23999999999999705,0.5633333333333344
5.645,0.5833333333333314,-0.43499999999999706,0.5183333333333343
5.665,0.6920000000000007,-0.5460000000000004,0.4439999999999997
5.685,0.8266666666666657,-0.5633333333333344,0.3433333333333343
5.705,0.85,-0.495,0.325
5.725,0.8066666666666672,-0.43,0.34
5.745,0.7320000000000003,-0.44,0.33
5.765,0.68,-0.51,0.25
5.785,0.5799999999999955,-0.54,0.19
5.805,0.3300000000000044,-0.51,0.15
5.825,-0.033333333333338266,-0.41333333333333233,0.12
5.845,-0.34714285714285603,-0.2785714285714293,0.11
5.865,-0.5070000000000001,-0.12299999999999991,0.12700000000000009
5.885,-0.41,0.03,0.23
5.905,-0.23666666666666272,0.06,0.2866666666666686
5.925,-0.060000000000000005,0.055,0.255
5.945,0.05624999999999986,0.04,0.19375000000000014
5.965,0.14,-0.03,0.17
5.985,0.17,-0.13,0.17
6.005,0.12333333333333432,-0.15,0.16
6.025,-0.01333333333333728,-0.07666666666666272,0.13333333333333136
6.045,-0.16,0.04,0.07
6.065,-0.27571428571428663,0.17142857142857323,0.02428571428571338
6.085,-0.3589999999999997,0.30799999999999944,-0.008999999999999734
6.105,-0.38,0.5,0.04
6.125,-0.34,0.57,0.18
6.1450000000000005,-0.2699999999999978,0.5149999999999989,0.24
6.165,-0.11333333333333137,0.38333333333333286,0.22
6.185,0.12111111111110848,0.35,0.24777777777777713
6.205,0.5,0.43,0.57
6.225,0.8133333333333284,0.410000000000003,1.0899999999999912
6.245,1.29,-0.05,1.84
6.265,1.623999999999998,-0.8519999999999901,2.1120000000000005
6.285,1.68,-1.67,1.8
6.305,2.1,-2.26,0.47
6.325,2.09,-2.29,-0.63
6.345,1.09,-2.29,-1.43
6.365,-0.88,-1.68,-1.82
6.385,-1.7552941176470607,-1.062352941176469,-1.7723529411764705
6.405,-2.996666666666669,1.8333333333333728,-1.7433333333333372
6.425,-2.67,2.96,-1.97
6.445,-1.81,2.36,-2.02
6.465,-0.93,0.62,-1.81
6.485,0.81,-1.33,-1.06
6.505,3.29,-1.69,0.37
6.525,3.7833333333333257,-2.9466666666666983,0.8766666666666627
6.545,2.9033333333333493,-3.3166666666666713,0.2800000000000089
6.565,1.08,-2.45,-0.28
6.585,-0.3060000000000039,-1.253999999999996,-0.28199999999999986
6.605,-1.88,0.42,-0.25
6.625,-2.23,1.63,-0.5
6.6450000000000005,-1.8099999999999645,2.5600000000000356,-0.4999999999999867
6.665,-1.15,3.08,-0.16
6.685,-0.5133333333333432,3.4,0.4533333333333195
6.705,-0.1333333333333284,2.926666666666654,0.9566666666666716
6.725,0.07,1.6,1.25
6.745,0.06,0.19,1.12
6.765,-0.02,-0.62,0.72
6.785,-0.12,-0.57,0.38
6.805,-0.35399999999999787,0.19999999999998935,0.16800000000000107
6.825,-0.6066666666666686,1.150000000000012,0.21333333333333432
6.845,-0.7024999999999988,1.8924999999999943,0.2375000000000011
6.865,-0.73,2.12,0.11
6.885,-0.7881818181818183,2.17,-0.0863636363636365
6.905,-0.81,1.98,-0.04
6.925,-0.98,1.12,0.16
6.945,-1.28,0.64,0.41
6.965,-0.97,0.69,0.55
6.985,-0.4099999999999948,0.4549999999999974,0.5008333333333329
7.005,0.26,-0.13,-0.01
7.025,0.4333333333333373,-0.4266666666666716,-0.23333333333333137
7.045,0.83,-0.73,0.06
7.065,1.0883333333333345,-1.14833333333334,0.21
7.085,0.9,-1.59,0.08
7.105,0.607142857142856,-1.921428571428572,-0.10285714285714395
7.125,0.48199999999999893,-1.7959999999999987,-0.30800000000000105
7.1450000000000005,0.3366666666666657,-1.3066666666666598,-0.5266666666666686
7.165,0.2816666666666672,-0.880000000000003,-0.6949999999999985
7.185,0.27,-0.5676470588235303,-0.8523529411764698
7.205,0.2566666666666657,-0.4066666666666657,-1.1166666666666687
7.225,0.15,-0.35,-1.29
7.245,-0.09333333333333728,-0.13666666666666272,-1.45
7.265,-0.4,0.17,-1.44
7.285,-0.77,0.54,-1.3
7.305,-1.0466666666666629,0.7833333333333314,-1.0733333333333372
7.325,-1.12,0.81,-1.0
7.345,-1.165,0.755,-0.935
7.365,-1.18,0.6416666666666666,-0.8216666666666665
7.385,-1.2,0.4650000000000022,-0.6200000000000044
7.405,-1.1766666666666656,0.44,-0.44333333333333136
7.425,-1.0879999999999994,0.4439999999999997,-0.26199999999999896
7.445,-0.83,0.37,0.03
7.465,-0.47000000000000297,0.21500000000000147,0.31333333333333135
7.485,-0.12874999999999903,0.03499999999999945,0.4575000000000003
7.505,0.645,-0.35,0.43
7.525,0.9140000000000033,-0.5360000000000021,0.2639999999999979
7.545,1.03,-0.7566666666666686,0.16
7.565,0.94,-0.84,0.13
7.585,0.7962499999999999,-0.8554166666666666,0.15
7.605,0.45,-0.72,0.25
7.625,0.09199999999999893,-0.44199999999999895,0.31
7.6450000000000005,-0.12666666666666865,-0.14666666666666273,0.32
7.665,-0.2,0.1,0.28
7.685,-0.18,0.31999999999999557,0.20500000000000224
7.705,-0.15263157894736834,0.34,0.17263157894736836
7.725,0.03666666666666272,-0.046666666666656795,-0.006666666666662719
7.745,0.11,-0.4233333333333373,-0.11333333333333431
7.765,0.08000000000000444,-0.5200000000000045,-0.12
7.785,-0.01,-0.34,-0.05
7.805,-0.02,-0.2860869565217395,0.013913043478260534
7.825,0.20000000000000295,-0.14666666666666567,0.3466666666666687
7.845,0.4166666666666627,-0.16,0.41
7.865,0.5800000000000044,-0.14,0.4049999999999978
7.885,0.7033333333333323,-0.1766666666666647,0.37666666666666765
7.905,0.7468421052631581,-0.2168421052631581,0.3431578947368419
7.925,0.87,-0.4066666666666647,0.1333333333333353
7.945,0.88,-0.5333333333333343,-0.03666666666666864
7.965,0.83,-0.62,-0.17
7.985,0.7749999999999978,-0.6249999999999978,-0.2350000000000022
8.005,0.713529411764704,-0.571764705882352,-0.26
8.025,0.39999999999999114,-0.37999999999999556,-0.31
8.045000000000002,-0.0033333333333728093,-0.23666666666665087,-0.3866666666666746
8.065000000000001,-0.44500000000001105,-0.04499999999999334,-0.5200000000000045
8.085,-0.8550000000000222,0.25000000000001776,-0.6450000000000045
8.105,-1.2533333333333432,0.6900000000000118,-0.7066666666666686
8.125000000000002,-1.5666666666666984,1.1600000000000474,-0.6833333333333255
8.145000000000001,-1.7533333333333372,1.5833333333333433,-0.5766666666666627
8.165000000000001,-1.8450000000000046,1.8850000000000133,-0.41499999999999554
8.185,-1.86,1.9760000000000004,-0.3179999999999993
8.205,-1.76,1.93,0.09
8.225000000000001,-1.5899999999999883,1.6599999999999764,0.3833333333333491
8.245000000000001,-1.2766666666666568,1.076666666666651,0.7466666666666746
8.265,-1.0049999999999777,0.5799999999999557,0.9700000000000177
8.285,-0.645,-0.09000000000000001,1.18
8.305000000000001,-0.16999999999996446,-1.0750000000000624,1.3850000000000087
8.325000000000001,0.0050000000000022206,-1.4500000000000044,1.485000000000002
8.345,0.004999999999995559,-1.5049999999999955,1.5650000000000044
8.365,-0.10333333333333727,-1.329999999999994,1.6
8.385000000000002,-0.21500000000000888,-1.0349999999999557,1.524999999999991
8.405000000000001,-0.26,-0.6899999999999822,1.3599999999999912
8.425,-0.2549999999999978,-0.3699999999999911,1.1349999999999933
8.445,-0.12,-0.06,0.78
8.465000000000002,0.11666666666667456,0.15000000000000593,0.4566666666666568
8.485000000000001,0.4500000000000177,0.4550000000000133,-0.040000000000026646
8.505,0.6950000000000067,0.6700000000000045,-0.4200000000000089
8.525,0.8180000000000007,0.7980000000000007,-0.6160000000000014
8.545000000000002,0.87,0.7933333333333255,-0.6366666666666508
8.565000000000001,0.7799999999999645,0.6699999999999467,-0.5499999999999645
8.585,0.6619999999999996,0.5419999999999996,-0.4739999999999998
8.605,0.2949999999999867,0.3,-0.36
8.625000000000002,0.09666666666665087,0.31,-0.3066666666666509
8.645000000000001,-0.0633333333333373,0.35,-0.19333333333333136
8.665000000000001,-0.19000000000000444,0.36,-0.10499999999999779
8.685,-0.24,0.31,-0.11
8.705000000000002,-0.16999999999996449,0.18999999999996448,-0.16000000000003553
8.725000000000001,-0.00333333333333136,-0.03500000000000296,-0.2683333333333343
8.745000000000001,0.12666666666666865,-0.2633333333333373,-0.37666666666666865
8.765,0.06,-0.35,-0.44
8.785,-0.08,-0.24,-0.44
8.805000000000001,-0.1094444444444457,-0.1911111111111086,-0.4205555555555543
8.825000000000001,-0.15333333333333135,0.14500000000000296,-0.2716666666666657
8.845,0.05,0.23,-0.18
8.865,0.26,0.19,-0.16
8.885000000000002,0.42000000000000354,0.03999999999998934,-0.18000000000000355
8.905000000000001,0.4587500000000007,-0.03625000000000208,-0.1987500000000007
8.925,0.48499999999999777,-0.5100000000000044,-0.3150000000000022
8.945,0.32,-0.68,-0.41
8.965000000000002,0.07199999999999147,-0.69,-0.42
8.985000000000001,-0.19000000000002665,-0.5199999999999734,-0.2999999999999911
9.005,-0.25111111111111184,-0.44333333333333225,-0.25888888888888817
9.025,-0.21,0.06,-0.07
9.045000000000002,0.06000000000002664,0.16,-0.02
9.065000000000001,0.36000000000002663,0.059999999999982234,-0.010000000000008882
9.085,0.51,-0.05,-0.06
9.105,0.5979999999999979,-0.2640000000000043,-0.15
9.125000000000002,0.42999999999996447,-0.36000000000000887,-0.1499999999999911
9.145000000000001,0.15999999999998224,-0.36,-0.11
9.165000000000001,-0.07000000000001777,-0.31999999999999407,-0.05999999999999408
9.185,-0.2,-0.26,0.02
9.205000000000002,-0.21,-0.24,0.05578947368421289
9.225000000000001,-0.12333333333333135,-0.16333333333333136,0.2433333333333373
9.245000000000001,0.07000000000001777,-0.17,0.33000000000000596
9.265,0.3,-0.23,0.4
9.285,0.52,-0.3,0.42
9.305000000000001,0.6400000000000059,-0.38,0.41999999999999404
9.325000000000001,0.67,-0.42,0.37999999999998224
9.345,0.59,-0.42,0.31
9.365,0.4333333333333373,-0.39666666666666867,0.26666666666666866
9.385000000000002,0.24333333333332544,-0.3133333333333254,0.20666666666666272
9.405000000000001,0.06333333333332544,-0.15333333333332544,0.14666666666666273
9.425,-0.08,0.07,0.12
9.445,-0.16333333333333333,0.24333333333333332,0.13
9.465000000000002,-0.16999999999999113,0.29,0.13
9.485000000000001,-0.16,0.26999999999999114,0.14
9.505,-0.13749999999999668,0.20749999999999666,0.17
9.525,-0.04249999999999889,0.06499999999999778,0.2175000000000011
9.545000000000002,0.10000000000000889,-0.15000000000001776,0.26
9.565000000000001,0.23666666666667457,-0.23,0.2733333333333373
9.585,0.35,-0.21,0.32
9.605,0.43,-0.2,0.4
9.625000000000002,0.37249999999999,-0.3250000000000067,0.3974999999999967
9.645000000000001,0.09666666666665089,-0.41,0.2633333333333254
9.665000000000001,-0.23000000000001183,-0.3766666666666627,0.1266666666666627
9.685,-0.4800000000000059,-0.22999999999999407,0.11
9.705000000000002,-0.6133333333333373,-0.08333333333332543,0.1633333333333373
9.725000000000001,-0.6199999999999911,0.04000000000000888,0.3300000000000089
9.745000000000001,-0.4399999999999882,0.09333333333333728,0.3633333333333373
9.765,-0.16999999999998816,0.09666666666666272,0.33666666666666273
9.785,0.07999999999999409,0.01666666666666864,0.2233333333333373
9.805000000000001,0.3066666666666746,0.02333333333333728,0.039999999999988156
9.825000000000001,0.3799999999999911,0.11000000000001776,-0.12000000000001776
9.845,0.20999999999998817,0.34333333333334914,-0.27666666666667455
9.865,-0.02,0.58,-0.35
9.885000000000002,-0.3300000000000178,0.9800000000000355,-0.1149999999999556
9.905000000000001,-0.6125000000000167,1.3200000000000134,0.37000000000002664
9.925,-1.0366666666666864,1.51,1.2233333333333847
9.945,-1.33,1.225,2.295
9.965000000000002,-1.1949999999999554,0.44499999999988454,2.8750000000000266
9.985000000000001,-0.6999999999999866,-0.3150000000000122,2.8049999999999944
10.005,0.6933333333333846,-1.1733333333333609,1.8366666666666154
10.025,1.3450000000000046,-1.520000000000009,0.9099999999999644
10.045000000000002,1.1299999999999466,-1.3899999999999468,0.32999999999994667
10.065000000000001,0.6999999999998578,-0.8699999999998224,-0.04000000000010658
10.085,0.019999999999973355,-0.029999999999973354,-0.5400000000000178
10.105,-0.5050000000000311,0.1349999999999867,-0.7450000000000044
10.125000000000002,-1.0500000000001244,-0.4100000000002309,-0.6199999999999645
10.145000000000001,-1.3599999999999646,-1.5600000000001955,-0.4499999999999467
10.165000000000001,-0.9633333333333136,-2.1333333333333373,-0.27666666666666273
10.185,-0.5949999999999867,-1.7499999999999556,-0.16499999999999557
10.205000000000002,-0.5400000000000711,-0.6599999999997158,-0.24000000000001775
10.225000000000001,-0.8800000000000178,0.3000000000000444,-0.1399999999999645
10.245000000000001,-0.8599999999999822,0.46,0.3000000000000267
10.265,-0.11999999999993782,0.19999999999996448,0.63
10.285,1.1499999999999704,-0.6299999999999881,-0.243333333333284
10.305000000000001,1.5055555555555642,-0.6722222222222209,-0.8733333333333492
10.325000000000001,2.410000000000018,-0.1399999999999645,-2.3599999999999466
10.345,1.8949999999999512,0.20000000000003554,-1.5749999999999602
10.365,0.99,1.04,-1.01
10.385000000000002,0.0366666666666272,2.05666666666671,-0.7133333333333254
10.405000000000001,-0.25160000000000476,2.316000000000003,-0.6647999999999994
10.425,-0.39,2.31,-0.77
10.445,0.56,0.93,-0.5
10.465000000000002,1.3750000000000444,-0.9000000000001777,0.18500000000007993
10.485000000000001,1.5899999999999912,-1.7200000000000177,0.6600000000000267
10.505,1.54,-1.74,0.74
10.525,0.73,-0.68,0.69
10.545000000000002,0.2133333333333136,2.368244489403537e-14,0.4499999999999882
10.565000000000001,-0.003333333333337281,0.3066666666666746,0.29333333333332545
10.585,-0.05666666666666864,0.39,0.21
10.605,-0.05499999999999556,0.39,0.2
10.625000000000002,0.17500000000002663,0.2949999999999911,0.2750000000000089
10.645000000000001,0.5150000000000222,0.25,0.32500000000000445
10.665000000000001,0.8200000000000178,0.4500000000000177,0.40500000000000447
10.685,0.9133333333333314,0.4099999999999822,0.4666666666666686
10.705000000000002,0.8847619047619036,0.15333333333332544,0.48
10.725000000000001,0.40333333333332544,-1.2566666666666628,0.7700000000000119
10.745000000000001,0.04333333333332544,-1.1399999999999881,0.8233333333333255
10.765,-0.18,-0.42,0.62
10.785,-0.23,0.2177777777777783,0.6011111111111112
10.805000000000001,-0.23,0.2696296296296351,0.6085185185185192
10.825000000000001,0.08666666666666864,0.21333333333332544,0.5233333333333314
10.845,0.02333333333332544,-0.17666666666667458,0.28333333333332544
10.865,-0.47333333333334915,-0.36666666666666864,-0.023333333333343198
10.885000000000002,-0.7086956521739176,-0.4082608695652191,-0.12826086956521912
10.905000000000001,-1.1349999999999867,-0.5449999999999956,0.06000000000001776
10.925,-0.62499999999996,-0.3499999999999911,0.29500000000001336
10.945,0.07,-0.24,0.45999999999999996
10.965000000000002,0.5500000000000237,-0.3833333333333491,0.6166666666666746
10.985000000000001,0.5299999999999467,-0.5500000000000533,0.5699999999999644
11.005,0.4468181818181804,-0.6231818181818196,0.5145454545454536
11.025,-0.23,-0.71,0.29
11.045000000000002,-0.5466666666666983,-0.5599999999999763,0.1399999999999763
11.065000000000001,-0.7633333333333373,-0.2633333333333254,-0.08000000000000591
11.085,-0.8033333333333315,0.04000000000000592,-0.20666666666666864
11.105,-0.7819999999999998,0.11400000000000053,-0.21800000000000017
11.125000000000002,-0.47999999999998816,0.5100000000000178,-0.3700000000000118
11.145000000000001,-0.25999999999999407,0.6633333333333373,-0.5333333333333373
11.165000000000001,-0.00999999999999408,0.7666666666666686,-0.63
11.185,0.19,0.75,-0.63
11.205000000000002,0.24000000000001775,0.7199999999999822,-0.64
11.225000000000001,0.23999999999998223,0.66,-0.6900000000000177
11.245000000000001,0.1299999999999941,0.61,-0.71
11.265,0.033333333333331355,0.5333333333333314,-0.6633333333333314
11.285,-0.14,0.45,-0.64
11.305000000000001,-0.17619047619047812,0.45,-0.6580952380952391
11.325000000000001,-0.5100000000000178,0.5400000000000059,-0.7999999999999942
11.345,-0.72,0.57,-0.72
11.365,-0.83,0.58,-0.71
11.385000000000002,-0.8233333333333254,0.58,-0.71
11.405000000000001,-0.8123809523809519,0.58,-0.71
11.425,-0.52,0.56,-0.58
11.445,-0.24,0.42,-0.38
11.465000000000002,0.09000000000003552,0.20999999999997335,-0.3
11.485000000000001,0.3900000000000089,0.00999999999999408,-0.34000000000000297
11.505,0.61,-0.13,-0.38
11.525,0.67,-0.25,-0.36
11.545000000000002,0.5599999999999882,-0.39000000000001184,-0.28999999999999404
11.565000000000001,0.3899999999999941,-0.5800000000000177,-0.1899999999999941
11.585,0.36,-0.92,-0.16
11.605,0.46,-1.27,-0.15
11.625000000000002,0.5500000000000178,-1.4300000000000177,-0.10999999999998224
11.645000000000001,0.61,-1.3599999999999894,-0.04999999999999645
11.665000000000001,0.5399999999999882,-0.9899999999999586,-0.03
11.685,0.4,-0.46,-0.07
11.705000000000002,0.4000000000000178,-0.42,-0.08
11.725000000000001,0.41,-0.41321428571428515,-0.08
11.745000000000001,0.33999999999998226,-0.4100000000000355,-0.14000000000001778
11.765,0.27,-0.7,-0.16
11.785,0.29517241379310366,-0.8558620689655183,-0.08965517241379269
11.805000000000001,0.32999999999998225,-1.1800000000000355,-0.01
11.825000000000001,-0.0866666666666864,-1.086666666666651,-0.15
11.845,-0.37,-0.73,-0.2
11.865,-0.62,-0.07,-0.24
11.885000000000002,-0.6299999999999978,0.5800000000000177,-0.21999999999999778
11.905000000000001,-0.47999999999999404,1.0600000000000118,-0.1266666666666627
11.925,-0.45099999999999946,1.1180000000000012,-0.0914999999999992
11.945,-0.019999999999999997,1.3,0.3466666666666667
11.965000000000002,0.18000000000001776,0.9099999999999526,0.5300000000000178
11.985000000000001,0.3600000000000071,0.18999999999996448,0.7000000000000035
12.005,0.4675000000000011,-0.5950000000000111,0.7775000000000012
12.025,0.47,-0.7026086956521755,0.78
12.045000000000002,0.28999999999996445,-1.650000000000071,0.6599999999999823
12.065000000000001,0.09999999999999112,-1.7699999999999956,0.4899999999999911
12.085,-0.04,-1.53,0.34
12.105,-0.13,-1.02,0.18
12.125000000000002,-0.19000000000000888,-0.28999999999992004,-1.7763568393996572e-14
12.145000000000001,-0.25,0.48500000000001775,-0.1
12.165000000000001,-0.25,1.0800000000000238,-0.056666666666662716
12.185,-0.17,1.39,0.06
12.205000000000002,2.220446049250311e-15,1.3499999999999968,0.2100000000000011
12.225000000000001,0.09000000000001776,1.1499999999998933,0.25
12.245000000000001,0.21,0.33333333333330173,0.1566666666666627
12.265,0.2,-0.303333333333361,0.0033333333333254384
12.285000000000002,0.11666666666666271,-0.7000000000000118,-0.20000000000001183
12.305000000000001,0.02874999999999926,-0.81,-0.3825000000000015
12.325000000000001,0.02041666666666642,-0.81,-0.39916666666666717
12.345,-0.29666666666667457,-0.04666666666663904,-0.6166666666666627
12.365,-0.38,0.5199999999999881,-0.5766666666666685
12.385000000000002,-0.33333333333332543,0.9233333333333491,-0.4966666666666627
12.405000000000001,-0.19749999999999723,1.1412500000000012,-0.3474999999999972
12.425,-0.01999999999998816,1.1133333333333255,-0.17333333333332543
12.445,0.12,0.84,-0.03
12.465000000000002,0.1983333333333368,0.44166666666664245,0.0683333333333368
12.485000000000001,0.2512500000000014,-0.2487500000000097,0.1
12.505,0.25,-0.6950000000000055,0.06
12.525,0.21499999999999556,-0.9150000000000045,0.03
12.545000000000002,0.17,-0.8949999999999934,0.03
12.565000000000001,0.1266666666666627,-0.7099999999999881,0.05
12.585,0.05999999999999112,-0.40999999999998227,0.05
12.605,-0.05052631578947433,-0.07789473684210271,0.06
12.625000000000002,-0.10000000000003553,0.040000000000071055,0.07
12.645000000000001,-0.28333333333333727,0.3833333333333373,0.1833333333333373
12.665000000000001,-0.3833333333333373,0.33333333333332543,0.25
12.685,-0.49100000000000105,0.033999999999993605,0.28
12.705000000000002,-0.6213333333333351,-0.41333333333333766,0.23866666666666492
12.725000000000001,-0.7700000000000533,-0.6100000000000533,0.11999999999996447
12.745000000000001,-1.17750000000001,-0.47499999999998,-0.16250000000000334
12.765,-1.3900000000000088,0.0850000000000222,-0.25500000000000445
12.785000000000002,-1.560000000000071,0.28000000000003555,-0.2599999999999645
12.805000000000001,-1.9314814814814834,0.4811111111111125,0.11185185185185417
12.825000000000001,-1.961111111111113,0.5033333333333349,0.14888888888889146
12.845,-1.7999999999999645,1.1933333333333491,0.6400000000000119
12.865,-0.815,1.37,0.74
12.885000000000002,0.20600000000005966,1.1999999999999786,0.6279999999999872
12.905000000000001,1.1731818181818219,0.6972727272727239,0.358181818181816
12.925,1.2368181818181836,0.6427272727272711,0.3218181818181808
12.945,0.9833333333333136,-0.19000000000000594,0.08333333333333136
12.965000000000002,0.08999999999989342,-0.2949999999999911,0.03499999999999112
12.985000000000001,-0.6740000000000114,-0.22399999999999715,-0.01800000000000142
13.005,-1.0833333333333373,-0.03666666666666272,-0.05111111111111243
13.025,-1.1149999999999958,0.2250000000000133,-0.08
13.045000000000002,-0.8933333333333018,0.4733333333333491,-0.07333333333332545
13.065000000000001,-0.46999999999998815,0.58,0.02333333333333728
13.085,0.04000000000001184,0.4966666666666627,0.1833333333333373
13.105,0.44500000000002216,0.27999999999998226,0.2950000000000044
13.125000000000002,0.7433333333333492,-0.036666666666698246,0.34
13.145000000000001,0.8650000000000044,-0.32000000000001777,0.30499999999999555
13.165000000000001,0.8333333333333314,-0.49666666666666864,0.1866666666666627
13.185,0.6655555555555542,-0.54,0.04777777777777712
13.205000000000002,0.4360869565217366,-0.5086956521739122,-0.051304347826087796
13.225000000000001,0.40999999999996445,-0.4999999999999911,-0.06000000000000888
13.245000000000001,0.03,-0.2049999999999867,-0.12
13.265,0.00333333333333136,0.04000000000000592,-0.14666666666666864
13.285000000000002,-0.02,0.26000000000001183,-0.18
13.305000000000001,-0.02,0.2933333333333342,-0.18
13.325000000000001,-0.11666666666667456,0.41000000000001185,-0.12
13.345,-0.22666666666666865,0.5099999999999941,-0.14
13.365,-0.225,0.375,-0.11499999999999999
13.385000000000002,-0.15749999999999667,0.16749999999999668,-0.07
13.405000000000001,-0.022857142857141407,-0.010714285714287888,-0.016428571428570703
13.425,0.1333333333333373,-0.12,0.05666666666666864
13.445,0.2533333333333373,-0.12333333333333135,0.12666666666666865
13.465000000000002,0.3966666666666746,-0.11,0.21666666666667456
13.485000000000001,0.5133333333333373,-0.1333333333333373,0.27
13.505,0.5605000000000007,-0.17,0.2294999999999994
13.525,0.57,-0.17500000000000443,0.22
13.545000000000002,0.55,-0.16999999999999557,0.11999999999999555
13.565000000000001,0.48333333333333134,-0.06666666666666271,0.00333333333333136
13.585,0.36,0.16,-0.13
13.605,0.23,0.4,-0.23
13.625000000000002,0.12499999999999112,0.5250000000000089,-0.3
13.645000000000001,0.00666666666666272,0.49333333333333135,-0.35666666666666863
13.665000000000001,-0.21000000000000593,0.43,-0.36333333333333134
13.685,-0.3533333333333373,0.42,-0.13333333333332542
13.705000000000002,-0.3793333333333325,0.3593333333333325,0.13200000000000237
13.725000000000001,-0.37266666666666626,0.35266666666666624,0.1520000000000012
13.745000000000001,-0.04999999999992895,0.08999999999998223,0.2899999999999822
13.765,0.2133333333333373,0.03666666666666864,0.18333333333333135
13.785000000000002,0.24333333333332544,0.08666666666667455,0.14
13.805000000000001,0.10846153846153794,0.17076923076923103,0.18076923076923102
13.825000000000001,0.09307692307692275,0.17846153846153862,0.18846153846153862
13.845,-0.26,0.28,0.27
13.865,-0.26,0.27,0.26
13.885000000000002,-0.12399999999999362,0.17799999999999785,0.27
13.905000000000001,0.14322580645161412,0.10935483870967717,0.32
13.925,0.1754838709677437,0.10290322580645127,0.32
13.945,0.69,0.47,0.3
13.965000000000002,0.8900000000000178,0.47999999999998816,0.29999999999999405
13.985000000000001,1.05,0.33,0.20999999999999747
14.005,0.9757142857142851,0.2985714285714283,0.0871428571428567
14.025,0.9585714285714283,0.29285714285714276,0.07571428571428557
14.045000000000002,0.4733333333333195,0.3933333333333373,0.05333333333333728
14.065000000000001,-0.16999999999999557,1.4200000000000443,1.2700000000000489
14.085,0.25,1.95,2.23
14.105,0.29324324324324347,1.9445945945945946,2.2840540540540544
14.125000000000002,0.6400000000001244,1.7499999999998401,2.7000000000001245
14.145000000000001,1.3200000000000238,-0.020000000000029605,1.959999999999935
14.165000000000001,1.4499999999999704,-0.4000000000000415,1.0199999999999172
14.185,0.67,-1.08,0.07
14.205000000000002,-1.1585294117647171,-1.925294117647062,-0.9497058823529471
14.225000000000001,-1.282058823529418,-1.9605882352941193,-1.0144117647058857
14.245000000000001,-2.550000000000053,-1.1999999999995914,-2.410000000000089
14.265,-2.55,0.98,-2.14
14.285000000000002,-1.5899999999999348,-0.1500000000000592,-2.4350000000000147
14.305000000000001,-1.1119999999999906,-0.5720000000000083,-2.5106666666666673
14.325000000000001,0.40000000000017766,-1.5899999999999823,-2.0299999999997156
14.345,1.53,-2.4,0.03
14.365,2.45,-3.05,0.73
14.385000000000002,2.2933333333332544,-4.616666666666816,0.33999999999990527
14.405000000000001,0.8799999999999645,-4.5233333333333015,-0.5333333333333432
14.425,0.7275675675675646,-4.372432432432429,-0.5705405405405413
14.445,0.16,-3.65,-0.64
14.465000000000002,-0.7399999999999289,-0.18999999999978684,-1.1100000000000534
14.485000000000001,-0.48,1.060000000000071,-1.0099999999999763
14.505,-0.50953488372093,1.8141860465116295,-0.7376744186046503
14.525,-0.5048837209302324,1.8560465116279083,-0.714418604651162
14.545000000000002,-0.5002325581395344,1.8979069767441907,-0.6911627906976717
14.565000000000001,0.23000000000003554,1.5699999999999112,0.09000000000000888
14.585,0.45,0.79,0.05
14.605,0.46428571428571463,0.7257142857142841,0.03571428571428535
14.625000000000002,0.51,-0.13666666666666272,-0.4400000000000118
14.645000000000001,0.40666666666665086,0.1800000000000237,-0.53
14.665000000000001,0.10999999999997336,0.78000000000008,-0.34999999999995557
14.685,-0.02,1.31,0.05
14.705000000000002,0.11321428571428768,1.2835714285714246,0.2910714285714292
14.725000000000001,0.1346428571428583,1.2407142857142834,0.2982142857142861
14.745000000000001,0.76,-0.32000000000001183,0.1266666666666627
14.765,0.7,-0.23,0.19
14.785000000000002,0.40142857142856053,0.27142857142857324,0.4742857142857197
14.805000000000001,-0.22769230769232535,-0.20153846153848803,0.6623076923076938
14.825000000000001,-1.1366666666666865,-1.5966666666667102,0.4499999999999763
14.845,-0.9033333333333018,-1.7699999999999645,-0.48666666666673375
14.865,-0.63,-0.28,-1.13
14.885000000000002,-0.5699999999999941,1.7300000000000593,-0.10499999999993782
14.905000000000001,-0.3342857142857034,2.52,1.2971428571428771
14.925,0.2842857142857261,2.0485714285714143,1.6928571428571464
14.945,1.7033333333333334,-0.4766666666666667,1.5
14.965000000000002,2.0233333333333254,-2.160000000000059,0.9399999999999763
14.985000000000001,1.6799999999999866,-2.7612500000000084,0.6149999999999933
15.005,0.8714285714285681,-2.4871428571428535,0.44
15.025,0.30260869565217097,-1.6173913043478205,0.4821739130434786
15.045000000000002,0.0799999999998579,-1.1899999999997157,0.5100000000000178
15.065000000000001,-0.9500000000000118,1.0100000000000355,0.4966666666666627
15.085,-1.02,1.48,0.44
15.105,-0.75,1.48,0.28
15.125000000000002,-0.46130434782608304,1.281304347826083,0.10130434782608307
15.145000000000001,-0.3499999999999467,1.1699999999999111,-5.3290705181942386e-14
15.165000000000001,-0.08333333333333728,0.7166666666666627,-0.5100000000000119
15.185,-0.20800000000000426,0.6539999999999986,-0.6420000000000029
15.205000000000002,-0.42500000000000887,0.61,-0.745000000000003
15.225000000000001,-0.57227272727273,0.5859090909090899,-0.82818181818182
15.245000000000001,-0.8500000000000355,0.56,-1.0700000000000267
15.265,-1.1150000000000133,0.5650000000000045,-1.2050000000000045
15.285000000000002,-1.2966666666666706,0.58,-1.24
15.305000000000001,-1.39,0.58,-1.1577777777777771
15.325000000000001,-1.2399999999999467,0.57,-0.9699999999999467
15.345,-0.91,0.51,-0.77
15.365,-0.475,0.5,-0.635
15.385000000000002,-0.10666666666665088,0.51,-0.5266666666666627
15.405000000000001,0.15800000000000855,0.46399999999999714,-0.4179999999999943
15.425,0.29857142857142926,0.337142857142856,-0.33571428571428535
15.445,0.32,0.06,-0.35
15.465000000000002,0.23799999999999716,-0.1740000000000057,-0.4
15.485000000000001,0.1566666666666627,-0.20333333333332543,-0.34666666666666274
15.505,0.06399999999999716,0.11800000000000854,-0.18599999999999572
15.525,-0.10384615384615448,0.6123076923076938,-0.010769230769230349
15.545000000000002,-0.24333333333332544,0.8299999999999763,0.12666666666667456
15.565000000000001,-0.08666666666666273,0.3466666666666509,0.15
15.585,0.07,-0.14000000000001778,0.14
15.605,0.005000000000000001,-0.235,0.11
15.625000000000002,-0.2041176470588287,-0.09941176470587848,0.06647058823529282
15.645000000000001,-0.4700000000000044,0.17000000000000443,-0.025000000000002222
15.665000000000001,-0.51,0.25,-0.10500000000000445
15.685,-0.3866666666666627,0.16666666666666272,-0.18166666666666864
15.705000000000002,-0.23399999999999785,0.03599999999999858,-0.2
15.725000000000001,-0.09999999999996448,-0.10000000000001777,-0.18
15.745000000000001,0.08500000000000443,-0.21499999999999556,-0.15
15.765,0.14,-0.18333333333333135,-0.13333333333333136
15.785000000000002,0.09666666666666272,-0.17,-0.17
15.805000000000001,-0.008000000000004264,-0.15199999999999572,-0.19800000000000428
15.825000000000001,-0.0985714285714293,-0.11571428571428535,-0.18571428571428536
15.845,-0.26666666666666866,0.11333333333333728,-0.08333333333333136
15.865000000000002,-0.33,0.3100000000000533,0.030000000000035526
15.885000000000002,-0.3233333333333254,0.4233333333333254,0.12666666666667456
15.905000000000001,-0.2442857142857121,0.2842857142857121,0.15
15.925,-0.19272727272727233,0.20272727272727234,0.16363636363636383
15.945,-0.18060606060606027,0.19060606060606028,0.16969696969696987
15.965000000000002,-0.03499999999999112,0.004999999999991118,0.21499999999999111
15.985000000000001,0.01333333333333728,-0.02,0.22666666666666271
16.005,0.06,-0.03428571428571356,0.25
16.025,0.1,-0.05374999999999972,0.26
16.044999999999998,0.21999999999998224,-0.30999999999996447,0.27
16.064999999999998,0.3599999999999822,-0.49,0.3599999999999822
16.085,0.4450000000000089,-0.32999999999996443,0.46500000000000885
16.105,0.46,-0.09285714285714068,0.49
16.125,0.4643750000000004,-0.024375000000000417,0.4256249999999996
16.145,0.51,-0.28999999999998816,0.2633333333333373
16.165,0.49,-0.43,0.12
16.185,0.36,-0.36,0.04
16.205,0.08428571428572589,-0.06142857142858883,0.04
16.224999999999998,-0.1464285714285682,0.25857142857142423,0.07214285714285606
16.245,-0.16785714285714395,0.2871428571428586,0.07928571428571465
16.265,-0.3533333333333294,0.5366666666666589,0.2666666666666706
16.285,-0.2966666666666627,0.33333333333332543,0.33
16.305,-0.15857142857142711,-0.0485714285714322,0.33
16.325,-0.015483870967743119,-0.45354838709677064,0.29
16.345,-0.0025806451612912853,-0.49225806451612614,0.29
16.365,0.18,-0.9250000000000089,0.2549999999999911
16.384999999999998,0.19,-0.8166666666666745,0.3266666666666627
16.404999999999998,0.21,-0.6548275862068976,0.37
16.425,0.21,-0.6341379310344805,0.37
16.445,0.28,-0.05000000000001184,0.2433333333333373
16.465,0.235,0.16,0.2
16.485,0.15285714285714214,0.2671428571428579,0.15285714285714214
16.505,0.08,0.3,0.11
16.525,0.027307692307693095,0.2573076923076931,0.09269230769230691
16.544999999999998,0.02,0.25,0.09000000000003552
16.564999999999998,-0.07999999999998224,0.10000000000001777,0.06000000000001776
16.585,-0.15600000000000852,0.1,0.001999999999995736
16.605,-0.35999999999999405,0.1566666666666627,-0.12333333333333135
16.625,-0.5616666666666686,0.2758333333333343,-0.19583333333333433
16.645,-0.71,0.43,-0.23
16.665,-0.72,0.84,-0.17
16.685,-0.49777777777778304,0.6822222222222288,-0.07888888888889152
16.705,-0.0991666666666716,0.19083333333334024,0.01833333333333136
16.724999999999998,0.36999999999995264,-0.42999999999994076,0.09
16.745,0.56,-0.68,0.12
16.765,0.41,-0.51,0.18
16.785,0.065,-0.045,0.245
16.805,-0.2927272727272698,0.48636363636363167,0.31454545454545396
16.825,-0.51,1.12,0.48
16.845,-0.37,1.23,0.67
16.865,0.04,0.95,0.8
16.884999999999998,0.6299999999999822,0.4000000000000178,0.89
16.904999999999998,1.2564705882352842,-0.21352941176469703,0.8829411764705871
16.925,1.85,-0.85,0.87
16.945,1.83,-1.73,0.46
16.965,1.71,-2.73,-0.49
16.985,1.39,-3.28,-0.9
17.005,0.62956521739131,-2.745217391304354,-0.8378260869565222
17.025,0.03,-2.0,-0.8
17.044999999999998,-1.52,1.2199999999997158,-0.570000000000071
17.064999999999998,-1.3800000000000237,1.58,-0.3799999999999882
17.085,-1.3116666666666628,1.2166666666666273,-0.8416666666667101
17.105,-0.8699999999999929,0.34599999999999076,-1.4780000000000042
17.125,-0.051612903225808485,-0.3229032258064507,-1.4045161290322592
17.145,0.01935483870967661,-0.35516129032258026,-1.3658064516129038
17.165,0.7,-0.78,0.1
17.185,-0.037499999999971154,-1.0549999999999957,0.3949999999999956
17.205,-1.151666666666633,-1.1766666666666628,0.41
17.224999999999998,-2.1864705882352777,-1.0076470588235416,0.43941176470587967
17.245,-1.84,0.88,1.19
17.265,0.35333333333344386,1.7899999999999883,1.84
17.285,1.9899999999999998,1.33,1.315
17.305,2.5225000000000004,0.953750000000002,0.4250000000000033
17.325,0.926666666666864,0.21333333333332544,-0.5399999999999764
17.345,-0.82,0.45,-0.59
17.365,-1.7299999999999762,0.5033333333333254,-0.6799999999999763
17.384999999999998,-1.7100000000000473,0.6399999999999408,-0.8699999999999763
17.405,-1.24,0.82,-0.94
17.425,-0.49882352941176955,0.99,-0.716470588235296
17.445,0.7333333333333609,0.5933333333333136,-0.14999999999997632
17.465,0.99,0.31,0.05
17.485,1.28,-0.45,0.48
17.505,0.670000000000071,-0.4433333333333728,0.7200000000000236
17.525,0.0728571428571559,-0.1257142857142915,0.4557142857142915
17.544999999999998,-0.154074074074071,-0.06370370370370415,0.33481481481481656
17.564999999999998,-0.5999999999999645,0.029999999999964472,-0.029999999999928945
17.585,-0.49,0.3,-0.21
17.605,-0.24,0.45,-0.21
17.625,-0.030588235294118388,0.43529411764705916,-0.23470588235294082
17.645,-0.12,-0.02,-0.42
17.665,-0.23,-0.23750000000000443,-0.42000000000001775
17.685,-0.18,-0.23,0.03
17.705,-0.27249999999999003,-0.8249999999999533,0.39249999999999
17.724999999999998,-0.3372727272727302,-1.5781818181818095,0.3809090909090953
17.745,0.32000000000005324,-1.349999999999858,-0.4900000000001066
17.765,0.63,0.6066666666667812,-1.2066666666666863
17.785,0.28999999999997633,2.3100000000000356,-0.8699999999999408
17.805,0.08333333333333728,2.0233333333332664,0.46666666666672196
17.825,0.23,0.31,0.98
17.845,0.3384615384615379,-0.6988461538461483,0.8873076923076931
17.865,0.39,-1.7,0.6
17.884999999999998,0.28000000000001185,-1.7100000000000828,0.14000000000003554
17.905,0.2724999999999989,-0.9349999999999845,-0.06500000000000222
17.925,0.23653846153846136,0.028461538461540658,-0.16346153846153863
17.945,0.17,0.61,-0.17
17.965,-0.16999999999999998,1.085,-0.315
17.985,-0.32,0.69,-0.44
18.005,-0.35666666666667457,0.1633333333333728,-0.41666666666667457
18.025,-0.34,-0.08499999999999111,-0.3750000000000089
18.044999999999998,-0.34,-0.09,-0.37
18.064999999999998,-0.32,0.14333333333332546,-0.42
18.085,-0.24399999999999147,0.15199999999999572,-0.32399999999999146
18.105,-0.14,-0.01,-0.23
18.125,-0.05,-0.23,-0.2
18.145,0.004333333333333057,-0.3529999999999992,-0.16566666666666696
18.165,0.06,-0.45,-0.12
18.185,0.11,-0.62,-0.14
18.205,0.06,-0.62,-0.15
18.224999999999998,0.01571428571428668,-0.5657142857142867,-0.17
18.245,-0.06,-0.3099999999999882,-0.3700000000000118
18.265,-0.13250000000000223,-0.019999999999991115,-0.5775000000000067
18.285,-0.28666666666667456,0.2666666666666746,-0.7366666666666746
18.305,-0.4485714285714271,0.4528571428571407,-0.84
18.325,-0.5614285714285714,0.5457142857142857,-0.8142857142857143
18.345,-0.73,0.63,-0.57
18.365,-0.5500000000000178,0.35250000000003107,-0.3950000000000089
18.384999999999998,-0.14600000000002986,-0.3419999999999531,-0.24800000000000427
18.405,0.4000000000000474,-1.220000000000071,-0.17
18.425,0.7700000000000533,-1.6400000000000534,-0.14
18.445,1.0299999999999967,-1.8099999999999983,-0.0866666666666678
18.465,1.6933333333333136,-1.883333333333337,0.16333333333332545
18.485,1.9299999999999822,-1.7350000000000265,0.27499999999999114
18.505,1.9333333333333371,-1.3766666666666865,0.39333333333332543
18.525,1.7066666666666983,-0.8866666666667219,0.5433333333333255
18.544999999999998,1.5845454545454583,-0.6190909090909161,0.5863636363636354
18.564999999999998,1.1866666666666745,0.13999999999998816,0.47666666666667457
18.585,0.9633333333333017,0.34666666666667456,0.2799999999999763
18.605,0.7257142857142915,0.3885714285714271,0.11285714285714576
18.625,0.5318181818181823,0.5422727272727267,0.07
18.645,0.43,0.865,0.30000000000000004
18.665,0.36500000000000443,0.8300000000000088,0.49499999999999555
18.685,0.28666666666667456,0.5833333333333728,0.5066666666666746
18.705,0.17500000000000887,0.20750000000002222,0.3850000000000089
18.724999999999998,-0.07666666666665087,-0.12999999999998818,0.15000000000001185
18.745,-0.2825000000000033,-0.26125000000000165,-0.006875000000002499
18.765,-0.7120000000000171,-0.33,-0.24800000000000427
18.785,-1.0733333333333492,-0.14999999999998817,-0.33
18.805,-1.3633333333333255,0.1999999999999763,-0.35
18.825,-1.5,0.6233333333333136,-0.3233333333333373
18.845,-1.476,0.8200000000000001,-0.3
18.865,-1.43,0.94,-0.28
18.884999999999998,-0.6828571428571573,1.277142857142863,0.034285714285705586
18.905,-0.32947368421052387,1.0915789473684192,0.19421052631579047
18.925,-0.04,0.78,0.31
18.945,0.33,0.1,0.43
18.965,0.5,-0.35,0.43
18.985,0.57,-0.6299999999999822,0.3850000000000089
19.005,0.46,-0.73,0.28
19.025,0.23,-0.66,0.18
19.044999999999998,0.10363636363636672,-0.5790909090909111,0.15454545454545557
19.064999999999998,-0.2533333333333254,-0.14333333333334913,0.03333333333333728
19.085,-0.41,0.19,-0.05
19.105,-0.45,0.38,-0.15
19.125,-0.42,0.42,-0.19
19.145,-0.37399999999999967,0.44,-0.26600000000000035
19.165,-0.32,0.47,-0.4
19.185,-0.33,0.5266666666666627,-0.4
19.205,-0.33,0.59,-0.34
19.224999999999998,-0.2750000000000089,0.59,-0.2750000000000089
19.245,-0.23571428571428535,0.58,-0.26
19.265,-0.21,0.59,-0.27
19.285,-0.32,0.61,-0.16
19.305,-0.36,0.5140000000000029,-0.032000000000001416
19.325,-0.3350000000000009,0.3850000000000027,-0.005000000000000888
19.345,-0.2,0.05,-0.03
19.365,-0.14333333333333728,-0.11666666666666271,-0.01
19.384999999999998,-0.11,-0.19,0.02499999999999112
19.405,-0.08,-0.18,0.03
19.425,-0.09,-0.16,0.02
19.445,-0.09,-0.13558823529411734,0.01558823529411734
19.465,-0.1,-0.13,0.01
19.485,-0.14,0.05444444444444357,-0.02
19.505,-0.18499999999999556,0.06,0.04
19.525,-0.21399999999999944,0.03,0.07
19.544999999999998,-0.21,0.0,0.07999999999996447
19.564999999999998,-0.09000000000001183,-0.01,0.02000000000001184
19.585,-0.03,-0.0,-0.01
19.605,-0.01,0.01,-0.03
19.625,-0.03,0.02,-0.05
19.645,-0.04,0.02,-0.07882352941176532
19.665,-0.07,0.12,-0.12
19.685,-0.06,0.25,-0.05
19.705,-0.02666666666667456,0.3733333333333254,0.08666666666665088
19.724999999999998,0.11999999999985789,0.40000000000003555,0.17999999999996447
19.745,0.29823529411764904,0.13352941176470196,0.22411764705882453
19.765,0.73,-0.77,0.27
19.785,0.64,-0.95,0.3
19.805,0.43,-0.89,0.34
19.825,0.2893939393939408,-0.7693939393939409,0.37
19.845,0.06,-0.54,0.39
19.865,-0.38499999999999557,0.19499999999998668,0.10000000000000889
19.884999999999998,-0.34666666666667456,0.4333333333333254,0.08666666666666271
19.905,-0.13,0.45,0.26
19.925,0.12,0.24,0.37
19.945,0.21440000000000137,0.14559999999999865,0.40480000000000044
19.965,0.32,-0.12,0.4
19.985,0.2566666666666706,-0.26,0.2666666666666706
20.005,0.09,-0.19,0.15
20.025,-0.0442857142857109,-0.11047619047619273,0.07523809523809637
20.044999999999998,-0.35999999999992893,0.03,0.01
20.064999999999998,-0.34333333333333727,0.06333333333333728,0.04
20.085,-0.10666666666665088,-0.23333333333334913,0.05
20.105,0.17,-0.45,0.06
20.125,0.33538461538461584,-0.52,0.07
20.145,0.20500000000000002,-0.365,-0.11
20.165,-0.003999999999988631,-0.10000000000001422,-0.2659999999999972
20.185,-0.30999999999998223,0.3349999999999378,-0.35
20.205,-0.4266666666666509,0.7633333333333018,-0.36
20.224999999999998,-0.5349999999999911,1.1699999999999466,-0.3449999999999911
20.245,-0.5546666666666669,1.358000000000001,-0.35
20.265,-0.63,1.83,-0.34
20.285,-0.53,1.91,0.08
20.305,-0.38,2.04,0.69
20.325,0.003333333333278069,2.309999999999976,1.3766666666666036
20.345,0.2159999999999968,2.307500000000004,1.6419999999999937
20.365,0.9099999999999526,1.080000000000142,2.3066666666666746
20.384999999999998,1.2299999999999762,-0.6833333333331834,1.7500000000000948
20.405,1.5900000000000118,-1.3733333333333253,1.046666666666639
20.425,1.39499999999992,-0.7549999999999023,0.6049999999999733
20.445,1.065714285714279,-0.470476190476186,0.5338095238095233
20.465,-0.61,-0.77,-0.0
20.485,-1.0749999999999913,-1.0850000000000266,-1.1224999999999246
20.505,-1.2466666666666508,0.029999999999834222,-2.253333333333278
20.525,-1.285000000000009,1.7299999999998579,-2.0100000000000886
20.544999999999998,-1.2530434782608701,2.016521739130427,-1.7873913043478322
20.564999999999998,-0.9375000000000067,2.7350000000000665,-1.1575000000000066
20.585,-1.0,2.069999999999805,-1.0100000000000355
20.605,-0.345,0.19,-0.815
20.625,1.3399999999999999,-2.665,-0.19
20.645,1.8033333333333335,-3.06,-0.026666666666666672
20.665,3.005000000000062,-4.979999999999858,0.5650000000000621
20.685,1.9600000000001598,-5.180000000000071,0.045000000000026644
20.705,0.556666666666793,-4.07666666666684,0.11999999999997632
20.724999999999998,-0.4599999999999289,-1.8650000000002398,0.25000000000001776
20.745,-0.6452941176470613,-1.1320588235293976,0.16470588235293873
20.765,-0.6688235294117675,-0.9967647058823375,0.1411764705882326
20.785,-0.235,2.41,-0.235
20.805,-0.275,2.6100000000000003,0.05500000000000001
20.825,-0.5666666666666667,1.3233333333333333,-0.003333333333333341
20.845,-0.5800000000000088,0.5349999999999956,0.30499999999996
20.865,-0.39000000000001184,0.8599999999999763,0.7799999999999881
20.884999999999998,-0.0400000000000533,0.9850000000000089,0.91
20.905,0.4500000000000266,0.7399999999999822,0.8549999999999955
20.925,0.8250000000000266,0.43499999999997335,0.6849999999999734
20.945,0.9075000000000011,0.35374999999999834,0.6024999999999989
20.965,0.6099999999999763,0.32000000000001183,0.18333333333331361
20.985,7.105427357601002e-14,0.7649999999999378,-0.18499999999997335
21.005,-0.47999999999998816,1.4133333333333018,-0.3733333333333254
21.025,-0.55,2.076666666666639,-0.4866666666666627
21.044999999999998,-0.5083333333333343,2.2491666666666643,-0.5258333333333328
21.064999999999998,-0.38,0.5400000000001658,-1.1399999999999526
21.085,-0.7166666666666863,-1.6300000000000592,-1.2633333333333017
21.105,-1.466666666666639,-0.8300000000000948,-0.4866666666666983
21.125,-1.6199999999999999,1.445,-0.275
21.145,-1.5730000000000002,2.1194999999999977,-0.31699999999999984
21.165,-0.9800000000001066,2.610000000000249,-0.08500000000007994
21.185,0.24,0.28,0.6
21.205,2.0666666666666273,-2.8566666666665914,0.9033333333333373
21.224999999999998,2.2700000000000355,-3.52,0.7400000000000178
21.245,2.098421052631577,-3.4505263157894723,0.6478947368421044
21.265,0.8999999999998578,-2.3749999999998845,0.3250000000000089
21.285,-0.576666666666722,-1.0399999999999527,0.6133333333333492
21.305,-0.9833333333333373,-0.26666666666671013,0.6533333333333492
21.325,-0.54,0.55,0.2
21.345,-0.3545000000000056,0.6759999999999968,0.12050000000000241
21.365,0.599999999999929,0.08000000000012436,0.12999999999998224
21.384999999999998,1.2499999999998934,-1.1199999999998107,0.23999999999998814
21.405,1.7166666666666746,-2.1166666666667218,0.18333333333332544
21.425,1.399999999999929,-2.0466666666666034,0.18666666666667456
21.445,0.565,-1.02,0.25
21.465,0.4514285714285714,-0.8300000000000001,0.25
21.485,0.1266666666666627,0.24333333333332544,0.04666666666667456
21.505,0.17,0.26,-0.09
21.525,0.25,0.06,-0.22
21.544999999999998,0.37499999999999556,-0.22999999999998222,-0.21500000000000444
21.564999999999998,0.40142857142856925,-0.3028571428571385,-0.18428571428571536
21.585,0.43,-0.45,-0.01
21.605,0.3466666666666686,-0.2233333333333373,0.17333333333333137
21.625,0.32,-0.17666666666666273,0.19
21.645,0.32,-0.21956521739130536,0.16347826086956488
21.665,0.32,-0.5,-0.12
21.685,0.18500000000001332,-0.5150000000000045,-0.2649999999999956
21.705,-0.12,-0.35,-0.33
21.724999999999998,-0.4199999999999467,-0.08000000000007106,-0.33
21.745,-0.64,0.14,-0.39
21.765,-0.657391304347826,0.16608695652173894,-0.398695652173913
21.785,-0.87,0.40666666666666273,-0.5966666666666627
21.805,-0.9,0.48,-0.63
21.825,-0.83,0.47,-0.57
21.845,-0.72,0.31,-0.47
21.865,-0.7,0.29,-0.46
21.884999999999998,-0.5000000000000119,-0.1199999999999763,-0.39000000000001184
21.905,-0.41,-0.16,-0.41
21.925,-0.34,-0.07,-0.42
21.945,-0.33,-0.06,-0.42
21.965,-0.33,-0.07,-0.42
21.985,-0.27,-0.18,-0.44
22.005,-0.2,-0.23,-0.47
22.025,-0.14,-0.22,-0.5
22.044999999999998,-0.11,-0.2,-0.51
22.064999999999998,-0.09,-0.16,-0.49
22.085,-0.08,-0.1,-0.51
22.105,-0.09,-0.03,-0.54
22.125,-0.07285714285714213,0.037142857142857866,-0.53
22.145,-0.06,0.11,-0.47
22.165,-0.07,0.11944444444444378,-0.4505555555555562
22.185,-0.08,0.06,-0.27
22.205,-0.07,-0.05,-0.17
22.224999999999998,-0.05,-0.17999999999996447,-0.11000000000001776
22.245,-0.009499999999999379,-0.26,-0.029499999999999377
22.265,0.0,-0.26,-0.014999999999991118
22.285,0.08,-0.21,0.08
22.305,0.15,-0.16,0.08
22.325,0.23499999999999555,-0.13,0.06
22.345,0.2666666666666657,-0.12,0.04333333333333432
22.365,0.35,-0.14,0.01
22.384999999999998,0.36,-0.18,0.01
22.405,0.37,-0.21400000000000283,0.0
22.425,0.36,-0.3,-0.0
22.445,0.35,-0.42,0.02
22.465,0.36,-0.45439999999999936,0.02
22.485,0.4024999999999956,-0.5824999999999956,0.08249999999999556
22.505,0.44,-0.57,0.13
22.525,0.44,-0.49,0.17
22.544999999999998,0.43,-0.46200000000000074,0.1720000000000007
22.564999999999998,0.33250000000000446,-0.34,0.19
22.585,0.23666666666666272,-0.2666666666666627,0.19
22.605,0.12,-0.19,0.17
22.625,-0.003333333333337281,-0.05333333333332544,0.14666666666666273
22.645,-0.11666666666667456,0.08666666666667457,0.13
22.665,-0.13692307692307726,0.10692307692307725,0.12307692307692276
22.685,-0.23,0.16,0.09
22.705,-0.19,0.09666666666667456,0.05
22.724999999999998,-0.13750000000000667,0.02750000000000666,0.05
22.745,-0.11,0.0,0.06
22.765,-0.11,0.0,0.06
22.785,-0.11,0.01,0.07
22.805,-0.08,0.08499999999999999,0.07500000000000001
22.825,-0.013333333333349124,-0.0033333333333254384,0.08666666666667457
22.845,0.0713636363636363,-0.08136363636363629,0.08863636363636371
22.865,0.1,-0.09,0.08
22.884999999999998,0.13666666666667457,-0.08666666666667457,0.07
22.905,0.056666666666662716,-0.00666666666666272,0.053333333333337285
22.925,-0.02333333333333728,0.03,0.04
22.945,-0.05,0.04,0.03
22.965,-0.18,0.09,0.02
22.985,-0.21,0.11,0.03
23.005,-0.18666666666667456,0.08666666666667457,0.02666666666667456
23.025,-0.10666666666667457,0.03666666666667456,0.01
23.044999999999998,-0.06,0.01,0.010666666666665088
23.064999999999998,-0.03,-0.004999999999991118,0.025000000000008883
23.085,0.0,-0.02666666666666272,0.02666666666666272
23.105,0.0,0.01,-0.005
23.125,-0.01333333333333728,0.03,-0.03333333333333728
23.145,-0.04,0.04,-0.04666666666666272
23.165,-0.047826086956520936,0.047826086956520936,-0.047826086956520936
23.185,-0.1,0.11333333333332543,-0.04
23.205,-0.16333333333332545,0.16333333333332545,-0.03
23.224999999999998,-0.24249999999999333,0.24249999999999333,-0.01
23.245,-0.3033333333333373,0.3233333333333373,0.02
23.265,-0.31,0.34,0.03
23.285,-0.38,0.53,0.08
23.305,-0.47,0.7,0.095
23.325,-0.6166666666666508,0.8266666666666508,0.20666666666665087
23.345,-0.8210526315789449,0.89,0.38105263157894503
23.365,-0.98,0.81,0.49
23.384999999999998,-1.134999999999991,0.6600000000000178,0.48500000000000887
23.405,-1.086666666666651,0.5633333333333255,0.3166666666666509
23.425,-0.8166666666666272,0.3999999999999763,0.22
23.445,-0.4164285714285669,0.24857142857142675,0.2507142857142866
23.465,-0.035,0.185,0.355
23.485,0.09799999999999787,0.19,0.41899999999999893
23.505,0.22666666666666271,0.2566666666666627,0.53
23.525,0.28,0.3399999999999822,0.58
23.544999999999998,0.38086956521739085,0.47173913043478166,0.5991304347826092
23.564999999999998,0.38956521739130384,0.4891304347826076,0.5904347826086962
23.585,0.7566666666666746,0.7800000000000119,0.46666666666666273
23.605,0.82,0.93,0.5
23.625,0.7333333333333373,0.8400000000000118,0.5833333333333254
23.645,0.7133333333333373,0.7533333333333373,0.8233333333333491
23.665,0.76,0.87,1.31
23.685,0.7649999999999911,0.8400000000000177,2.1899999999999116
23.705,1.0433333333333017,0.5433333333333729,2.581666666666686
23.724999999999998,1.6133333333333255,-0.7266666666666154,1.4433333333333964
23.745,1.3699999999999526,-1.2166666666666508,0.5966666666666272
23.765,0.8299999999999763,-0.8233333333333176,0.2299999999999763
23.785,-0.06999999999999999,-0.705,-0.53
23.805,-1.5583333333332958,-0.2950000000000178,-1.6149999999999702
23.825,-2.380000000000012,0.386666666666639,-2.539999999999988
23.845,-1.5700000000000474,0.5766666666666745,-2.223333333333361
23.865,-0.8700000000000266,0.34000000000001773,-1.6500000000000443
23.884999999999998,-0.4800000000000888,-0.7899999999996092,-0.6100000000002309
23.905,0.376666666666793,-2.596666666666817,0.19000000000004735
23.925,1.61333333333342,-3.226666666666627,0.4266666666666983
23.945,1.88,-1.35,1.1
23.965,1.8514285714285732,-1.0071428571428775,1.1857142857142806
23.985,0.71,0.32,1.2
24.005,-2.783333333333148,1.2699999999998104,-0.5533333333332662
24.025,-2.961176470588237,1.8452941176470592,-0.7941176470588225
24.044999999999998,-1.286666666666722,2.1133333333333018,-2.553333333333349
24.065,-0.8474999999999986,2.520000000000005,-1.9824999999999853
24.085,-0.85,2.6649999999999734,-1.0599999999999468
24.105,-0.7433333333333492,2.1500000000000354,-0.6266666666666864
24.125,-0.41000000000000003,1.2149999999999999,-0.325
24.145,-0.3775000000000011,-0.31249999999999,-0.3
24.165,-0.13571428571429295,-0.6614285714285758,-0.10285714285715156
24.185,0.27,-0.24,0.43
24.205,0.68,0.12,0.56
24.224999999999998,0.81,0.010000000000011843,0.3600000000000118
24.245,0.6252380952380896,-0.15,0.08619047619047168
24.265,0.47,-0.15,-0.01
24.285,-0.44,0.27,-0.22
24.305,-0.5,0.43,-0.33
24.325,-0.4,0.42,-0.39
24.345,-0.32636363636363813,0.15181818181819062,-0.4336363636363619
24.365,-0.22583333333333433,-0.09208333333333284,-0.3237500000000015
24.384999999999998,-0.19000000000007106,-0.11999999999992894,-0.2600000000001421
24.405,-0.21,-0.85,0.61
24.425,-0.3,-1.2,0.71
24.445,0.1366666666666272,-1.113333333333349,0.4200000000000237
24.465,0.81,-0.55,-0.12
24.485,0.85,0.68,-0.63
24.505,0.56,0.82,0.01
24.525,0.84,-0.11,0.67
24.544999999999998,1.0400000000000178,-1.1399999999998578,0.7500000000000533
24.565,0.7751612903225803,-1.2761290322580643,0.5270967741935482
24.585,0.7429032258064506,-1.2503225806451606,0.5077419354838704
24.605,-0.24,-0.18,0.55
24.625,-0.28,0.15,0.47
24.645,-0.01318181818181855,0.16863636363636372,0.32727272727272744
24.665,0.14,0.11,0.27
24.685,0.73,-0.32,-0.13
24.705,0.72,-0.42,-0.22
24.724999999999998,0.570000000000071,-0.33000000000007107,-0.18
24.745,0.37,-0.16,-0.05
24.765,0.18,-0.056666666666666664,0.02
24.785,-0.07,-0.03,0.0
24.805,-0.14,-0.14,-0.03
24.825,-0.09,-0.29,-0.15
24.845,-0.02857142857143147,-0.3814285714285685,-0.21
24.865,0.030999999999999465,-0.42099999999999943,-0.2
24.884999999999998,0.07999999999992895,-0.44,-0.18
24.905,0.2183333333333373,-0.5383333333333373,-0.07166666666666273
24.925,0.28,-0.61,0.01
24.945,0.28,-0.65,-0.006666666666662719
24.965,0.24,-0.628,-0.07
24.985,0.17,-0.55,-0.18
25.005,0.04,-0.42,-0.27
25.025,-0.07,-0.33,-0.34
25.044999999999998,-0.14999999999998814,-0.31,-0.4199999999999763
25.065,-0.19130434782608702,-0.3,-0.47869565217391297
25.085,-0.2,-0.3,-0.47
25.105,-0.27,-0.27,-0.34749999999999776
25.125,-0.24833333333333135,-0.3,-0.22833333333333136
25.145,-0.17,-0.33,-0.14
25.165,-0.10772727272727302,-0.307727272727273,-0.132272727272727
25.185,-0.06,-0.26,-0.17
25.205,0.0,-0.14333333333332546,-0.24
25.224999999999998,0.041249999999997226,-0.17124999999999724,-0.23875000000000277
25.245,0.06,-0.2233333333333373,-0.2
25.265,0.04,-0.19793103448275853,-0.21206896551724147
25.285,0.04,-0.19103448275862073,-0.21896551724137928
25.305,-0.07250000000000223,0.03250000000000222,-0.3274999999999978
25.325,-0.11,0.05,-0.3
25.345,-0.11,-0.011249999999997224,-0.27
25.365,-0.1,-0.07185185185185142,-0.25814814814814857
25.384999999999998,-0.1,-0.07925925925925839,-0.2507407407407416
25.405,-0.16,0.08,-0.18
25.425,-0.17,0.12,-0.07
25.445,-0.15,0.09888888888888758,-0.01
25.465,-0.13,0.05722222222222288,0.01
25.485,-0.11,0.03,0.03
25.505,-0.04,0.02,0.04
25.525,0.03249999999999556,0.02750000000000444,0.03
25.544999999999998,0.08,0.01,0.04
25.565,0.13,-0.04,0.03
25.585,0.17333333333333728,-0.10333333333333729,0.03666666666666272
25.605,0.17,-0.11499999999999999,0.04
25.625,0.15,-0.13,0.055
25.645,0.13,-0.13571428571428645,0.07
25.665,0.13,-0.14,0.06
25.685,0.16666666666666272,-0.14,0.06
25.705,0.23333333333332545,-0.19,0.05
25.724999999999998,0.28,-0.23,0.04333333333332544
25.745,0.3,-0.24,0.06571428571428645
25.765,0.32,-0.23666666666666666,0.08
25.785,0.32,-0.195,0.08
25.805,0.3,-0.14,0.07
25.825,0.26,-0.11800000000000425,0.04
25.845,0.20666666666667455,-0.09,0.04
25.865,0.16250000000000334,-0.06,0.05
25.884999999999998,0.09666666666667456,-0.03,0.08
25.905,0.056666666666662716,-0.02,0.09333333333333728
25.925,0.02,-0.01,0.09499999999999112
25.945,0.01,0.0,0.06799999999999859
25.965,0.01,0.0,0.02
25.985,0.02,-0.01,-0.01
26.005,0.02,-0.01,-0.005000000000008882
26.025,0.02,-0.02,0.01
26.044999999999998,0.05049999999999885,-0.04,0.03
26.065,0.07,-0.05,0.04
26.085,0.13,-0.08500000000000887,0.07
26.105,0.12,-0.08,0.07
26.125,0.1,-0.06,0.08
26.145,0.1,-0.07,0.09
26.165,0.12,-0.08241379310344756,0.09
26.185,0.12,-0.08931034482758536,0.09
26.205,0.18,-0.14333333333332546,0.09
26.224999999999998,0.16,-0.13666666666666866,0.07
26.245,0.11,-0.09,0.05
26.265,0.06684210526315751,-0.0568421052631575,0.03
26.285,0.02,-0.03,0.01
26.305,-0.005,-0.02,0.0
26.325,-0.03,0.0,0.002499999999995559
26.345,-0.03,0.02,0.01
26.365,-0.03,0.02,0.02
26.384999999999998,-0.03,0.02,0.028260869565216784
26.405,0.0,0.01,0.04
26.425,0.02,-0.005000000000008882,0.02
26.445,0.018571428571427122,0.0,0.018571428571427122
26.465,-0.02,0.02,0.01
26.485,-0.06,0.05,0.01
26.505,-0.06,0.06,0.01
26.525,-0.04,0.07,0.01
26.544999999999998,-0.007500000000004441,0.07,-0.007500000000004441
26.565,0.01,0.05,-0.01
26.585,0.02,0.01,-0.0
26.605,-0.0,0.0,-0.0
26.625,-0.03,0.02,-0.01
26.645,-0.06,0.05,-0.02
26.665,-0.08,0.05,-0.03749999999999778
26.685,-0.1,0.07,-0.04
26.705,-0.1,0.08,-0.05
26.724999999999998,-0.08,0.08,-0.04
26.745,-0.05642857142857034,0.06642857142857034,-0.02
26.765,-0.04,0.06,0.0
26.785,-0.02,0.03,0.01
26.805,-0.026666666666662717,0.01,0.01
26.825,-0.04,0.02,0.01399999999999858
26.845,-0.05,0.03399999999999858,0.01
26.865,-0.04,0.04,0.01
26.884999999999998,-0.04,0.04,0.01
26.905,0.02,-0.02,-0.016666666666674563
26.925,0.03,-0.04,-0.05
26.945,0.007142857142857869,-0.04,-0.08285714285714213
26.965,-0.03,-0.027500000000000444,-0.1
26.985,-0.05,0.0,-0.09
27.005,-0.03,-0.01,-0.08
27.025,0.02,-0.06,-0.05
27.044999999999998,0.07285714285714069,-0.11285714285714069,-0.03
27.065,0.1,-0.1523529411764712,-0.01
27.085,0.1,-0.1582352941176471,-0.01
27.105,-0.0,-0.07,0.0
27.125,-0.12,0.05,0.02
27.145,-0.18,0.1,0.04
27.165,-0.3114285714285685,0.20571428571428427,0.09571428571428427
27.185,-0.4039999999999994,0.27799999999999886,0.13399999999999945
27.205,-0.53,0.39,0.21
27.224999999999998,-0.58,0.4574999999999956,0.30749999999999555
27.245,-0.55,0.45,0.36
27.265,-0.54,0.46,0.37
27.285,-0.34,0.32,0.47
27.305,-0.17,0.13,0.55
27.325,-0.008000000000005685,-0.057999999999991475,0.5959999999999971
27.345,0.1316666666666627,-0.2216666666666627,0.62
27.365,0.16,-0.28,0.5777272727272733
27.384999999999998,0.16,-0.27000000000003554,0.5500000000000711
27.405,0.16,-0.05,0.48
27.425,0.13249999999999557,0.04750000000000444,0.47249999999999553
27.445,0.06399999999999859,0.11200000000000285,0.41799999999999715
27.465,-0.017272727272726978,0.207272727272727,0.3463636363636365
27.485,-0.07,0.27,0.3
27.505,0.07999999999997633,-0.03999999999995263,0.3033333333333254
27.525,0.2924999999999933,-0.36499999999999555,0.44499999999999557
27.544999999999998,0.42285714285714066,-0.41428571428571864,0.5328571428571407
27.565,0.4845454545454557,-0.17727272727272142,0.6190909090909115
27.585,0.4566666666666627,0.3500000000000237,0.7233333333333373
27.605,0.34333333333332544,0.7633333333333492,0.7466666666666627
27.625,0.21000000000000002,0.955,0.685
27.645,0.1,0.95,0.59
27.665,0.1,1.05,0.54
27.685,0.2005263157894725,1.3415789473684177,0.5905263157894725
27.705,0.4,1.6100000000000239,1.0666666666666273
27.724999999999998,0.41,1.0325000000000577,1.4474999999999778
27.745,0.7700000000000711,-0.17666666666679298,1.8633333333333728
27.765,1.6800000000000102,-1.1685714285714366,2.0257142857142845
27.785,2.3087500000000025,-1.5006250000000008,1.751874999999998
27.805,1.8833333333332662,-1.3099999999999763,1.3966666666666745
27.825,0.43500000000007993,-1.0749999999999913,1.2150000000000443
27.845,-0.9199999999998579,-1.3333333333333017,-0.0066666666665087665
27.865,-2.019999999999991,-1.2687500000000027,-1.24249999999999
27.884999999999998,-2.8014285714285605,-0.7342857142857273,-2.1557142857142724
27.905,-2.8133333333333015,0.5033333333333373,-2.0933333333333017
27.925,-2.1349999999999554,-0.26500000000007995,-1.477499999999969
27.945,-0.9442857142857288,-2.20285714285712,-1.2642857142857136
27.965,0.2111111111111006,-4.01888888888887,-1.35
27.985,0.8533333333333412,-4.613333333333448,-1.01
28.005,0.1850000000000977,-1.5150000000003288,-0.9800000000000177
28.025,-0.4533333333332781,0.7666666666665324,-0.6266666666667219
28.044999999999998,-1.0299999999999778,1.1900000000000044,-0.12500000000000666
28.065,-1.9373684210526374,1.3084210526315825,-0.18263157894737
28.085,-2.5499999999999643,3.0650000000002047,-0.7000000000000355
28.105,-1.8199999999999528,4.160000000000012,-0.7099999999999881
28.125,-0.7749999999999689,3.784999999999978,-0.24249999999998445
28.145,0.35,2.67,0.17
28.165,1.16,1.65,0.04
28.185,1.3738461538461526,1.2653846153846184,-0.1338461538461526
28.205,1.0300000000000533,0.9050000000000089,0.004999999999973354
28.224999999999998,0.6200000000000266,0.77250000000002,0.33749999999998004
28.245,0.009999999999964475,0.12999999999998224,0.47
28.265,-0.6330769230769273,0.11538461538461454,0.26230769230768725
28.285,-0.6799999999999999,0.11499999999999999,-0.38
28.305,-0.63,0.175,-0.76
28.325,-0.53,0.22,-0.69
28.345,-0.05666666666672193,0.33333333333334914,-0.3066666666666983
28.365,0.41,0.12,-0.24
28.384999999999998,0.593571428571422,-0.0692857142857034,-0.3157142857142814
28.405,0.5599999999999823,-0.35500000000000886,-0.3849999999999911
28.425,0.42,-0.27,-0.15
28.445,0.21714285714285425,-0.3985714285714322,0.06571428571428645
28.465,-0.14235294117647354,-0.832941176470592,0.14058823529411837
28.485,-0.9449999999999734,-0.6600000000000887,-0.14999999999992894
28.505,-1.256666666666639,0.776666666666568,-0.8766666666666391
28.525,-1.7939999999999916,2.8279999999999688,-0.99200000000001
28.544999999999998,-1.780000000000071,3.815000000000062,0.2899999999998224
28.565,-0.876666666666639,2.505555555555511,1.401111111111128
28.585,0.590952380952389,0.20095238095236873,1.7695238095238088
28.605,1.855,-2.45,0.905
28.625,1.3866666666666982,-2.0300000000000473,0.7533333333333373
28.645,0.748571428571422,-0.917142857142844,0.6385714285714271
28.665,0.29000000000000004,0.09000000000000001,0.515
28.685,-0.06,0.83,0.64
28.705,0.016666666666662718,0.19666666666671012,0.73
28.724999999999998,0.10499999999999557,-0.5249999999999689,0.6100000000000089
28.745,0.23500000000002663,-0.8750000000000266,0.4249999999999911
28.765,0.4750000000000444,-0.9850000000000089,0.33499999999999114
28.785,0.7672727272727258,-0.9745454545454548,0.2845454545454548
28.805,1.07,-0.5066666666666864,0.1
28.825,0.9480000000000043,-0.08600000000000853,0.04
28.845,0.6050000000000444,0.32499999999997337,-0.06499999999999112
28.865,0.09000000000007105,0.35000000000001774,-0.1749999999999911
28.884999999999998,-0.42999999999996447,0.23000000000001775,-0.31999999999998224
28.905,-0.59,-0.06333333333337281,-0.5700000000000237
28.925,-0.65,-0.3550000000000133,-0.7800000000000089
28.945,-0.7028571428571457,-0.46,-0.86
28.965,-0.76,-0.455,-0.81
28.985,-0.7507692307692316,-0.37076923076923163,-0.6723076923076948
29.005,-0.4833333333333491,-0.24,-0.46333333333333726
29.025,-0.09,-0.4,-0.44
29.044999999999998,0.4899999999999899,-0.8199999999999898,-0.40428571428571575
29.065,0.9115384615384692,-1.251538461538469,-0.3330769230769218
29.085,1.154999999999991,-1.4949999999999912,-0.15999999999998224
29.105,0.96,-1.21,-0.09
29.125,0.6366666666666864,-0.8166666666666864,-0.08333333333333728
29.145,0.2866666666666864,-0.5566666666666745,-0.04333333333333728
29.165,0.11,-0.52,-0.01
29.185,-0.03333333333333333,-0.5466666666666667,0.0
29.205,-0.23,-0.49,-0.14
29.224999999999998,-0.32499999999999557,-0.26500000000001334,-0.2749999999999956
29.245,-0.39,-0.03,-0.42
29.265,-0.4,0.04,-0.49
29.285,-0.3736842105263162,0.033684210526316184,-0.5163157894736838
29.305,-0.26,-0.08,-0.47
29.325,-0.19,-0.1566666666666627,-0.34666666666667456
29.345,-0.14,-0.23,-0.18
29.365,-0.1,-0.28,-0.05
29.384999999999998,-0.04000000000003553,-0.3299999999999645,0.019999999999964473
29.405,-0.29,-0.46,-0.02
29.425,-0.58,-0.2,-0.08
29.445,-0.7,0.16,-0.15
29.465,-0.66,0.3,-0.2
29.485,-0.5637500000000006,0.33,-0.1918750000000003
29.505,-0.23,0.26,-0.07
29.525,-0.005000000000004442,0.12500000000000444,0.01749999999999778
29.544999999999998,0.1749999999999911,-0.009999999999982237,0.09
29.565,0.31,-0.19,0.12
29.585,0.3376470588235307,-0.23764705882353063,0.12764705882353064
29.605,0.32,-0.31,0.16
29.625,0.33,-0.39,0.24
29.645,0.3762499999999994,-0.4924999999999989,0.29624999999999946
29.665,0.4290909090909079,-0.5981818181818158,0.34
29.685,0.51,-0.67,0.43
29.705,0.54,-0.63,0.48
29.724999999999998,0.5325000000000044,-0.5525000000000044,0.49
29.745,0.47,-0.47,0.45
29.765,0.43,-0.4,0.41
29.785,0.3853571428571426,-0.3107142857142853,0.3553571428571426
29.805,0.27,-0.05,0.28
29.825,0.22250000000000222,0.20249999999999332,0.26250000000000223
29.845,0.16,0.43,0.22
29.865,0.14,0.52,0.15
29.884999999999998,0.15,0.5118750000000021,0.09187500000000208
29.905,0.15,0.502272727272727,0.09
29.925,-0.01,0.6820000000000028,0.12799999999999717
29.945,-0.08333333333333728,0.76,0.07
29.965,-0.23,0.76,0.02
29.985,-0.30148148148148135,0.7285185185185187,0.00851851851851864
30.005,-0.30518518518518506,0.7248148148148149,0.004814814814814912
30.025,-0.3088888888888888,0.7211111111111111,0.0011111111111111842
30.044999999999998,-0.5071428571428528,0.4114285714285736,-0.15
30.065,-0.6143750000000004,0.3518749999999998,-0.16
30.085,-0.8133333333333349,0.3216666666666675,-0.17
30.105,-0.8266666666666674,0.32833333333333375,-0.17
30.125,-0.8,0.59,-0.15
30.145,-0.31,0.91,-0.09
30.165,0.043333333333301756,0.7600000000000237,-0.05
30.185,0.28,0.41,-0.05
30.205,0.42,0.04666666666669825,-0.05333333333332544
30.224999999999998,0.40666666666667456,-0.11333333333332543,-0.046666666666674565
30.245,0.3066666666666627,-0.11666666666666271,0.003333333333337281
30.265,0.20272727272726979,-0.07,0.053636363636365106
30.285,0.04333333333333728,-0.01,0.14333333333333137
30.305,-0.07,0.03,0.19
30.325,-0.23999999999999555,0.11499999999999777,0.2
30.345,-0.41749999999999776,0.20749999999999777,0.16250000000000223
30.365,-0.52,0.31,0.12
30.384999999999998,-0.5899999999999911,0.42999999999998223,0.08000000000000888
30.405,-0.73,0.66,-0.01
30.425,-0.77,0.7300000000000013,-0.03
30.445,-0.7955555555555542,0.7811111111111085,-0.04
30.465,-0.8560000000000014,0.8760000000000014,-0.05
30.485,-0.89,0.8650000000000089,-0.06
30.505,-0.44,0.28,0.27
30.525,-0.03750000000002221,-0.14999999999998226,0.32
30.544999999999998,0.2043999999999957,-0.33079999999999676,0.29640000000000105
30.565,0.3160000000000064,-0.4060000000000064,0.28
30.585,0.57,-0.59,0.24
30.605,0.67,-0.57,0.23
30.625,0.6366666666666627,-0.2666666666666509,0.17666666666666273
30.645,0.6,0.051999999999994315,0.13200000000000142
30.665,0.62,0.36999999999998223,0.09
30.685,0.5850000000000088,0.31500000000002665,0.005000000000008882
30.705,0.48500000000000887,0.21499999999999111,-0.13499999999997336
30.724999999999998,0.4566666666666509,0.4299999999999526,-0.16333333333334912
30.745,0.5233333333333254,0.8366666666666863,0.28000000000003555
30.765,0.2549999999999556,1.8000000000001244,1.14500000000008
30.785,-0.42249999999997556,2.6024999999999845,1.6749999999999865
30.805,-0.96,2.96,2.065
30.825,-0.730000000000071,2.5600000000001066,1.8700000000000534
30.845,0.354999999999849,1.335000000000151,1.4100000000000354
30.865,1.5149999999999024,-0.07499999999986677,1.3049999999999913
30.884999999999998,1.9350000000000265,-1.1599999999999113,1.3949999999999911
30.905,1.1149999999998668,-1.2799999999999823,1.0699999999999112
30.925,0.10999999999992896,-1.4200000000000237,0.0733333333332307
30.945,-0.255,-1.4849999999999999,-0.74
30.965,-0.55,-1.255,-1.145
30.985,-1.663333333333337,-2.3933333333332545,-2.06333333333329
31.005,-1.5266666666666509,-3.9133333333332665,-2.56
31.025,-2.096666666666639,-5.293333333333278,-2.0400000000000476
31.044999999999998,-2.7999999999999883,-4.650000000000047,-1.4066666666666983
31.065,-2.5499999999999288,-2.8333333333331123,-0.8133333333332781
31.085,-1.566666666666556,-0.7566666666665087,-0.5166666666666746
31.105,-0.5266666666667101,0.30333333333327805,-1.0133333333333017
31.125,0.1333333333333136,1.4399999999999527,-1.4
31.145,-0.11333333333330176,2.1999999999999647,-1.083333333333361
31.165,-0.8766666666666272,3.2566666666666033,-0.5566666666666864
31.185,-1.5699999999999763,4.339999999999977,-0.4166666666666627
31.205,-1.483333333333361,3.7533333333333845,-0.4366666666666746
31.225,-0.2533333333331833,1.5833333333330175,-0.22666666666665086
31.245,1.1300000000000947,-1.0966666666668166,-0.20333333333334913
31.265,1.6500000000000117,-1.57,-0.31666666666665877
31.285,1.6266666666666747,-1.1100000000000356,-0.006666666666686402
31.305,1.223333333333361,-0.19000000000004735,0.4433333333333136
31.325,0.5766666666666983,0.8366666666666154,0.7066666666666627
31.345,0.033333333333349126,1.5399999999999763,0.6100000000000119
31.365,-0.12,1.78,0.4
31.384999999999998,0.09999999999992895,1.4300000000000888,0.05000000000007106
31.405,0.32,0.82,-0.21
31.425,0.4466666666666746,0.4299999999999763,-0.09333333333330175
31.445,0.5466666666666627,0.3066666666666627,0.24333333333331358
31.465,0.77,0.46,0.53
31.485,1.2033333333333136,0.3000000000000355,0.5866666666666746
31.505,1.19,-0.74,0.19
31.525,0.03,-2.62,0.09
31.544999999999998,-1.1166666666666272,-3.5999999999999646,0.18666666666667456
31.565,-1.72,-3.42,-0.37
31.585,-1.22,0.53,-0.68
31.605,-0.37,3.15,-0.19
31.625,0.5,3.78,0.32
31.645,1.99,0.28,0.54
31.665,4.01,-5.38,0.53
31.685,3.69,-5.78,-0.03
31.705,2.75,-4.08,-0.48
31.725,1.53,-1.99,-0.8
31.745,0.3149999999999334,-0.029999999999893417,-0.9850000000000044
31.765,-0.73,1.69,-1.08
31.785,-1.3,2.38,-1.11
31.805,-1.72,2.29,-1.34
31.825,-1.68,1.68,-1.68
31.845,-1.42,1.78,-2.0
31.865,-1.18,2.5,-1.82
31.884999999999998,-1.1899999999999644,3.209999999999911,-1.3800000000000887
31.905,-1.21,3.16,-1.14
31.925,-0.95,2.4,-1.07
31.945,-0.44,1.78,-1.14
31.965,0.14,1.57,-1.15
31.985,0.59,1.61,-1.11
32.005,0.9,1.52,-1.26
32.025000000000006,1.1600000000001065,1.309999999999929,-1.6000000000001067
32.045,1.29,1.17,-1.76
32.065000000000005,1.2199999999999644,1.1400000000000354,-1.75
32.085,1.09,1.35,-1.68
32.105000000000004,0.929999999999929,1.8000000000001066,-1.6700000000000355
32.125,0.84,1.98,-1.76
32.145,0.76,1.88,-1.79
32.165000000000006,0.7200000000000355,1.5899999999998224,-1.6899999999998934
32.185,0.78,1.26,-1.46
32.205000000000005,0.8966666666666746,1.16,-1.2733333333333254
32.225,1.07,1.46,-1.22
32.245000000000005,1.0499999999998935,2.010000000000213,-1.2900000000000356
32.265,0.68,2.47,-1.31
32.285000000000004,0.3199999999998934,2.6700000000000355,-1.33
32.305,0.25,2.74,-1.28
32.325,0.2633333333333373,2.78,-1.2066666666666628
32.345000000000006,0.36000000000007104,2.6099999999997157,-1.069999999999858
32.365,0.44,2.1709090909090794,-0.8890909090909047
32.385000000000005,0.44750000000000667,2.0674999999999533,-0.8399999999999733
32.405,0.42,1.46,-0.33
32.425000000000004,0.5633333333333491,0.543333333333278,-0.3433333333333491
32.445,0.6342857142857158,0.30285714285713705,-0.41
32.465,0.51,0.9,-0.07
32.48500000000001,0.41,1.4500000000000117,0.33000000000003554
32.505,0.3199999999999763,1.4066666666666507,0.4466666666666746
32.525000000000006,0.09052631578946502,1.2378947368420987,0.40789473684209876
32.545,-0.09,1.24,0.29
32.565000000000005,-0.0999999999998579,1.1799999999997157,0.21000000000007105
32.585,-0.03291666666666568,1.0387499999999972,0.21708333333333432
32.605000000000004,0.0,0.9385714285714221,0.22
32.625,-0.09,0.61,0.18
32.645,-0.31799999999999146,-0.09000000000004263,-0.06600000000002558
32.665000000000006,0.040000000000047366,0.18666666666674564,-0.23666666666665087
32.685,-0.81,0.24,-0.13
32.705000000000005,-1.0899999999998935,0.11000000000007105,-0.10000000000003553
32.725,-0.72,0.54,-0.3
32.745000000000005,-0.38999999999995266,0.8866666666666508,-0.8066666666667456
32.765,-0.14,0.42,-1.11
32.785000000000004,0.3800000000003553,-0.02999999999950262,-1.3700000000000712
32.805,0.81,1.1433333333332307,-1.2100000000000473
32.825,0.44666666666655613,1.2366666666665087,-0.47333333333315963
32.845000000000006,0.06999999999998478,0.6099999999999899,0.2500000000000355
32.865,-0.16,0.87,0.76
32.885000000000005,-0.47000000000009473,1.3600000000000712,0.97
32.905,-0.67,1.48,0.81
32.925000000000004,-0.7833333333333492,0.6833333333331596,0.28333333333320704
32.945,-0.6266666666666982,0.35666666666665087,-0.2666666666666272
32.965,-0.11999999999992896,0.2674999999999556,-0.3474999999999911
32.98500000000001,0.47000000000024866,-0.15000000000010658,-0.22999999999992896
33.005,1.0500000000000949,-0.18666666666665088,-0.14333333333334913
33.025000000000006,1.403333333333349,0.006666666666698246,-0.26333333333334913
33.045,1.3733333333333018,0.05333333333330175,-0.33333333333334914
33.065000000000005,1.2299999999999716,-0.04,-0.35
33.085,1.09,-0.0,-0.33
33.105000000000004,0.9599999999999715,0.09000000000001421,-0.18999999999997158
33.125,0.8350000000000088,0.18,0.054999999999991125
33.145,1.24,0.315,0.18
33.165000000000006,1.9533333333333491,-0.22000000000004735,0.06333333333334912
33.185,1.58499999999984,0.0900000000001421,0.18000000000003552
33.205000000000005,0.7699999999997869,0.49,0.31500000000001777
33.225,0.014999999999875654,0.6300000000000711,0.5450000000000887
33.245000000000005,-0.3533333333333491,0.7166666666666508,0.7633333333333492
33.265,-0.2400000000000237,0.5566666666666982,0.74
33.285000000000004,-0.0024999999999600325,0.17249999999990673,0.7374999999999867
33.305,0.11025974025973506,-0.04389610389609491,0.6933766233766248
33.325,0.18558441558442396,-0.17376623376624817,0.6725974025974003
33.345000000000006,0.26090909090911285,-0.3036363636364014,0.6518181818181757
33.365,0.33623376623377493,-0.4335064935065085,0.6310389610389586
33.385000000000005,-0.08200000000002274,-0.14,0.06399999999998864
33.405,-0.14,-0.18,-0.060000000000000005
33.425000000000004,-0.19,-0.31,-0.16000000000002368
33.445,-0.22428571428571575,-0.3057142857142843,-0.22428571428571575
33.465,-0.25,-0.18799999999999786,-0.27
33.48500000000001,-0.25,-0.1639999999999659,-0.26199999999998297
33.505,-0.08,0.13,-0.19
33.525000000000006,0.0014285714285736037,0.047142857142852795,-0.18
33.545,0.03,-0.08499999999999999,-0.18
33.565000000000005,0.08250000000001333,-0.027499999999986677,-0.21250000000001332
33.585,0.12727272727272787,-0.027272727272727858,-0.24
33.605000000000004,0.08999999999996447,0.005000000000017764,-0.18499999999998223
33.625,-0.025,0.13,-0.07500000000000001
33.645,-0.11500000000000887,0.24500000000000888,-0.06500000000000888
33.665000000000006,-0.14500000000003554,0.15499999999996447,-0.10500000000003554
33.685,-0.16,0.019999999999964473,-0.13
33.705000000000005,-0.16,0.03666666666667456,-0.0033333333333254384
33.725,-0.12,0.08,0.09
33.745000000000005,-0.06499999999999112,0.04,0.06499999999999112
33.765,-0.03,-0.06333333333334913,0.0033333333333254384
33.785000000000004,-0.055000000000017764,-0.14,-0.0049999999999822365
33.805,-0.135,-0.08,0.08499999999999999
33.825,-0.17,0.0,0.16
33.845000000000006,-0.15,0.04,0.11999999999992894
33.865,-0.1366666666666509,0.0,0.05666666666665088
33.885000000000005,-0.1,-0.04500000000001776,0.01
33.905,-0.09,-0.05,0.0
33.925000000000004,-0.11,0.06400000000000852,0.024000000000008525
33.945,-0.17,0.046666666666650876,0.01
33.965,-0.16,-0.01,0.01
33.98500000000001,-0.061999999999982944,-0.038000000000017055,0.03
34.005,-0.04,-0.04,0.01
34.025000000000006,-0.02,-0.06000000000001184,0.03
34.045,-0.02,-0.06,0.052222222222224855
34.065000000000005,-0.05666666666667456,0.046666666666674565,0.09666666666667456
34.085,-0.06333333333332544,0.07,0.16666666666667457
34.105000000000004,0.030000000000047367,0.1,0.24
34.125,0.185,0.14,0.26
34.145,0.2925000000000022,0.2950000000000044,0.27250000000000224
34.165000000000006,0.3800000000000237,0.48000000000007104,0.3500000000000237
34.185,0.4,0.6933333333333728,0.40666666666667456
34.205000000000005,0.05999999999988157,1.7100000000000948,0.8400000000001184
34.225,-0.31,1.96,1.2
34.245000000000005,-0.4926666666666698,2.125999999999995,1.36
34.265,-0.59,1.72,1.23
34.285000000000004,-0.47999999999995263,1.3899999999998816,0.9699999999999053
34.30500000000001,-0.27999999999990527,0.9299999999998579,0.649999999999929
34.325,0.0,0.5,0.41
34.345000000000006,0.19100000000000142,0.1859999999999943,0.23899999999999857
34.365,0.23,-0.07,0.12
34.385000000000005,0.13999999999995263,-0.12,0.16000000000004738
34.405,0.0,-0.13,0.32
34.425000000000004,-0.10000000000001184,-0.07999999999998816,0.4700000000000118
34.445,-0.17166666666666866,0.0016666666666686405,0.5516666666666686
34.465,-0.2,0.10500000000000889,0.59
34.48500000000001,-0.17,0.12,0.5399999999999764
34.505,-0.08,0.07,0.47
34.525000000000006,0.0,0.05,0.3999999999999763
34.545,0.03,0.07750000000000444,0.35
34.565000000000005,0.05,0.07,0.36
34.585,0.03,0.12666666666667456,0.34
34.605000000000004,-0.02,0.23,0.3500000000000355
34.625,-0.04,0.3,0.46
34.645,0.1333333333333965,0.3466666666666035,0.5266666666666509
34.665000000000006,0.3000000000000237,0.06999999999995264,0.4399999999999763
34.685,0.3,-0.04,0.32
34.705000000000005,0.10999999999989342,-0.13000000000003553,0.20999999999996447
34.725,0.0,-0.03999999999997632,0.19666666666667457
34.745000000000005,-0.06500000000000888,0.11,0.28250000000000447
