timestamp,gyro_x,gyro_y,gyro_z
0.019,-1.05,0.12,-0.59
0.039,-0.585,-0.015,-0.495
0.059,-0.34750000000000003,-0.05750000000000001,-0.5275
0.079,-0.26,-0.08,-0.61
0.099,-0.20210526315789473,-0.014210526315789469,-0.8178947368421052
0.11900000000000001,0.08333333333333338,-0.1766666666666666,-0.94
0.13899999999999998,0.2799999999999998,0.009999999999999815,-0.98
0.159,0.6166666666666667,0.36333333333333334,-0.89
0.179,0.6878947368421052,0.46684210526315784,-0.8510526315789474
0.19899999999999998,1.3699999999999983,0.48000000000000137,-0.4500000000000017
0.219,1.8866666666666667,0.20333333333333334,0.03
0.239,1.5833333333333333,-0.31666666666666665,-0.6566666666666666
0.259,0.6325000000000001,1.0425,-1.0550000000000002
0.279,0.55,0.66,-1.0
0.29900000000000004,-0.5800000000000083,0.8799999999999994,-1.480000000000001
0.319,-1.39,-0.05,-1.37
0.339,-1.35,-1.3333333333333333,-0.6799999999999999
0.35900000000000004,-1.0099999999999993,-1.9449999999999992,0.0900000000000011
0.379,-1.12,-1.62,0.16
0.399,-1.0583333333333333,-0.9588888888888889,-0.09333333333333334
0.41900000000000004,-0.3049999999999986,-0.3599999999999989,-0.3449999999999992
0.439,0.07,-0.07666666666666666,-0.15666666666666668
0.459,0.33999999999999997,-0.026666666666666665,-0.11
0.47900000000000004,0.44,-0.02,-0.1700000000000003
0.499,0.16,-0.345,-0.31
0.519,-0.006666666666666666,-1.26,-0.45333333333333337
0.539,0.278,-1.772,-0.298
0.559,-0.225,-0.5549999999999999,-0.08499999999999999
0.5790000000000001,-0.3700000000000018,-0.06999999999999224,-0.08000000000000038
0.599,-0.27,-0.05333333333333333,-0.32333333333333336
0.619,0.215,-1.1400000000000001,-0.505
0.639,0.51,-2.375,-0.765
0.659,0.405,-3.04,-1.01
0.679,0.07687499999999999,-3.12,-1.19125
0.6990000000000001,-0.22000000000000075,-3.0399999999999983,-1.0899999999999979
0.7190000000000001,-0.4600000000000022,-2.7649999999999983,-0.5949999999999972
0.739,-0.925,-2.5,-0.18
0.759,-1.7333333333333334,-2.12,0.0033333333333333335
0.779,-2.2666666666666666,-1.64,0.11666666666666667
0.799,-2.24,-1.31,0.245
0.8190000000000001,-2.1750000000000007,-1.6400000000000032,0.09999999999999667
0.8390000000000001,-2.6533333333333373,-2.030000000000001,-0.24333333333333407
0.859,-3.685,-1.65,-0.28
0.879,-4.057142857142857,-0.5771428571428571,-0.12285714285714286
0.899,-3.5549999999999997,-0.33,0.125
0.919,-3.09,-0.445,0.07
0.9390000000000001,-3.2100000000000004,-0.2733333333333332,0.12000000000000037
0.9590000000000001,-3.3299999999999987,-0.61000000000001,0.39000000000000223
0.979,-3.21,-1.38,0.43
0.999,-3.2433333333333336,-1.7666666666666668,0.5233333333333334
1.019,-3.1033333333333344,-1.7166666666666672,0.6633333333333329
1.039,-2.7149999999999994,-1.3600000000000065,0.22000000000000774
1.059,-2.8766666666666674,-1.6966666666666657,0.2033333333333284
1.079,-3.2099999999999946,-0.9350000000000094,1.3749999999999973
1.099,-3.9066666666666654,-0.8366666666666654,1.5566666666666655
1.119,-4.22,-1.233333333333332,1.9233333333333327
1.139,-4.246666666666666,-1.6800000000000015,1.9733333333333332
1.159,-3.9166666666666656,-2.1266666666666683,1.6166666666666654
1.1789999999999998,-3.2133333333333387,-2.9399999999999955,1.2166666666666686
1.1989999999999998,-2.1900000000000075,-3.524999999999998,0.9050000000000028
1.2189999999999999,-1.2200000000000044,-3.0900000000000265,0.43000000000000554
1.2389999999999999,-0.85000000000001,-2.1999999999999993,0.26000000000000556
1.259,-0.31,-2.4,-0.1
1.279,0.3,-2.57,-0.66
1.299,0.9163636363636363,-2.3663636363636367,-0.7663636363636365
1.319,1.6699999999999984,-2.0366666666666684,-0.2500000000000022
1.339,1.6820000000000004,-0.934000000000003,0.1059999999999996
1.359,1.44,1.04,0.73
1.379,1.5028124999999999,0.48187500000000016,1.0540625
1.399,1.5090625,0.4193749999999997,1.0853125000000001
1.419,1.363333333333334,1.233333333333336,1.0199999999999994
1.4389999999999998,1.3937499999999998,1.3570833333333328,0.9704166666666669
1.4589999999999999,1.2366666666666675,1.5799999999999996,0.05333333333333449
1.4789999999999999,0.8600000000000011,2.124999999999994,-0.38500000000000056
1.4989999999999999,0.7033333333333339,2.6133333333333333,-0.243333333333334
1.519,0.376,2.404,-0.034
1.539,-0.33,1.66,-0.62
1.559,-0.29,1.81,-1.06
1.579,0.85,0.07,-1.16
1.599,2.66,-3.64,-1.27
1.619,1.05,-2.31,-0.87
1.639,-0.54,-0.76,0.23
1.659,-1.03,-0.15,0.13
1.679,-0.9,-0.37,-0.64
1.6989999999999998,-0.9899999999999994,-0.35000000000000075,-0.49000000000000143
1.7189999999999999,-1.110000000000009,0.08999999999999556,0.4199999999999933
1.7389999999999999,-0.8800000000000033,0.015000000000001665,0.40000000000000113
1.759,-0.4283333333333335,-0.6116666666666654,0.10833333333333352
1.779,-0.5119999999999993,-1.0659999999999987,0.02
1.799,-1.09,-1.58,0.2
1.819,-1.3149999999999995,-1.7912499999999991,0.26749999999999974
1.839,-1.0592307692307692,-2.5276923076923077,0.2523076923076923
1.859,-0.84,-2.92,0.2
1.879,-0.009999999999997778,-3.689999999999999,-0.395000000000005
1.899,-0.05,-1.14,-0.97
1.919,-0.04666666666666667,-0.7933333333333333,-0.9433333333333334
1.9389999999999998,-1.3799999999999788,1.4599999999999789,0.929999999999989
1.9589999999999999,-2.4299999999999966,2.224999999999994,1.2349999999999994
1.9789999999999999,-1.9000000000000188,2.87,1.3999999999999988
1.9989999999999999,-0.20000000000002593,1.6700000000000244,1.1300000000000066
2.019,1.63,0.12,0.09
2.039,2.0,-0.28,-0.71
2.059,1.72,0.82,-0.66
2.079,0.91,1.05,-0.35
2.099,0.4,0.45,0.43
2.119,0.03,-0.25,0.93
2.1390000000000002,-0.38,0.040000000000019985,0.40999999999997777
2.1590000000000003,-0.22999999999999113,0.7500000000000155,-0.22000000000000666
2.1790000000000003,-0.11000000000000593,0.9699999999999925,8.881784197000915e-15
2.1990000000000003,-0.5500000000000067,0.2999999999999778,-0.020000000000022205
2.2190000000000003,-0.30999999999998,-0.44000000000001555,-1.0600000000000311
2.2390000000000003,0.3500000000000044,-0.57,-1.9200000000000133
2.2590000000000003,0.16999999999998447,-0.4299999999999889,-1.7499999999999756
2.2790000000000004,-0.4400000000000133,4.440892098500129e-15,-0.9399999999999866
2.2990000000000004,-0.5199999999999956,-0.35000000000001924,-0.7200000000000014
2.3190000000000004,-0.5600000000000119,-1.4300000000000177,-1.0900000000000105
2.339,-1.2,-1.76,-1.25
2.359,-1.16,-1.71,-0.61
2.379,-0.03,-2.06,0.03
2.399,1.39,-2.06,0.12
2.419,1.795,-2.16,-0.875
2.439,0.91,-1.34,-1.46
2.459,-0.72,0.33,-0.91
2.479,-1.84,1.52,-0.04
2.499,-1.91,1.89,0.44
2.519,-1.28,1.56,0.42
2.539,-0.33999999999998815,1.2499999999999971,0.4333333333333343
2.559,0.57,1.0,0.5
2.579,0.97,0.5,0.52
2.599,0.74,-0.25,0.48
2.619,0.14,-0.83,0.34
2.6390000000000002,-0.13,-0.3749999999999972,0.20499999999999946
2.6590000000000003,-0.07,0.6700000000000267,-0.09000000000000888
2.6790000000000003,-0.1800000000000022,1.1099999999999934,-0.31
2.6990000000000003,-0.2049999999999989,0.7799999999999956,-0.17499999999999666
2.7190000000000003,-0.09999999999999779,0.6500000000000022,0.01
2.7390000000000003,-0.14333333333333434,0.8633333333333343,-0.18666666666667162
2.7590000000000003,-0.08333333333333728,0.27333333333333726,-0.37666666666666865
2.7790000000000004,-0.410000000000003,0.5066666666666686,-0.3033333333333284
2.7990000000000004,-0.6233333333333343,0.6566666666666686,0.26333333333334025
2.8190000000000004,-0.5933333333333314,0.5566666666666598,0.7666666666666716
2.839,-0.36666666666666864,-0.40666666666665974,1.1133333333333328
2.859,0.07333333333332988,-1.8666666666666614,0.7666666666666732
2.879,0.7333333333333333,-1.58,-0.4766666666666666
2.899,0.75,-0.68,-1.24
2.919,0.14,0.42,-1.36
2.939,0.07,-0.04,-0.92
2.959,0.72,-0.39666666666666667,-0.14333333333333334
2.979,1.83,-0.39666666666666667,0.29
2.999,2.1525,-0.6775000000000013,-0.020000000000002217
3.019,1.6033333333333253,-1.0,-0.3433333333333313
3.039,0.9233333333333255,-0.8733333333333314,-0.09999999999999704
3.059,0.35199999999999715,-0.7960000000000004,0.01
3.079,-0.3100000000000059,-0.89,-0.08666666666666864
3.099,-0.6900000000000011,-0.7124999999999986,-0.3100000000000011
3.119,-0.9666666666666686,-0.12333333333332544,-0.7033333333333373
3.1390000000000002,-0.9866666666666657,0.5033333333333403,-0.8866666666666686
3.1590000000000003,-0.7499999999999889,0.88,-0.9900000000000022
3.1790000000000003,-0.20333333333332543,0.5866666666666598,-1.02
3.1990000000000003,0.35666666666667163,0.006666666666659757,-1.0733333333333344
3.2190000000000003,0.6066666666666686,-0.5300000000000059,-1.0766666666666658
3.2390000000000003,0.63,-0.8250000000000005,-0.9349999999999995
3.2590000000000003,0.5099999999999956,-0.7949999999999934,-0.7949999999999978
3.2790000000000004,0.22999999999999704,-0.4133333333333284,-0.8033333333333343
3.2990000000000004,-0.02000000000000296,-0.04999999999999704,-0.9133333333333343
3.3190000000000004,-0.25250000000000417,0.10500000000000277,-0.9875000000000014
3.3390000000000004,-0.49000000000000293,0.17,-1.03
3.359,-0.6999999999999985,0.22666666666666568,-0.9633333333333343
3.379,-0.9040000000000006,0.4920000000000007,-0.8139999999999997
3.399,-1.245,0.785,-0.675
3.419,-1.435,0.76,-0.555
3.439,-1.5933333333333335,0.45333333333333337,-0.22333333333333333
3.459,-1.56,0.31,0.14
3.479,-1.3949999999999998,0.16,0.45499999999999996
3.499,-1.045,-0.05500000000000001,0.66
3.519,-0.5449999999999922,-0.26000000000000223,0.8200000000000023
3.539,0.055000000000007765,-0.3650000000000011,0.8449999999999989
3.559,0.55,-0.5,0.72
3.579,0.8540000000000005,-0.6180000000000002,0.5939999999999996
3.599,0.9449999999999988,-0.69,0.5150000000000011
3.619,0.7949999999999967,-0.5549999999999966,0.52
3.6390000000000002,0.565999999999999,-0.27599999999999897,0.52
3.6590000000000003,0.23999999999999555,-0.00499999999999667,0.51
3.6790000000000003,-0.10500000000000333,0.28000000000000447,0.4949999999999989
3.6990000000000003,-0.23,0.5700000000000133,0.3999999999999956
3.7190000000000003,-0.22,0.7049999999999988,0.3550000000000011
3.7390000000000003,-0.1449999999999989,0.5949999999999989,0.4600000000000022
3.7590000000000003,0.01500000000000666,0.39499999999999336,0.55
3.7790000000000004,0.23500000000000665,0.19999999999999557,0.5049999999999978
3.7990000000000004,0.37,0.15000000000000444,0.3999999999999978
3.8190000000000004,0.3299999999999956,0.24000000000000443,0.2749999999999978
3.8390000000000004,0.2266666666666637,0.3633333333333363,0.22333333333333186
3.859,0.12,0.52,0.19
3.879,0.11,0.5633333333333329,0.09666666666666568
3.899,0.14666666666666717,0.54,-0.00666666666666716
3.919,0.26,0.6,-0.02
3.939,0.3247058823529412,0.6176470588235294,0.0
3.959,0.3325490196078431,0.6137254901960785,0.0
3.979,0.35,0.6,0.0
3.999,0.7533333333333343,0.4400000000000015,0.09000000000000148
4.019,0.8,0.4366666666666647,0.2633333333333353
4.039000000000001,0.7733333333333314,0.13333333333332542,0.37
4.059,0.6280000000000011,-0.24999999999999825,0.3020000000000007
4.079000000000001,0.3999999999999941,-0.46,0.18333333333333135
4.099,0.16999999999999704,-0.3033333333333294,0.22666666666666765
4.119,-0.06333333333333137,0.03666666666666272,0.3433333333333313
4.139,-0.23800000000000143,0.33600000000000285,0.5420000000000021
4.159,-0.3,0.6033333333333314,0.7533333333333314
4.179,-0.3,0.5339999999999971,0.8
4.199,-0.21,0.14,0.71
4.219,0.02000000000000592,-0.20000000000000592,0.5833333333333314
4.239,0.18399999999999964,-0.31600000000000034,0.4620000000000007
4.259,0.27,-0.15333333333332544,0.3266666666666627
4.279,0.17,0.15,0.07
4.299,0.02,0.23,-0.07
4.319,0.01,0.18666666666666865,0.019999999999997038
4.339,0.03,0.13666666666666866,0.3433333333333432
4.359,-0.025,0.4,0.65
4.3790000000000004,-0.09,0.3566666666666568,1.0200000000000118
4.399,0.03,0.08,1.46
4.4190000000000005,0.6150000000000111,0.24000000000000443,1.8899999999999955
4.439,0.98,-0.14,1.33
4.4590000000000005,1.3900000000000028,-0.28000000000000597,1.0099999999999971
4.479,1.06,-0.39,0.7
4.4990000000000006,0.10999999999995855,-0.6,-0.4700000000000681
4.519,-0.9820000000000113,-0.38399999999999435,-2.1800000000000144
4.539000000000001,-2.2500000000000178,0.930000000000032,-2.879999999999984
4.559,-2.615,1.635,-1.635
4.579000000000001,-1.2499999999999467,-0.16666666666672195,-0.8133333333333372
4.599,0.85,-2.1,-1.45
4.619000000000001,0.6899999999999555,-1.7599999999999467,-1.5599999999999883
4.639,-0.44,-0.15,-1.2
4.659,-0.12,0.51,-0.81
4.679,1.26000000000002,-0.8800000000000244,-0.6249999999999989
4.699,1.6050000000000244,-1.7900000000000178,-0.8799999999999867
4.719,0.05,-0.29,-1.11
4.739,-0.86,0.98,-0.71
4.759,-0.6699999999999882,0.7199999999999881,-0.4166666666666627
4.779,-0.24,0.67,-0.51
4.799,-0.05,0.82,-0.48
4.819,0.07500000000000001,0.63,-0.175
4.839,0.09499999999999889,0.33999999999999775,0.21500000000000555
4.859,-0.13,0.18,0.64
4.8790000000000004,-0.4100000000000059,0.06999999999999112,0.950000000000003
4.899,-0.42,-0.1,0.78
4.9190000000000005,-0.1399999999999929,-0.21000000000000354,0.48999999999999644
4.939,0.13,-0.36,0.42
4.9590000000000005,0.24,-0.40999999999999404,0.49000000000000593
4.979,0.19,-0.23,0.54
4.9990000000000006,-1.332267629549743e-14,-0.15999999999999112,0.34999999999998666
5.019,-0.19,-0.23,0.16
5.039000000000001,-0.26666666666666866,-0.28666666666666274,0.26000000000000595
5.059,-0.33,0.03,0.46
5.079000000000001,-0.2099999999999911,0.09999999999996892,0.6300000000000133
5.099,-0.21,-0.46,0.44
5.119000000000001,-0.27,-0.282499999999985,-0.25250000000001166
5.139,-0.27,0.73,-0.32
5.159,-0.61064381270903,1.1202926421404684,-0.1198829431438127
5.179,-0.6124832775919733,1.121128762541806,-0.11954849498327759
5.199,-0.6143227424749164,1.121964882943144,-0.11921404682274248
5.219,-0.6161622073578595,1.1228010033444817,-0.11887959866220735
5.239,-0.6180016722408026,1.1236371237458196,-0.11854515050167225
5.259,-0.6198411371237458,1.1244732441471572,-0.11821070234113712
5.279,-0.621680602006689,1.125309364548495,-0.117876254180602
5.299,-0.6235200668896321,1.126145484949833,-0.11754180602006688
5.319,-0.6253595317725752,1.1269816053511705,-0.11720735785953178
5.339,-0.6271989966555184,1.1278177257525084,-0.11687290969899665
5.359,-0.6290384615384615,1.1286538461538462,-0.11653846153846154
5.3790000000000004,-0.6308779264214047,1.129489966555184,-0.11620401337792641
5.399,-0.6327173913043478,1.1303260869565217,-0.11586956521739131
5.4190000000000005,-0.634556856187291,1.1311622073578596,-0.11553511705685618
5.439,-0.6363963210702341,1.1319983277591974,-0.11520066889632107
5.4590000000000005,-0.6382357859531773,1.1328344481605352,-0.11486622073578594
5.479,-0.6400752508361204,1.1336705685618729,-0.11453177257525084
5.4990000000000006,-0.6419147157190636,1.1345066889632107,-0.11419732441471571
5.519,-0.6437541806020066,1.1353428093645486,-0.1138628762541806
5.539000000000001,-0.6455936454849499,1.1361789297658864,-0.11352842809364548
5.559,-0.647433110367893,1.137015050167224,-0.11319397993311037
5.579000000000001,-0.6492725752508361,1.1378511705685619,-0.11285953177257524
5.599,-0.6511120401337792,1.1386872909698997,-0.11252508361204012
5.619000000000001,-0.6529515050167225,1.1395234113712376,-0.11219063545150501
5.639,-0.6547909698996656,1.1403595317725752,-0.1118561872909699
5.659,-0.6566304347826086,1.141195652173913,-0.11152173913043478
5.679,-0.6584698996655518,1.142031772575251,-0.11118729096989965
5.699,-0.660309364548495,1.1428678929765888,-0.11085284280936455
5.719,-0.6621488294314382,1.1437040133779264,-0.11051839464882943
5.739,-0.6639882943143812,1.1445401337792642,-0.11018394648829431
5.759,-0.6658277591973244,1.145376254180602,-0.1098494983277592
5.779,-0.6676672240802676,1.14621237458194,-0.10951505016722408
5.799,-0.6695066889632107,1.1470484949832775,-0.10918060200668896
5.819,-0.6713461538461538,1.1478846153846154,-0.10884615384615384
5.839,-0.673185618729097,1.1487207357859532,-0.10851170568561873
5.859,-0.6750250836120402,1.1495568561872909,-0.10817725752508361
5.8790000000000004,-0.6768645484949833,1.1503929765886287,-0.10784280936454849
5.899,-0.6787040133779264,1.1512290969899666,-0.10750836120401339
5.9190000000000005,-0.6805434782608696,1.1520652173913044,-0.10717391304347826
5.939,-0.6823829431438126,1.152901337792642,-0.10683946488294314
5.9590000000000005,-0.6842224080267558,1.1537374581939799,-0.10650501672240802
5.979,-0.686061872909699,1.1545735785953177,-0.1061705685618729
5.9990000000000006,-0.6879013377926422,1.1554096989966556,-0.10583612040133779
6.019,-0.6897408026755852,1.1562458193979932,-0.10550167224080267
6.039000000000001,-0.6915802675585284,1.157081939799331,-0.10516722408026755
6.059,-0.6934197324414716,1.157918060200669,-0.10483277591973245
6.079000000000001,-0.6952591973244148,1.1587541806020067,-0.10449832775919732
6.099,-0.6970986622073578,1.1595903010033444,-0.1041638795986622
6.119000000000001,-0.698938127090301,1.1604264214046822,-0.10382943143812708
6.139,-0.7007775919732442,1.16126254180602,-0.10349498327759198
6.159000000000001,-0.7026170568561874,1.162098662207358,-0.10316053511705685
6.179,-0.7044565217391304,1.1629347826086955,-0.10282608695652173
6.199,-0.7062959866220735,1.1637709030100334,-0.10249163879598663
6.219,-0.7081354515050168,1.1646070234113712,-0.1021571906354515
6.239,-0.7099749163879598,1.165443143812709,-0.10182274247491639
6.259,-0.711814381270903,1.1662792642140467,-0.10148829431438126
6.279,-0.7136538461538461,1.1671153846153846,-0.10115384615384615
6.299,-0.7154933110367894,1.1679515050167224,-0.10081939799331104
6.319,-0.7173327759197324,1.16878762541806,-0.10048494983277592
6.339,-0.7191722408026756,1.1696237458193979,-0.1001505016722408
6.359,-0.8432530120481925,1.2148192771084336,-0.10120481927710841
6.3790000000000004,-0.8697590361445785,1.2244578313253012,-0.10361445783132532
6.399,-0.8962650602409634,1.2340963855421685,-0.10602409638554214
6.4190000000000005,-0.9227710843373496,1.2437349397590363,-0.10843373493975905
6.439,-1.31,1.52,-0.07
6.4590000000000005,-0.4,0.22,-0.18999999999998224
6.479,-0.16,0.02,0.04
6.4990000000000006,-0.16000000000000889,0.09000000000001776,0.1799999999999911
6.519,-0.3,0.32,0.08
6.539000000000001,-0.49000000000000443,0.6100000000000089,0.13500000000000667
6.559,-0.5680000000000011,0.78,0.3920000000000043
6.579000000000001,-0.49999999999999556,0.7650000000000022,0.6350000000000022
6.599,-0.36,0.73,0.69
6.619000000000001,-0.2849999999999995,0.3099999999999967,0.8050000000000017
6.639,-0.25,-0.18,0.96
6.659000000000001,-0.014999999999988897,-0.5500000000000089,0.8099999999999912
6.679,0.6466666666666864,-0.9733333333333432,0.4933333333333254
6.699,1.1766666666666628,-0.9833333333333373,0.060000000000005924
6.719,1.0166666666666597,-0.4999999999999941,-0.4466666666666716
6.739,0.25000000000001776,-0.34499999999999775,-0.6349999999999978
6.759,-0.3300000000000066,-0.5599999999999978,-0.7850000000000056
6.779,-0.685,-0.05000000000000002,-1.29
6.799,-0.7599999999999956,0.8600000000000133,-1.5049999999999977
6.819,-0.44499999999999995,0.845,-1.25
6.839,-0.31000000000000594,0.6533333333333254,-1.383333333333343
6.859,-0.7166666666666598,-0.023333333333319523,-1.6133333333333315
6.8790000000000004,-1.0533333333333315,-1.1833333333333491,-1.4833333333333254
6.899,-0.385,-0.855,-0.99
6.9190000000000005,1.0350000000000188,-0.19499999999999668,-0.6949999999999988
6.939,2.04,-0.6,-0.57
6.9590000000000005,1.8449999999999622,-2.2700000000000222,-0.7600000000000178
6.979,-0.035,-1.44,-1.34
6.9990000000000006,-1.705000000000012,1.2850000000000388,-1.2199999999999933
7.019,-1.9833333333333294,2.9666666666666677,-0.7133333333333294
7.039000000000001,-1.2466666666666597,2.036666666666657,-0.58
7.059,-0.21499999999998445,0.6499999999999777,-0.4349999999999889
7.079000000000001,0.03000000000000888,0.1699999999999556,0.06000000000007105
7.099,0.20000000000000295,-0.3066666666666736,0.8033333333333412
7.119000000000001,0.5000000000000089,-0.7500000000000089,1.2500000000000044
7.139,0.62,-0.76,1.15
7.159000000000001,0.3099999999999881,-0.41999999999998816,0.5133333333333195
7.179,-0.12250000000000277,0.07750000000000389,0.09249999999999833
7.199,-0.48,0.66,-0.02
7.219,-0.9,1.15,0.02
7.239,-0.9350000000000067,1.0100000000000178,0.05
7.259,-0.5849999999999944,0.2999999999999934,-0.08000000000000222
7.279,-0.43,0.1,-0.19
7.299,-0.71,0.4,0.04
7.319,-0.9466666666666657,0.7366666666666627,0.4833333333333284
7.339,-0.7266666666666568,0.8166666666666628,0.7266666666666686
7.359,-0.22,0.19,0.78
7.3790000000000004,-0.16000000000000297,-0.619999999999997,0.7499999999999911
7.399,-0.12,0.115,0.405
7.4190000000000005,-0.01800000000000284,1.1160000000000128,0.013999999999994316
7.439,-0.4566666666666597,1.57,-0.24333333333333135
7.4590000000000005,-0.8099999999999971,1.0299999999999674,-0.04999999999998224
7.479,-0.57,0.02,0.52
7.4990000000000006,0.17000000000003257,-0.9800000000000266,0.6599999999999941
7.519,0.9833333333333413,-1.3733333333333353,0.39333333333332937
7.539000000000001,1.4400000000000044,-1.3399999999999779,0.17999999999999555
7.559,1.36,-0.86,0.2
7.579000000000001,1.0533333333333255,-0.58,0.3233333333333373
7.599,0.87,-0.76,0.47
7.619000000000001,0.9000000000000045,-1.070000000000009,0.35999999999998666
7.639,0.9100759109311741,-1.100037955465587,0.2998481781376518
7.659000000000001,0.9101771255060729,-1.1000885627530366,0.29964574898785423
7.679,0.9102783400809717,-1.100139170040486,0.29944331983805667
7.699,0.9103795546558705,-1.1001897773279352,0.2992408906882591
7.719,0.9104807692307693,-1.1002403846153848,0.29903846153846153
7.739,0.910581983805668,-1.100290991902834,0.29883603238866396
7.759,0.9106831983805669,-1.1003415991902834,0.2986336032388664
7.779,0.9107844129554656,-1.100392206477733,0.29843117408906883
7.799,0.9108856275303644,-1.1004428137651823,0.29822874493927126
7.819,0.9109868421052632,-1.1004934210526316,0.2980263157894737
7.839,0.911088056680162,-1.1005440283400811,0.29782388663967607
7.859,0.9111892712550608,-1.1005946356275305,0.2976214574898785
7.8790000000000004,0.9112904858299595,-1.1006452429149798,0.29741902834008094
7.899,0.9113917004048583,-1.1006958502024293,0.29721659919028337
7.9190000000000005,0.9114929149797572,-1.1007464574898786,0.2970141700404858
7.939,0.9115941295546559,-1.100797064777328,0.29681174089068824
7.9590000000000005,0.9116953441295547,-1.1008476720647775,0.29660931174089067
7.979,0.9117965587044535,-1.1008982793522268,0.2964068825910931
7.9990000000000006,0.9118977732793523,-1.1009488866396762,0.29620445344129553
8.019,0.911998987854251,-1.1009994939271257,0.29600202429149797
8.039,0.9121002024291498,-1.101050101214575,0.2957995951417004
8.059000000000001,0.9122014170040487,-1.1011007085020244,0.29559716599190283
8.079,0.9123026315789474,-1.1011513157894737,0.29539473684210527
8.099,0.9124038461538462,-1.1012019230769232,0.2951923076923077
8.119,0.9125050607287449,-1.1012525303643725,0.29498987854251013
8.139000000000001,0.9126062753036438,-1.1013031376518219,0.2947874493927125
8.159,0.9127074898785426,-1.1013537449392714,0.29458502024291494
8.179,0.9128087044534413,-1.1014043522267207,0.2943825910931174
8.199,0.9129099190283401,-1.10145495951417,0.2941801619433198
8.219,0.9130111336032389,-1.1015055668016196,0.29397773279352224
8.239,0.9131123481781377,-1.101556174089069,0.2937753036437247
8.259,0.9132135627530364,-1.1016067813765182,0.2935728744939271
8.279,0.9133147773279353,-1.1016573886639678,0.29337044534412954
8.299,0.9134159919028341,-1.101707995951417,0.29316801619433197
8.319,0.9135172064777328,-1.1017586032388664,0.2929655870445344
8.339,0.9136184210526316,-1.101809210526316,0.29276315789473684
8.359,0.9137196356275304,-1.1018598178137653,0.29256072874493927
8.379,0.9138208502024292,-1.1019104251012146,0.2923582995951417
8.399000000000001,0.913922064777328,-1.1019610323886642,0.29215587044534413
8.419,0.9140232793522267,-1.1020116396761135,0.29195344129554657
8.439,0.9141244939271256,-1.1020622469635628,0.291751012145749
8.459,0.9142257085020243,-1.1021128542510121,0.29154858299595143
8.479000000000001,0.9143269230769231,-1.1021634615384617,0.2913461538461538
8.499,0.9144281376518218,-1.102214068825911,0.29114372469635624
8.519,0.9145293522267207,-1.1022646761133603,0.2909412955465587
8.539,0.9146305668016195,-1.1023152834008099,0.2907388663967611
8.559000000000001,0.9147317813765182,-1.1023658906882592,0.29053643724696354
8.579,0.9148329959514171,-1.1024164979757085,0.290334008097166
8.599,0.9149342105263158,-1.102467105263158,0.2901315789473684
8.619,0.9150354251012146,-1.1025177125506074,0.28992914979757084
8.639000000000001,0.9151366396761134,-1.1025683198380567,0.2897267206477733
8.659,0.9152378542510122,-1.1026189271255062,0.2895242914979757
8.679,0.915339068825911,-1.1026695344129556,0.28932186234817814
8.699,0.9154402834008097,-1.1027201417004049,0.28911943319838057
8.719000000000001,0.9155414979757085,-1.1027707489878544,0.288917004048583
8.739,0.9156427125506074,-1.1028213562753038,0.28871457489878544
8.759,0.9157439271255061,-1.102871963562753,0.28851214574898787
8.779,0.9158451417004049,-1.1029225708502026,0.2883097165991903
8.799,0.9159463562753036,-1.102973178137652,0.28810728744939273
8.819,0.9160475708502025,-1.1030237854251013,0.2879048582995951
8.839,0.9161487854251013,-1.1030743927125508,0.28770242914979755
8.859,0.91625,-1.1031250000000001,0.2875
8.879,0.9163512145748989,-1.1031756072874495,0.2872975708502024
8.899000000000001,0.9164524291497976,-1.1032262145748988,0.28709514170040484
8.919,0.9165536437246964,-1.1032768218623483,0.2868927125506073
8.939,0.9166548582995951,-1.1033274291497976,0.2866902834008097
8.959,0.916756072874494,-1.103378036437247,0.28648785425101214
8.979000000000001,0.9168572874493928,-1.1034286437246965,0.2862854251012146
8.999,0.9169585020242915,-1.1034792510121458,0.286082995951417
9.019,0.9170597165991903,-1.1035298582995952,0.28588056680161944
9.039,0.9171609311740891,-1.1035804655870447,0.2856781376518219
9.059000000000001,0.9172621457489879,-1.103631072874494,0.28547570850202425
9.079,0.9173633603238867,-1.1036816801619433,0.2852732793522267
9.099,0.9174645748987854,-1.103732287449393,0.28507085020242917
9.119,0.9175657894736843,-1.1037828947368422,0.28486842105263155
9.139000000000001,0.917667004048583,-1.1038335020242915,0.284665991902834
9.159,0.9177682186234818,-1.103884109311741,0.2844635627530364
9.179,0.9178694331983807,-1.1039347165991904,0.28426113360323885
9.199,0.9179706477732794,-1.1039853238866397,0.2840587044534413
9.219000000000001,0.9180718623481782,-1.1040359311740893,0.2838562753036437
9.239,0.9181730769230769,-1.1040865384615386,0.28365384615384615
9.259,0.9182742914979758,-1.104137145748988,0.2834514170040486
9.279,0.9183755060728745,-1.1041877530364372,0.283248987854251
9.299,0.9184767206477733,-1.1042383603238868,0.28304655870445344
9.319,0.9185779352226721,-1.104288967611336,0.2828441295546559
9.339,0.9186791497975709,-1.1043395748987854,0.2826417004048583
9.359,0.9187803643724697,-1.104390182186235,0.28243927125506074
9.379,0.9188815789473684,-1.1044407894736843,0.2822368421052632
9.399000000000001,0.9189827935222672,-1.1044913967611336,0.28203441295546555
9.419,0.9190840080971661,-1.1045420040485832,0.281831983805668
9.439,0.9191852226720648,-1.1045926113360325,0.2816295546558704
9.459,0.9192864372469636,-1.1046432186234818,0.28142712550607285
9.479000000000001,0.9193876518218624,-1.1046938259109313,0.2812246963562753
9.499,0.9194888663967612,-1.1047444331983807,0.2810222672064777
9.519,0.91959008097166,-1.10479504048583,0.28081983805668015
9.539,0.9196912955465587,-1.1048456477732795,0.2806174089068826
9.559000000000001,0.9197925101214576,-1.1048962550607289,0.280414979757085
9.579,0.9198937246963563,-1.1049468623481782,0.28021255060728745
9.599,0.9199949392712551,-1.1049974696356277,0.2800101214574899
9.619,0.9200961538461538,-1.105048076923077,0.2798076923076923
9.639000000000001,0.9201973684210527,-1.1050986842105264,0.27960526315789475
9.659,0.9202985829959515,-1.1051492914979757,0.2794028340080972
9.679,0.9203997975708502,-1.1051998987854252,0.2792004048582996
9.699,0.920501012145749,-1.1052505060728746,0.27899797570850204
9.719000000000001,0.9206022267206478,-1.1053011133603239,0.2787955465587044
9.739,0.9207034412955466,-1.1053517206477734,0.27859311740890685
9.759,0.9208046558704454,-1.1054023279352228,0.2783906882591093
9.779,0.9209058704453442,-1.105452935222672,0.2781882591093117
9.799,0.921007085020243,-1.1055035425101216,0.27798582995951415
9.819,0.9211082995951417,-1.105554149797571,0.2777834008097166
9.839,0.9212095141700405,-1.1056047570850203,0.277580971659919
9.859,0.9213107287449394,-1.1056553643724698,0.27737854251012145
9.879,0.9214119433198381,-1.1057059716599191,0.2771761133603239
9.899000000000001,0.9215131578947369,-1.1057565789473685,0.2769736842105263
9.919,0.9216143724696356,-1.105807186234818,0.27677125506072875
9.939,0.9217155870445345,-1.1058577935222673,0.2765688259109312
9.959,0.9218168016194332,-1.1059084008097166,0.2763663967611336
9.979000000000001,0.921918016194332,-1.1059590080971662,0.27616396761133605
9.999,0.9220192307692308,-1.1060096153846155,0.2759615384615385
10.019,0.9221204453441296,-1.1060602226720648,0.2757591093117409
10.039,0.9222216599190284,-1.1061108299595142,0.27555668016194335
10.059000000000001,0.9223228744939271,-1.1061614372469637,0.2753542510121457
10.079,0.922424089068826,-1.106212044534413,0.27515182186234816
10.099,0.9225253036437248,-1.1062626518218623,0.2749493927125506
10.119,0.9226265182186235,-1.1063132591093119,0.274746963562753
10.139000000000001,0.9227277327935223,-1.1063638663967612,0.27454453441295545
10.159,0.9228289473684211,-1.1064144736842105,0.2743421052631579
10.179,0.9229301619433199,-1.10646508097166,0.2741396761133603
10.199,0.9230313765182186,-1.1065156882591094,0.27393724696356275
10.219000000000001,0.9231325910931174,-1.1065662955465587,0.2737348178137652
10.239,0.9232338056680163,-1.1066169028340083,0.2735323886639676
10.259,0.923335020242915,-1.1066675101214576,0.27332995951417005
10.279,0.9234362348178138,-1.106718117408907,0.2731275303643725
10.299,0.9235374493927125,-1.1067687246963565,0.2729251012145749
10.319,0.9236386639676114,-1.1068193319838058,0.2727226720647773
10.339,0.9237398785425102,-1.106869939271255,0.2725202429149798
10.359,0.9238410931174089,-1.1069205465587046,0.2723178137651822
10.379,0.9239423076923078,-1.106971153846154,0.27211538461538465
10.399000000000001,0.9240435222672065,-1.1070217611336033,0.271912955465587
10.419,0.9241447368421053,-1.1070723684210528,0.27171052631578946
10.439,0.924245951417004,-1.1071229757085022,0.2715080971659919
10.459,0.9243471659919029,-1.1071735829959515,0.2713056680161943
10.479000000000001,0.9244483805668017,-1.1072241902834008,0.27110323886639676
10.499,0.9245495951417004,-1.1072747975708503,0.2709008097165992
10.519,0.9246508097165992,-1.1073254048582997,0.2706983805668016
10.539,0.924752024291498,-1.107376012145749,0.27049595141700405
10.559000000000001,0.9248532388663968,-1.1074266194331985,0.2702935222672065
10.579,0.9249544534412956,-1.1074772267206479,0.2700910931174089
10.599,0.9250556680161943,-1.1075278340080972,0.26988866396761135
10.619,0.9251568825910932,-1.1075784412955467,0.2696862348178138
10.639000000000001,0.9252580971659919,-1.107629048582996,0.26948380566801616
10.659,0.9253593117408907,-1.1076796558704454,0.2692813765182186
10.679,0.9254605263157896,-1.107730263157895,0.2690789473684211
10.699,0.9255617408906883,-1.1077808704453442,0.26887651821862346
10.719000000000001,0.9256629554655871,-1.1078314777327936,0.2686740890688259
10.739,0.9257641700404858,-1.107882085020243,0.2684716599190283
10.759,0.9258653846153847,-1.1079326923076924,0.26826923076923076
10.779,0.9259665991902835,-1.1079832995951417,0.2680668016194332
10.799,0.9260678137651822,-1.1080339068825913,0.2678643724696356
10.819,0.926169028340081,-1.1080845141700406,0.26766194331983806
10.839,0.9262702429149798,-1.10813512145749,0.2674595141700405
10.859,0.9263714574898786,-1.1081857287449393,0.2672570850202429
10.879,0.9264726720647773,-1.1082363360323888,0.26705465587044536
10.899000000000001,0.9265738866396762,-1.1082869433198381,0.2668522267206478
10.919,0.926675101214575,-1.1083375506072874,0.2666497975708502
10.939,0.9267763157894737,-1.108388157894737,0.26644736842105265
10.959,0.9268775303643725,-1.1084387651821863,0.2662449392712551
10.979000000000001,0.9269787449392713,-1.1084893724696356,0.26604251012145747
10.999,0.9270799595141701,-1.1085399797570852,0.2658400809716599
11.019,0.9271811740890689,-1.1085905870445345,0.2656376518218624
11.039,0.9272823886639676,-1.1086411943319838,0.26543522267206476
11.059000000000001,0.9273836032388665,-1.1086918016194334,0.2652327935222672
11.079,0.9274848178137652,-1.1087424089068827,0.26503036437246963
11.099,0.927586032388664,-1.108793016194332,0.26482793522267206
11.119,0.9276872469635628,-1.1088436234817816,0.2646255060728745
11.139000000000001,0.9277884615384616,-1.1088942307692309,0.2644230769230769
11.159,0.9278896761133604,-1.1089448380566802,0.26422064777327936
11.179,0.9279908906882591,-1.1089954453441297,0.2640182186234818
11.199,0.9280921052631579,-1.109046052631579,0.2638157894736842
11.219000000000001,0.9281933198380568,-1.1090966599190284,0.26361336032388666
11.239,0.9282945344129555,-1.109147267206478,0.2634109311740891
11.259,0.9283957489878543,-1.1091978744939273,0.2632085020242915
11.279,0.9284969635627531,-1.1092484817813766,0.26300607287449396
11.299,0.9285981781376519,-1.109299089068826,0.2628036437246964
11.319,0.9286993927125506,-1.1093496963562754,0.26260121457489877
11.339,0.9288006072874494,-1.1094003036437248,0.2623987854251012
11.359,0.9289018218623483,-1.109450910931174,0.26219635627530363
11.379,0.929003036437247,-1.1095015182186236,0.26199392712550607
11.399000000000001,0.9291042510121458,-1.109552125506073,0.2617914979757085
11.419,0.9292054655870445,-1.1096027327935223,0.26158906882591093
11.439,0.9293066801619434,-1.1096533400809718,0.26138663967611336
11.459,0.9294078947368422,-1.1097039473684212,0.2611842105263158
11.479000000000001,0.9295091093117409,-1.1097545546558705,0.26098178137651823
11.499,0.9296103238866398,-1.10980516194332,0.26077935222672066
11.519,0.9297115384615385,-1.1098557692307693,0.2605769230769231
11.539,0.9298127530364373,-1.1099063765182187,0.2603744939271255
11.559000000000001,0.929913967611336,-1.1099569838056682,0.26017206477732796
11.579,0.9350000000000045,-1.1250000000000044,0.2149999999999867
11.599,0.48,-0.72,-0.36
11.619,0.68,-2.1,0.05
11.639000000000001,-0.12000000000005329,0.5800000000000177,-0.5600000000000178
11.659,-0.42571428571428643,0.9,-0.31714285714285423
11.679,-0.38333333333333336,0.7666666666666667,0.06333333333333334
11.699,-0.06999999999998816,0.08333333333331361,0.28333333333333727
11.719000000000001,0.4133333333333432,-0.5433333333333432,0.4333333333333373
11.739,0.7400000000000059,-0.8400000000000059,0.43333333333333135
11.759,0.7566666666666627,-0.7033333333333196,0.29999999999999405
11.779,0.345,-0.04,0.065
11.799,-0.16666666666665086,0.47333333333332545,-0.18666666666665088
11.819,-0.40333333333333726,0.4466666666666627,-0.35666666666666863
11.839,-0.38333333333333136,0.41666666666667457,-0.48666666666666863
11.859,-0.41666666666666863,0.7733333333333373,-0.4599999999999941
11.879,-0.54,0.6566666666666864,-0.19333333333334912
11.899000000000001,-0.31666666666665677,0.30333333333333135,-0.03666666666666864
11.919,-0.08000000000000444,0.43000000000000443,-0.24000000000000443
11.939,-0.6366666666666864,0.2633333333333254,-0.22333333333332545
11.959,-1.3149999999999955,0.32499999999996887,0.23499999999996005
11.979000000000001,-0.6749999999999334,0.44999999999999113,0.8450000000000133
11.999,0.41250000000001996,-0.25000000000001776,0.7324999999999845
12.019,0.587500000000001,-0.4750000000000022,0.15500000000000222
12.039,0.4,-0.05333333333333334,0.26666666666666666
12.059000000000001,0.37500000000000666,-0.21000000000001778,0.5600000000000045
12.079,0.8400000000000267,-1.14500000000004,0.4349999999999867
12.099,1.1,-1.35,0.24
12.119,0.85,-0.925,0.23
12.139000000000001,0.26666666666665084,-0.48999999999999405,0.09666666666666271
12.159,-0.23000000000001775,-0.3349999999999956,-0.07000000000000889
12.179,-0.405,-0.115,-0.185
12.199,-0.3766666666666627,0.08666666666666864,-0.24
12.219000000000001,-0.24499999999998667,0.09,-0.36000000000000887
12.239,-0.06990099009900978,0.08,-0.47
12.259,-0.06792079207920784,0.08,-0.47
12.279,-0.06594059405940592,0.08,-0.47
12.299000000000001,-0.0639603960396038,0.08,-0.47
12.319,-0.061980198019801855,0.08,-0.47
12.339,-0.059999999999999915,0.08,-0.47
12.359,-0.058019801980197974,0.08,-0.47
12.379,-0.05603960396039604,0.08,-0.47
12.399000000000001,-0.05405940594059393,0.08,-0.47
12.419,-0.05207920792079199,0.08,-0.47
12.439,-0.050099009900990046,0.08,-0.47
12.459,-0.04,0.07802325581395356,-0.4719767441860464
12.479000000000001,-0.04,0.07569767441860457,-0.4743023255813954
12.499,-0.04,0.0733720930232558,-0.4766279069767442
12.519,-0.04,0.07104651162790702,-0.47895348837209295
12.539,-0.14,0.13,-0.34
12.559000000000001,0.13999999999994672,0.13,-0.17
12.579,-0.38,0.35,-0.28
12.599,-0.41000000000000003,0.715,-0.16
12.619,-0.17,0.62,-0.15
12.639000000000001,0.10000000000002665,0.35999999999996446,-0.1499999999999911
12.659,0.25,0.15,-0.1
12.679,0.25,-0.060000000000000005,-0.08
12.699,0.16,-0.2,-0.09
12.719000000000001,-0.04500000000001332,-0.14499999999999558,-0.02499999999999556
12.739,-0.24500000000000444,-0.02499999999999556,0.05
12.759,-0.2849999999999956,0.07500000000000445,0.09
12.779,-0.185,0.095,0.07500000000000001
12.799000000000001,-0.06666666666666568,0.02666666666666568,0.01666666666666568
12.819,0.01,-0.02,-0.06
12.839,-0.0,0.06,-0.1
12.859,-0.05,0.18,-0.06
12.879,-0.13,0.27,-0.03
12.899000000000001,-0.08999999999999407,0.15999999999998815,-0.05
12.919,0.025000000000002222,-0.050000000000008885,-0.07
12.939,0.07,-0.14,-0.04
12.959,-0.02,-0.05,-0.0
12.979000000000001,-0.07,-0.019999999999996448,0.01
12.999,-0.04,-0.04,-0.04
13.019,0.04,-0.15000000000000002,-0.095
13.039,0.165,-0.225,-0.055
13.059000000000001,0.32000000000000595,-0.3,0.03000000000000592
13.079,0.41,-0.32,0.13
13.099,0.51,-0.47,0.18
13.119,0.58,-0.6,0.21
13.139000000000001,0.59,-0.58,0.25000000000000594
13.159,0.53,-0.4,0.34
13.179,0.4,-0.2,0.31
13.199,0.36,-0.09987046632124354,0.2699352331606218
13.219000000000001,0.36,-0.09961139896373056,0.2698056994818653
13.239,0.36,-0.09935233160621762,0.2696761658031088
13.259,0.36,-0.09909326424870467,0.26954663212435237
13.279,0.36,-0.09883419689119172,0.26941709844559586
13.299000000000001,0.36,-0.09857512953367875,0.2692875647668394
13.319,0.36,-0.0983160621761658,0.2691580310880829
13.339,0.36,-0.09805699481865285,0.26902849740932644
13.359,0.36,-0.0977979274611399,0.26889896373057
13.379,0.36,-0.09753886010362696,0.2687694300518135
13.399000000000001,0.36,-0.09727979274611398,0.268639896373057
13.419,0.36,-0.09702072538860104,0.2685103626943005
13.439,0.36,-0.09676165803108809,0.26838082901554405
13.459,0.36,-0.09650259067357514,0.2682512953367876
13.479000000000001,0.36,-0.09624352331606217,0.2681217616580311
13.499,0.36,-0.09598445595854922,0.26799222797927463
13.519,0.36,-0.09572538860103627,0.2678626943005182
13.539,0.36,-0.09546632124352333,0.26773316062176167
13.559000000000001,0.36,-0.09520725388601035,0.2676036269430052
13.579,0.36,-0.0949481865284974,0.2674740932642487
13.599,0.36,-0.09468911917098446,0.26734455958549225
13.619,0.36,-0.09443005181347151,0.2672150259067358
13.639000000000001,0.36,-0.09417098445595853,0.2670854922279793
13.659,0.36,-0.0939119170984456,0.2669559585492228
13.679,0.36,-0.09365284974093264,0.2668264248704663
13.699,0.36,-0.0933937823834197,0.26669689119170986
13.719000000000001,0.36,-0.09313471502590673,0.26656735751295335
13.739,0.36,-0.09287564766839378,0.2664378238341969
13.759,0.36,-0.09261658031088082,0.26630829015544044
13.779,0.36,-0.09235751295336789,0.26617875647668393
13.799000000000001,0.36,-0.09209844559585491,0.2660492227979275
13.819,0.36,-0.09183937823834197,0.265919689119171
13.839,0.36,-0.09158031088082902,0.2657901554404145
13.859,0.36,-0.09132124352331607,0.26566062176165806
13.879,0.36,-0.09106217616580312,0.2655310880829016
13.899000000000001,0.36,-0.09080310880829015,0.2654015544041451
13.919,0.36,-0.0905440414507772,0.26527202072538864
13.939,0.36,-0.09028497409326425,0.2651424870466321
13.959,0.36,-0.09002590673575131,0.26501295336787567
13.979000000000001,0.36,-0.08976683937823833,0.26488341968911916
13.999,0.36,-0.08950777202072539,0.2647538860103627
14.019,0.36,-0.08924870466321244,0.26462435233160625
14.039,0.36,-0.08898963730569949,0.26449481865284974
14.059000000000001,0.36,-0.08873056994818652,0.2643652849740933
14.079,0.36,-0.08847150259067357,0.2642357512953368
14.099,0.36,-0.08821243523316062,0.2641062176165803
14.119,0.36,-0.08795336787564768,0.26397668393782386
14.139000000000001,0.36,-0.0876943005181347,0.26384715025906735
14.159,0.36,-0.08743523316062177,0.2637176165803109
14.179,0.36,-0.08717616580310882,0.26358808290155444
14.199,0.36,-0.08691709844559586,0.26345854922279793
14.219000000000001,0.36,-0.0866580310880829,0.2633290155440415
14.239,0.36,-0.08639896373056995,0.26319948186528497
14.259,0.36,-0.086139896373057,0.2630699481865285
14.279,0.36,-0.08588082901554404,0.26294041450777206
14.299000000000001,0.36,-0.08562176165803108,0.26281088082901555
14.319,0.36,-0.08536269430051813,0.2626813471502591
14.339,0.36,-0.08510362694300519,0.2625518134715026
14.359,0.36,-0.08484455958549224,0.2624222797927461
14.379,0.36,-0.08458549222797929,0.26229274611398967
14.399000000000001,0.36,-0.08432642487046632,0.26216321243523316
14.419,0.36,-0.08406735751295337,0.2620336787564767
14.439,0.36,-0.08380829015544042,0.2619041450777202
14.459,0.36,-0.08354922279792748,0.26177461139896374
14.479000000000001,0.36,-0.0832901554404145,0.2616450777202073
14.499,0.36,-0.08303108808290155,0.2615155440414508
14.519,0.36,-0.08277202072538861,0.2613860103626943
14.539,0.36,-0.08251295336787566,0.2612564766839378
14.559000000000001,0.36,-0.08225388601036268,0.26112694300518136
14.579,0.36,-0.08199481865284974,0.2609974093264249
14.599,0.36,-0.08173575129533679,0.2608678756476684
14.619,0.36,-0.08147668393782384,0.26073834196891194
14.639000000000001,0.36,-0.08121761658031088,0.2606088082901554
14.659,0.36,-0.08095854922279792,0.26047927461139897
14.679,0.36,-0.08069948186528497,0.2603497409326425
14.699,0.36,-0.08044041450777203,0.260220207253886
14.719000000000001,0.36,-0.08018134715025906,0.26009067357512955
14.739,0.34,-0.02,0.23
14.759,-1.19,0.92,0.55
14.779,0.54,-0.06,0.86
14.799000000000001,0.6899999999998934,0.6200000000002487,-0.39000000000008883
14.819,1.0380000000000362,0.4619999999999851,-1.9540000000000022
14.839,1.5933333333333255,-1.2733333333333727,-1.4699999999999882
14.859,1.04750000000001,-1.8075000000000012,-1.215000000000002
14.879,0.2533333333333728,-1.543333333333361,-1.0633333333333372
14.899000000000001,-0.4800000000000266,-1.034999999999969,-1.1
14.919,-0.4,-0.43,-0.94
14.939,1.0466666666667042,-0.4133333333333551,-0.5799999999999941
14.959,1.9140000000000057,-2.161999999999967,-0.41199999999999576
14.979000000000001,0.6533333333332899,-2.2799999999999585,-0.7933333333333373
14.999,-1.0700000000000354,0.3166666666667279,-0.38999999999998225
15.019,-1.6357142857142852,1.6128571428571388,0.011428571428570703
15.039,-1.2171428571428686,1.3842857142857374,-0.09428571428570703
15.059000000000001,-0.6399999999999881,0.5866666666666627,-0.2833333333333314
15.079,-0.2266666666666568,0.7400000000000059,-0.026666666666656805
15.099,0.13250000000000334,0.7524999999999988,0.33250000000000335
15.119,0.7133333333333334,0.26666666666666666,0.8266666666666667
15.139000000000001,0.8949999999999956,-0.4300000000000355,1.04
15.159,0.6633333333333254,-0.6166666666666627,1.0233333333333314
15.179,0.3866666666666627,-0.37999999999999406,0.9433333333333314
15.199,0.41333333333333727,-0.22333333333333136,0.8366666666666627
15.219000000000001,0.6700000000000237,-0.19000000000001185,0.6699999999999823
15.239,0.9360000000000028,-0.29800000000000143,0.4439999999999972
15.259,0.7499999999999881,-0.4,0.16999999999999407
15.279,0.10666666666665088,-0.20666666666665678,0.17333333333333728
15.299000000000001,-0.4933333333333432,0.16666666666667457,0.3333333333333373
15.319,-0.5899999999999941,0.2733333333333314,0.44
15.339,0.056666666666686384,0.1766666666666568,0.33666666666666273
15.359,0.775,-0.53,0.31
15.379,0.6833333333333432,-1.1333333333333313,0.30666666666666864
15.399000000000001,0.02666666666665088,-0.536666666666645,0.06666666666666271
15.419,-0.43000000000000593,-0.10666666666666864,-0.1333333333333373
15.439,-0.7408839779005527,-0.22088397790055278,-0.2705524861878455
15.459,-0.7497237569060774,-0.2297237569060774,-0.2760773480662984
15.479000000000001,-0.7585635359116027,-0.23856353591160281,-0.28160220994475177
15.499,-0.7674033149171274,-0.24740331491712744,-0.2871270718232047
15.519,-0.776243093922652,-0.2562430939226521,-0.29265193370165754
15.539,-0.7850828729281767,-0.26508287292817667,-0.29817679558011045
15.559000000000001,-0.793922651933702,-0.27392265193370213,-0.3037016574585638
15.579,-0.8027624309392267,-0.2827624309392267,-0.3092265193370167
15.599,-0.8116022099447513,-0.2916022099447514,-0.31475138121546964
15.619,-0.865,-0.33999999999999997,-0.33499999999999996
15.639000000000001,-1.2099999999998756,0.9800000000000533,-0.06999999999996448
15.659,0.37,-0.76,-0.17
15.679,-0.46,-0.09,0.18
15.699,0.22,0.12,-0.56
15.719000000000001,0.15999999999998224,0.14000000000001778,-0.54
15.739,0.05,0.31,-0.53
15.759,-0.02,0.38,-0.46
15.779,-0.06,0.36,-0.38
15.799000000000001,-0.04999999999999112,0.3499999999999911,-0.36
15.819,0.04,0.18,-0.4
15.839,0.1833333333333373,-0.05333333333333728,-0.42666666666666864
15.859,0.32400000000000073,-0.14,-0.44
15.879000000000001,0.32999999999999113,-0.019999999999973355,-0.42
15.899000000000001,0.24999999999999556,0.14000000000000445,-0.4600000000000044
15.919,0.04,0.32,-0.59
15.939,-0.24,0.3,-0.57
15.959,-0.61,0.18,-0.54
15.979000000000001,-0.8500000000000266,0.2000000000000089,-0.4699999999999911
15.999,-1.02,0.29,-0.35
16.019,-1.04,0.34,-0.28
16.038999999999998,-0.9000000000000237,0.3500000000000118,-0.18000000000001184
16.058999999999997,-0.6550000000000133,0.46,-0.03000000000000888
16.078999999999997,-0.4000000000000533,0.3600000000000355,0.12999999999996448
16.099,-0.12,0.16,0.28
16.119,0.16,-0.12,0.41
16.139,0.4,-0.31,0.5
16.159,0.52,-0.43,0.53
16.179,0.51,-0.48,0.52
16.198999999999998,0.34000000000002134,-0.3500000000000213,0.51
16.218999999999998,0.010000000000035533,-0.10000000000003553,0.51
16.238999999999997,-0.24999999999996447,0.1399999999999645,0.51
16.259,-0.39,0.39,0.46
16.279,-0.42,0.54,0.38
16.299,-0.3725000000000022,0.5625000000000022,0.28500000000000447
16.319,-0.23,0.44,0.22
16.339,-0.05,0.25,0.16
16.358999999999998,0.11999999999996447,0.050000000000053293,0.16
16.378999999999998,0.22999999999998225,-0.07999999999998224,0.18
16.398999999999997,0.22,-0.09500000000000888,0.17
16.418999999999997,0.13000000000001186,-0.02,0.15
16.439,0.015,-0.01,0.045
16.459,-0.05,-0.02,-0.06
16.479,-0.11,0.03,-0.12
16.499,-0.13,0.12,-0.11
16.519,-0.12,0.21,-0.03
16.538999999999998,-0.07000000000001184,0.18000000000001184,0.02
16.558999999999997,-0.049461279461279525,0.15946127946127953,0.02
16.578999999999997,-0.048787878787878866,0.15878787878787887,0.02
16.599,-0.04811447811447809,0.1581144781144781,0.02
16.619,-0.04744107744107743,0.15744107744107744,0.02
16.639,-0.04676767676767677,0.15676767676767678,0.02
16.659,-0.04609427609427612,0.15609427609427612,0.02
16.679,-0.04542087542087546,0.15542087542087546,0.02
16.698999999999998,-0.0447474747474748,0.1547474747474748,0.02
16.718999999999998,-0.04407407407407414,0.15407407407407414,0.02
16.738999999999997,-0.04340067340067348,0.15340067340067348,0.02
16.759,-0.04272727272727271,0.1527272727272727,0.02
16.779,-0.04205387205387205,0.15205387205387205,0.02
16.799,-0.04138047138047139,0.1513804713804714,0.02
16.819,-0.04070707070707073,0.15070707070707073,0.02
16.839,-0.040033670033670074,0.15003367003367007,0.02
16.858999999999998,-0.049999999999964476,-0.07,0.1
16.878999999999998,-0.16,0.10000000000007106,0.02
16.898999999999997,0.42999999999996447,-0.35,0.41
16.918999999999997,0.36500000000001775,-0.16000000000003553,0.45
16.939,0.3,0.0,0.38
16.959,0.42,-0.060000000000000005,0.265
16.979,0.49249999999999555,-0.11249999999999556,0.23
16.999,0.4950000000000089,-0.17,0.21
17.019,0.46,-0.18,0.23
17.038999999999998,0.3866666666666746,-0.1,0.23333333333332545
17.058999999999997,0.3300000000000089,-0.07999999999999112,0.24999999999999112
17.078999999999997,0.31,-0.22999999999994672,0.27
17.099,0.2566666666666627,-0.4233333333333373,0.25
17.119,0.15499999999999556,-0.42499999999999555,0.23
17.139,0.025000000000008883,-0.16500000000002663,0.21
17.159,0.0,-0.0,0.28
17.179,0.11,0.0,0.37
17.198999999999998,0.24,-0.038000000000004266,0.38
17.218999999999998,0.24,-0.0025000000000044414,0.34250000000000447
17.238999999999997,0.1650000000000089,0.014999999999991118,0.3
17.259,0.14500000000000002,-0.03,0.235
17.279,0.14500000000000002,-0.125,0.13
17.299,0.05499999999999556,-0.14749999999999777,0.02749999999999778
17.319,-0.13666666666665087,-0.03000000000002369,-0.06
17.339,-0.3399999999999822,0.30499999999997335,-0.08
17.358999999999998,-0.4649999999999911,0.5149999999999911,-0.12499999999999112
17.378999999999998,-0.42500000000000887,0.4950000000000089,-0.28999999999998227
17.398999999999997,-0.38,0.42,-0.4466666666666627
17.419,-0.435,0.485,-0.455
17.439,-0.49,0.59,-0.365
17.459,-0.5333333333333373,0.7066666666666627,-0.23333333333333728
17.479,-0.54,0.7833333333333373,-0.013333333333349125
17.499,-0.6649999999999734,0.67,0.39999999999994673
17.519,-0.9499999999999822,0.9299999999999644,0.8899999999999467
17.538999999999998,-0.8375000000000333,0.94250000000002,1.2999999999999734
17.558999999999997,-0.16000000000010658,0.1500000000001421,1.5799999999999734
17.578999999999997,0.7149999999999379,-0.8149999999999378,1.6200000000000176
17.599,0.95,-1.0,1.39
17.619,0.7733333333333373,-0.043333333333384655,1.29
17.639,0.72,0.3649999999999911,0.9950000000000622
17.659,0.64,0.23,0.38
17.679,0.36,-0.34999999999997633,-0.0033333333333254375
17.698999999999998,0.4266666666666627,-0.6033333333333373,-0.28666666666665086
17.718999999999998,0.2466666666666864,-0.3733333333333491,-0.6166666666666508
17.738999999999997,-0.17999999999998817,0.10999999999998815,-0.7933333333333255
17.759,-0.27,0.22,-0.9999999999999881
17.779,-0.29,0.3539999999999957,-1.16
17.799,-0.3266666666666746,0.4966666666666746,-1.0466666666666746
17.819,0.10999999999997631,-0.1999999999999526,-1.1233333333333135
17.839,0.4433333333333373,-1.0966666666666272,-1.6833333333333016
17.858999999999998,-0.3399999999999408,-1.7399999999999882,-2.0733333333333372
17.878999999999998,-1.0799999999999468,-1.0300000000003198,-1.6000000000001422
17.898999999999997,-0.4600000000000426,0.12399999999997728,-1.1940000000000057
17.919,1.5,-0.185,-1.03
17.939,3.22199999999998,-2.447999999999942,-0.5320000000000086
17.959,2.7142857142856984,-4.411428571428573,-0.7342857142857186
17.979,0.23333333333344386,-2.086666666666852,-0.8900000000000119
17.999,-1.5166666666666153,1.4699999999998816,-0.5266666666666746
18.019,-1.9166666666666745,2.2566666666667103,-0.5699999999999882
18.038999999999998,-1.2800000000001777,0.8500000000002309,-0.8499999999999467
18.058999999999997,-0.7500000000000444,0.4600000000000089,-0.8900000000000178
18.078999999999997,-0.4750000000000266,0.8099999999999645,-0.3850000000000622
18.099,-0.1600000000000071,0.7460000000000085,0.16399999999999149
18.119,0.16799999999999715,0.1400000000000142,0.5219999999999958
18.139,0.27,-0.3899999999999882,0.64
18.159,0.22,-0.43,0.51
18.179,0.11,-0.19,0.42
18.198999999999998,-0.12999999999992895,0.21999999999991118,0.24000000000005328
18.218999999999998,-0.4599999999999645,0.45,-0.019999999999928946
18.238999999999997,-0.54,0.4100000000000089,-0.2749999999999867
18.259,-0.58,0.4,-0.46
18.279,-0.85,0.68,-0.38
18.299,-0.86,0.33,0.19
18.319,0.32,-0.04,0.65
18.339,1.3019999999999887,-0.38799999999999,0.41800000000000426
18.358999999999998,1.480000000000071,-0.7099999999999467,0.2999999999999822
18.378999999999998,0.3200000000001066,-0.3400000000000444,0.2350000000000133
18.398999999999997,-1.3599999999998225,1.3499999999995915,0.009999999999928948
18.419,-0.91,1.59,0.3
18.439,0.595,-0.05499999999999999,0.17
18.459,1.25,-1.135,-0.13
18.479,0.6000000000000355,-0.3666666666667101,0.5999999999999527
18.499,0.45,-0.26,1.09
18.519,0.72,-0.86,0.74
18.538999999999998,0.5400000000001066,-1.190000000000071,0.2000000000001066
18.558999999999997,-0.13999999999988455,-0.5800000000000977,-0.06999999999998224
18.578999999999997,-1.2599999999998697,0.38999999999989343,-0.15999999999996448
18.599,-1.6920000000000028,0.6820000000000028,-0.39800000000000424
18.619,-1.57,0.63,-0.53
18.639,-1.27,0.82,-0.57
18.659,-0.96,0.95,-0.58
18.679,-0.79,0.7,-0.49
18.698999999999998,-0.5500000000001422,0.28000000000017766,-0.4599999999999645
18.718999999999998,-0.2900000000000355,0.11000000000002369,-0.4700000000000118
18.738999999999997,-0.18,0.08,-0.3700000000000237
18.759,-0.24,0.22,-0.33
18.779,-0.3,0.32,-0.33
18.799,-0.32,0.23799999999999716,-0.19799999999999715
18.819,-0.21,0.18,-0.08
18.839,0.03,0.14,-0.02
18.858999999999998,0.3399999999999527,-0.07999999999998816,0.039999999999988156
18.878999999999998,0.5299999999999881,-0.15999999999998815,0.06
18.898999999999997,0.6,-0.23,0.05
18.919,0.59,-0.09,-0.06
18.939,0.48,0.07,-0.13
18.959,0.2,0.18,-0.2
18.979,0.05,0.18,-0.23
18.999,0.04,0.18,-0.1
19.019,-0.03,0.16,-0.11
19.038999999999998,-0.11333333333332543,0.18666666666665088,-0.24666666666665088
19.058999999999997,-0.22999999999992896,0.3799999999998934,-0.4399999999998934
19.078999999999997,-0.3899999999999645,0.5499999999999468,-0.6299999999999467
19.099,-0.59,0.7,-0.63
19.119,-0.73,0.49,-0.61
19.139,-0.76,0.29,-0.6
19.159,-0.72,0.19,-0.48
19.179,-0.5566666666666982,0.18,-0.28666666666669827
19.198999999999998,-0.27500000000004443,0.11500000000002665,-0.08000000000001777
19.218999999999998,0.06999999999998816,0.005000000000005922,0.05
19.238999999999997,0.17,-0.04749999999998002,-0.04249999999999334
19.259,0.21,-0.11,0.09
19.279,0.16,0.02333333333333728,0.3066666666666746
19.299,0.1633333333333373,-0.10333333333334913,0.43
19.319,0.2349999999999911,-0.33499999999999114,0.41
19.339,0.28499999999999115,-0.36,0.29500000000000887
19.358999999999998,0.28,-0.2650000000000089,0.25
19.378999999999998,0.2949999999999911,-0.1350000000000089,0.25
19.398999999999997,0.3549999999999911,-0.04500000000000888,0.24
19.419,0.37,-0.035,0.2
19.439,0.32,0.065,0.215
19.459,0.265,0.18,0.3
19.479,0.31999999999998224,0.06500000000002665,0.40499999999999114
19.499,0.46,-0.35,0.47
19.519,0.65,-0.69,0.48
19.538999999999998,0.8299999999999822,-0.5400000000000178,0.5049999999999911
19.558999999999997,0.89,-0.6099999999999763,0.57
19.578999999999997,0.87,-0.8799999999999645,0.49000000000001775
19.599,0.7633333333333254,-0.9666666666666627,0.28999999999998816
19.619,0.48666666666665087,-0.7333333333333136,0.06999999999998816
19.639,0.14500000000004443,-0.35000000000005327,-0.10499999999997335
19.659,-0.3166666666666272,0.3566666666666035,-0.25
19.679,-0.5799999999999822,0.8349999999999556,-0.27
19.698999999999998,-0.6949999999999911,1.044999999999991,-0.26
19.718999999999998,-0.7280000000000042,1.0680000000000043,-0.18600000000000852
19.738999999999997,-0.6525000000000045,0.8500000000000177,-0.035000000000008885
19.759,-0.41500000000000004,0.41500000000000004,0.16
19.779,-0.1,-0.135,0.4
19.799,0.22999999999999998,-0.515,0.67
19.819,0.2564772727272721,-0.5364772727272721,0.6843181818181814
19.839,0.2632954545454537,-0.5432954545454537,0.6888636363636358
19.858999999999998,0.2701136363636353,-0.5501136363636353,0.6934090909090902
19.878999999999998,0.2769318181818169,-0.5569318181818169,0.6979545454545446
19.898999999999997,0.4399999999999467,-0.6899999999999822,0.76
19.919,0.25,-0.425,0.615
19.939,-0.8633333333333254,0.4333333333333254,0.040000000000011846
19.959,-0.96,0.66,-0.03
19.979,-0.8933333333333373,0.73,-0.02
19.999,-0.7166666666666746,0.5633333333333491,-0.03666666666666272
20.019,-0.5150000000000267,0.2150000000000444,-0.08499999999999111
20.038999999999998,-0.2800000000000178,-0.08499999999999111,-0.1
20.058999999999997,-0.1533333333333373,-0.006666666666674563,-0.1266666666666627
20.078999999999997,-0.12,0.18999999999998224,-0.20499999999999113
20.099,-0.165,0.39,-0.31
20.119,-0.28599999999999715,0.5079999999999986,-0.43599999999999717
20.139,-0.48499999999997334,0.5649999999999912,-0.5899999999999822
20.159,-0.6999999999999822,0.6649999999999912,-0.7249999999999911
20.179,-0.79,0.73,-0.7233333333333373
20.198999999999998,-0.7533333333333373,0.8,-0.5866666666666746
20.218999999999998,-0.6250000000000266,0.7200000000000177,-0.4150000000000267
20.238999999999997,-0.2500000000000237,0.353333333333361,-0.20666666666667458
20.259,0.25,-0.2,-0.045
20.279,0.89,-0.9099999999999999,0.165
20.299,1.1633333333333253,-1.2599999999999882,0.14333333333333728
20.319,1.1000000000000119,-1.0566666666666746,0.15333333333332544
20.339,0.8700000000000119,-0.8466666666666746,0.24
20.358999999999998,0.6640000000000057,-0.7220000000000029,0.18200000000000283
20.378999999999998,0.5700000000000355,-0.6800000000000356,0.14
20.398999999999997,0.6,-0.5466666666666746,0.2166666666666627
20.419,0.5733333333333372,-0.29000000000001186,0.2433333333333373
20.439,0.56,-0.19,0.18
20.459,0.5779999999999985,-0.13200000000000142,0.18
20.479,0.56,-0.2633333333333254,0.12333333333333728
20.499,0.5133333333333373,-0.5166666666666627,0.02333333333333728
20.519,0.39666666666667455,-0.5333333333333373,-0.04666666666666272
20.538999999999998,0.21666666666667456,-0.3700000000000118,-0.06
20.558999999999997,0.002000000000008526,-0.1480000000000128,-0.036000000000004265
20.578999999999997,-0.15666666666665877,0.02333333333331754,0.04666666666665877
20.599,-0.1633333333333373,0.04,0.11
20.619,-0.07333333333333729,-0.013333333333325438,0.17
20.639,0.05999999999998224,-0.12499999999999112,0.24999999999998224
20.659,0.22333333333332545,-0.2466666666666627,0.40333333333332544
20.679,0.35333333333332545,-0.41333333333332545,0.5166666666666627
20.698999999999998,0.43,-0.46,0.5799999999999822
20.718999999999998,0.3933333333333373,-0.45,0.6133333333333373
20.738999999999997,0.3133333333333373,-0.3666666666666746,0.6
20.759,0.20666666666667458,-0.24666666666667456,0.5233333333333373
20.779,0.04,-0.08,0.44
20.799,-0.09,0.01,0.38
20.819,-0.20666666666666272,0.06666666666666272,0.2933333333333373
20.839,-0.3049999999999911,0.11499999999999111,0.26
20.858999999999998,-0.3666666666666627,0.22666666666666271,0.28666666666666274
20.878999999999998,-0.35375000000000334,0.2962499999999967,0.31
20.898999999999997,-0.22000000000002368,0.3000000000000118,0.2500000000000237
20.919,-0.07,0.22,0.09
20.939,0.14,-0.02,0.06
20.959,0.33333333333332543,-0.2,0.11666666666666271
20.979,0.28800000000000425,-0.05400000000000568,0.2579999999999972
20.999,0.018000000000004263,0.29799999999999005,0.5559999999999943
21.019,-0.11666666666666271,0.5766666666666627,0.8633333333333254
21.038999999999998,-0.010000000000021318,0.4800000000000142,0.9899999999999929
21.058999999999997,0.25999999999992895,0.2500000000001066,0.8800000000000355
21.078999999999997,0.29000000000001774,-0.16999999999994672,0.7800000000000356
21.099,0.17,-0.4,0.34
21.119,-0.29,-0.04,-0.25
21.139,-0.535,0.8500000000000001,-0.545
21.159,-0.26,0.66,-0.5
21.179,0.06,-0.34,-0.77
21.198999999999998,0.27666666666666273,-0.6333333333333492,-1.2333333333333136
21.218999999999998,0.03000000000021316,-0.23000000000021317,-1.46
21.238999999999997,-0.5999999999998579,0.34999999999991116,-1.3400000000000356
21.259,-1.0239999999999987,0.23600000000000854,-1.3679999999999972
21.279,-0.6000000000000142,-0.09199999999999574,-1.54
21.299,0.014999999999995559,-0.58749999999998,-1.3675000000000068
21.319,-0.12,-1.1812499999999966,-1.2687500000000034
21.339,0.21,-1.64,-1.03
21.358999999999998,1.1399999999999646,-1.8550000000000149,-0.8450000000000089
21.378999999999998,2.1099999999998933,-1.2100000000000948,-0.75
21.398999999999997,2.308000000000034,-1.931999999999902,-0.4240000000000171
21.419,0.82,-2.55,-0.41
21.439,-0.685,-0.505,-0.35
21.459,-1.29,1.7180000000000257,-0.90200000000001
21.479,-0.93,1.56,-1.15
21.499,-0.6,0.88,-0.88
21.519,-0.79,0.88,-0.55
21.538999999999998,-0.8100000000000072,1.119999999999986,-0.32000000000002843
21.558999999999997,-0.7200000000000177,1.1400000000000532,0.14999999999987562
21.578999999999997,-0.5000000000000592,0.670000000000083,0.4299999999999763
21.599,-0.06,0.27,0.44
21.619,0.22,0.23,0.29
21.639,0.24,0.25,0.25
21.659,0.13,0.14,0.31
21.679,0.09,-0.01,0.13
21.698999999999998,0.14,-0.07,-0.17999999999996447
21.718999999999998,0.17999999999998814,0.03999999999997632,-0.3899999999999882
21.738999999999997,0.07500000000001776,0.2299999999999763,-0.41999999999998816
21.759,-0.35,0.52,-0.5
21.779,-0.7,0.65,-0.53
21.799,-1.085,0.81,-0.52
21.819,-1.07,0.6066666666666982,-0.4633333333333491
21.839,-1.01,0.43,-0.3
21.858999999999998,-1.2933333333333017,0.7899999999999052,-0.27
21.878999999999998,-1.4700000000000237,1.7299999999998816,-0.21000000000003552
21.898999999999997,-1.096666666666722,1.5366666666667694,0.4699999999999526
21.919,-0.3699999999999526,0.25333333333326624,0.8000000000000237
21.939,0.87,-0.47,1.39
21.959,1.94,-1.15,2.18
21.979,2.5633333333333255,-1.7399999999999762,2.383333333333373
21.999,2.200000000000089,-1.9100000000000532,1.72500000000008
22.019,1.0933333333334674,-1.0200000000000948,1.2000000000000237
22.038999999999998,-0.27333333333320703,-0.1933333333333965,1.0300000000000238
22.058999999999997,-1.2199999999996802,0.22999999999982237,0.8100000000001066
22.078999999999997,-1.6499999999999821,0.34,0.580000000000071
22.099,-1.37,0.26,0.25
22.119,-0.6366666666666272,0.2566666666666627,-0.01333333333333728
22.139,0.06999999999996448,0.09500000000000888,-0.03750000000000444
22.159,0.47399999999998865,-0.11399999999998864,0.06799999999999148
22.179,0.65,-0.5099999999999764,0.28333333333332544
22.198999999999998,0.5466666666666746,-0.7366666666666508,0.3066666666666746
22.218999999999998,0.3600000000000237,-0.7766666666666746,0.22
22.238999999999997,0.1340000000000128,-0.5940000000000127,0.20199999999999574
22.259,-0.04333333333333728,-0.3166666666666509,0.19666666666666272
22.279,-0.11000815217391305,-0.07997554347826087,0.07998369565217392
22.299,-0.11003532608695653,-0.07989402173913043,0.07992934782608696
22.319,-0.1100625,-0.07981250000000001,0.079875
22.339,-0.11008967391304347,-0.07973097826086957,0.07982065217391304
22.358999999999998,-0.11011684782608695,-0.07964945652173913,0.0797663043478261
22.378999999999998,-0.11014402173913043,-0.0795679347826087,0.07971195652173914
22.398999999999997,-0.11017119565217391,-0.07948641304347827,0.07965760869565218
22.419,-0.11019836956521739,-0.07940489130434783,0.07960326086956522
22.439,-0.11022554347826087,-0.07932336956521739,0.07954891304347826
22.459,-0.11025271739130435,-0.07924184782608695,0.0794945652173913
22.479,-0.11027989130434783,-0.07916032608695653,0.07944021739130436
22.499,-0.11030706521739131,-0.07907880434782609,0.0793858695652174
22.519,-0.11033423913043477,-0.07899728260869567,0.07933152173913044
22.538999999999998,-0.11036141304347825,-0.07891576086956523,0.07927717391304348
22.558999999999997,-0.11038858695652173,-0.07883423913043479,0.07922282608695654
22.578999999999997,-0.11041576086956521,-0.07875271739130436,0.07916847826086958
22.599,-0.11044293478260869,-0.07867119565217391,0.0791141304347826
22.619,-0.11047010869565217,-0.07858967391304347,0.07905978260869566
22.639,-0.11049728260869565,-0.07850815217391305,0.0790054347826087
22.659,-0.11052445652173913,-0.07842663043478261,0.07895108695652174
22.679,-0.11055163043478261,-0.07834510869565219,0.07889673913043478
22.698999999999998,-0.11057880434782609,-0.07826358695652175,0.07884239130434784
22.718999999999998,-0.11060597826086957,-0.07818206521739131,0.07878804347826088
22.738999999999997,-0.11063315217391304,-0.07810054347826088,0.07873369565217392
22.759,-0.11066032608695653,-0.07801902173913043,0.07867934782608696
22.779,-0.1106875,-0.0779375,0.078625
22.799,-0.11071467391304347,-0.07785597826086957,0.07857065217391304
22.819,-0.11074184782608695,-0.07777445652173913,0.0785163043478261
22.839,-0.11076902173913043,-0.0776929347826087,0.07846195652173914
22.858999999999998,-0.11079619565217391,-0.07761141304347827,0.07840760869565218
22.878999999999998,-0.11082336956521739,-0.07752989130434784,0.07835326086956522
22.898999999999997,-0.11085054347826087,-0.0774483695652174,0.07829891304347827
22.919,-0.11087771739130435,-0.07736684782608695,0.0782445652173913
22.939,-0.11090489130434783,-0.07728532608695653,0.07819021739130434
22.959,-0.11093206521739131,-0.07720380434782609,0.0781358695652174
22.979,-0.11095923913043479,-0.07712228260869565,0.07808152173913044
22.999,-0.11098641304347825,-0.07704076086956523,0.07802717391304348
23.019,-0.11101358695652173,-0.07695923913043479,0.07797282608695652
23.038999999999998,-0.11104076086956521,-0.07687771739130436,0.07791847826086958
23.058999999999997,-0.1110679347826087,-0.07679619565217392,0.07786413043478262
23.078999999999997,-0.11109510869565217,-0.07671467391304349,0.07780978260869566
23.099,-0.11112228260869565,-0.07663315217391305,0.0777554347826087
23.119,-0.11114945652173913,-0.07655163043478261,0.07770108695652174
23.139,-0.11117663043478261,-0.07647010869565218,0.07764673913043478
23.159,-0.11120380434782609,-0.07638858695652175,0.07759239130434784
23.179,-0.11123097826086957,-0.0763070652173913,0.07753804347826088
23.198999999999998,-0.11125815217391304,-0.07622554347826088,0.07748369565217392
23.218999999999998,-0.11128532608695652,-0.07614402173913044,0.07742934782608696
23.238999999999997,-0.1113125,-0.0760625,0.07737500000000001
23.259,-0.11133967391304347,-0.07598097826086957,0.07732065217391304
23.279,-0.11136684782608695,-0.07589945652173913,0.07726630434782608
23.299,-0.11139402173913043,-0.0758179347826087,0.07721195652173914
23.319,-0.11142119565217391,-0.07573641304347827,0.07715760869565218
23.339,-0.11144836956521739,-0.07565489130434783,0.07710326086956522
23.358999999999998,-0.11147554347826087,-0.0755733695652174,0.07704891304347826
23.378999999999998,-0.11150271739130435,-0.07549184782608696,0.07699456521739131
23.398999999999997,-0.11152989130434782,-0.07541032608695654,0.07694021739130436
23.419,-0.11155706521739131,-0.07532880434782609,0.0768858695652174
23.439,-0.11158423913043479,-0.07524728260869565,0.07683152173913044
23.459,-0.11161141304347826,-0.07516576086956522,0.07677717391304348
23.479,-0.11163858695652173,-0.07508423913043479,0.07672282608695652
23.499,-0.11166576086956521,-0.07500271739130435,0.07666847826086957
23.519,-0.1116929347826087,-0.07492119565217392,0.07661413043478262
23.538999999999998,-0.11172010869565217,-0.07483967391304348,0.07655978260869566
23.558999999999997,-0.11174728260869565,-0.07475815217391306,0.0765054347826087
23.578999999999997,-0.11177445652173913,-0.07467663043478262,0.07645108695652175
23.599,-0.11180163043478261,-0.07459510869565217,0.07639673913043478
23.619,-0.11182880434782609,-0.07451358695652174,0.07634239130434782
23.639,-0.11185597826086957,-0.0744320652173913,0.07628804347826088
23.659,-0.11188315217391304,-0.07435054347826088,0.07623369565217392
23.679,-0.11191032608695652,-0.07426902173913044,0.07617934782608696
23.698999999999998,-0.1119375,-0.0741875,0.076125
23.718999999999998,-0.11196467391304347,-0.07410597826086958,0.07607065217391305
23.738999999999997,-0.11199184782608695,-0.07402445652173914,0.0760163043478261
23.759,-0.11201902173913043,-0.07394293478260869,0.07596195652173914
23.779,-0.11204619565217391,-0.07386141304347826,0.07590760869565218
23.799,-0.11207336956521739,-0.07377989130434782,0.07585326086956522
23.819,-0.11210054347826087,-0.0736983695652174,0.07579891304347826
23.839,-0.11212771739130435,-0.07361684782608696,0.07574456521739131
23.858999999999998,-0.11215489130434782,-0.07353532608695652,0.07569021739130435
23.878999999999998,-0.1121820652173913,-0.0734538043478261,0.0756358695652174
23.898999999999997,-0.11220923913043478,-0.07337228260869566,0.07558152173913044
23.919,-0.11223641304347826,-0.07329076086956522,0.07552717391304348
23.939,-0.11226358695652174,-0.07320923913043478,0.07547282608695652
23.959,-0.11229076086956521,-0.07312771739130434,0.07541847826086956
23.979,-0.1123179347826087,-0.07304619565217392,0.07536413043478261
23.999,-0.11234510869565217,-0.07296467391304348,0.07530978260869566
24.019,-0.11237228260869565,-0.07288315217391306,0.0752554347826087
24.038999999999998,-0.11239945652173913,-0.07280163043478262,0.07520108695652175
24.058999999999997,-0.1124266304347826,-0.07272010869565218,0.07514673913043479
24.079,-0.11245380434782609,-0.07263858695652174,0.07509239130434782
24.099,-0.11248097826086957,-0.0725570652173913,0.07503804347826087
24.119,-0.11250815217391304,-0.07247554347826086,0.07498369565217392
24.139,-0.11253532608695652,-0.07239402173913044,0.07492934782608696
24.159,-0.1125625,-0.0723125,0.074875
24.179,-0.11258967391304348,-0.07223097826086958,0.07482065217391305
24.198999999999998,-0.11261684782608695,-0.07214945652173914,0.07476630434782609
24.218999999999998,-0.11264402173913043,-0.0720679347826087,0.07471195652173913
24.238999999999997,-0.11267119565217391,-0.07198641304347828,0.07465760869565218
24.259,-0.1126983695652174,-0.07190489130434782,0.07460326086956522
24.279,-0.11272554347826087,-0.0718233695652174,0.07454891304347826
24.299,-0.11275271739130435,-0.07174184782608696,0.07449456521739131
24.319,-0.11277989130434782,-0.07166032608695652,0.07444021739130435
24.339,-0.1128070652173913,-0.0715788043478261,0.0743858695652174
24.358999999999998,-0.11283423913043478,-0.07149728260869566,0.07433152173913044
24.378999999999998,-0.11286141304347826,-0.07141576086956522,0.07427717391304349
24.398999999999997,-0.11288858695652174,-0.0713342391304348,0.07422282608695653
24.419,-0.11291576086956522,-0.07125271739130434,0.07416847826086956
24.439,-0.1129429347826087,-0.07117119565217392,0.07411413043478261
24.459,-0.11297010869565217,-0.07108967391304348,0.07405978260869565
24.479,-0.11299728260869565,-0.07100815217391304,0.0740054347826087
24.499,-0.11302445652173913,-0.07092663043478262,0.07395108695652174
24.519,-0.11305163043478261,-0.07084510869565218,0.07389673913043479
24.538999999999998,-0.11307880434782608,-0.07076358695652175,0.07384239130434783
24.558999999999997,-0.11310597826086956,-0.07068206521739132,0.07378804347826087
24.579,-0.11313315217391304,-0.07060054347826086,0.07373369565217391
24.599,-0.11316032608695652,-0.07051902173913044,0.07367934782608695
24.619,-0.1131875,-0.0704375,0.073625
24.639,-0.11321467391304348,-0.07035597826086956,0.07357065217391304
24.659,-0.11324184782608696,-0.07027445652173914,0.07351630434782609
24.679,-0.11326902173913043,-0.0701929347826087,0.07346195652173913
24.698999999999998,-0.11329619565217391,-0.07011141304347827,0.07340760869565217
24.718999999999998,-0.1133233695652174,-0.07002989130434784,0.07335326086956523
24.738999999999997,-0.11335054347826086,-0.06994836956521741,0.07329891304347827
24.759,-0.11337771739130435,-0.06986684782608696,0.0732445652173913
24.779,-0.11340489130434783,-0.06978532608695652,0.07319021739130435
24.799,-0.1134320652173913,-0.0697038043478261,0.07313586956521739
24.819,-0.11345923913043478,-0.06962228260869566,0.07308152173913043
24.839,-0.11348641304347826,-0.06954076086956522,0.07302717391304347
24.858999999999998,-0.11351358695652174,-0.0694592391304348,0.07297282608695653
24.878999999999998,-0.11354076086956522,-0.06937771739130436,0.07291847826086957
24.898999999999997,-0.1135679347826087,-0.06929619565217393,0.07286413043478261
24.919,-0.11359510869565217,-0.06921467391304348,0.07280978260869565
24.939,-0.11362228260869565,-0.06913315217391304,0.0727554347826087
24.959,-0.11364945652173913,-0.06905163043478262,0.07270108695652173
24.979,-0.11367663043478261,-0.06897010869565218,0.07264673913043479
24.999,-0.11370380434782608,-0.06888858695652175,0.07259239130434783
25.019,-0.11373097826086956,-0.06880706521739131,0.07253804347826087
25.038999999999998,-0.11375815217391304,-0.06872554347826088,0.07248369565217391
25.058999999999997,-0.11378532608695652,-0.06864402173913045,0.07242934782608697
25.079,-0.1138125,-0.0685625,0.072375
25.099,-0.11383967391304348,-0.06848097826086956,0.07232065217391304
25.119,-0.11386684782608696,-0.06839945652173914,0.07226630434782609
25.139,-0.11389402173913044,-0.0683179347826087,0.07221195652173913
25.159,-0.11392119565217391,-0.06823641304347827,0.07215760869565217
25.179,-0.1139483695652174,-0.06815489130434783,0.07210326086956523
25.198999999999998,-0.11397554347826086,-0.0680733695652174,0.07204891304347827
25.218999999999998,-0.11400271739130434,-0.06799184782608697,0.07199456521739131
25.238999999999997,-0.11402989130434782,-0.06791032608695653,0.07194021739130435
25.259,-0.1140570652173913,-0.0678288043478261,0.07188586956521739
25.279,-0.11408423913043478,-0.06774728260869566,0.07183152173913043
25.299,-0.11411141304347826,-0.06766576086956522,0.07177717391304347
25.319,-0.11413858695652174,-0.06758423913043479,0.07172282608695653
25.339,-0.11416576086956522,-0.06750271739130435,0.07166847826086957
25.358999999999998,-0.1141929347826087,-0.06742119565217392,0.07161413043478261
25.378999999999998,-0.11422010869565218,-0.06733967391304349,0.07155978260869565
25.398999999999997,-0.11424728260869565,-0.06725815217391305,0.0715054347826087
25.419,-0.11427445652173913,-0.06717663043478261,0.07145108695652173
25.439,-0.11430163043478261,-0.06709510869565218,0.07139673913043477
25.459,-0.11432880434782608,-0.06701358695652174,0.07134239130434783
25.479,-0.11435597826086956,-0.06693206521739131,0.07128804347826087
25.499,-0.11438315217391304,-0.06685054347826087,0.07123369565217391
25.519,-0.11441032608695652,-0.06676902173913044,0.07117934782608695
25.538999999999998,-0.1144375,-0.06668750000000001,0.07112500000000001
25.558999999999997,-0.11446467391304348,-0.06660597826086957,0.07107065217391305
25.579,-0.11449184782608696,-0.06652445652173913,0.07101630434782608
25.599,-0.11451902173913044,-0.0664429347826087,0.07096195652173913
25.619,-0.11454619565217392,-0.06636141304347826,0.07090760869565217
25.639,-0.1145733695652174,-0.06627989130434783,0.07085326086956521
25.659,-0.11460054347826087,-0.0661983695652174,0.07079891304347827
25.679,-0.11462771739130434,-0.06611684782608697,0.07074456521739131
25.698999999999998,-0.11465489130434782,-0.06603532608695653,0.07069021739130435
25.718999999999998,-0.1146820652173913,-0.06595380434782609,0.07063586956521739
25.738999999999997,-0.11470923913043478,-0.06587228260869567,0.07058152173913045
25.759,-0.11473641304347826,-0.06579076086956522,0.07052717391304347
25.779,-0.11476358695652174,-0.06570923913043478,0.07047282608695651
25.799,-0.11479076086956522,-0.06562771739130435,0.07041847826086957
25.819,-0.1148179347826087,-0.06554619565217391,0.07036413043478261
25.839,-0.11484510869565218,-0.06546467391304349,0.07030978260869565
25.858999999999998,-0.11487228260869564,-0.06538315217391305,0.0702554347826087
25.878999999999998,-0.11489945652173912,-0.06530163043478263,0.07020108695652175
25.898999999999997,-0.1149266304347826,-0.06522010869565219,0.07014673913043479
25.919,-0.1149538043478261,-0.06513858695652174,0.07009239130434783
25.939,-0.11498097826086956,-0.06505706521739131,0.07003804347826087
25.959,-0.11500815217391304,-0.06497554347826087,0.06998369565217391
25.979,-0.11503532608695652,-0.06489402173913043,0.06992934782608695
25.999,-0.1150625,-0.06481250000000001,0.069875
26.019,-0.11508967391304348,-0.06473097826086957,0.06982065217391305
26.038999999999998,-0.11511684782608696,-0.06464945652173915,0.06976630434782609
26.058999999999997,-0.11514402173913044,-0.06456793478260871,0.06971195652173913
26.079,-0.11517119565217392,-0.06448641304347826,0.06965760869565217
26.099,-0.1151983695652174,-0.06440489130434783,0.06960326086956521
26.119,-0.11522554347826086,-0.06432336956521739,0.06954891304347827
26.139,-0.11525271739130434,-0.06424184782608697,0.06949456521739131
26.159,-0.11527989130434782,-0.06416032608695653,0.06944021739130435
26.179,-0.1153070652173913,-0.06407880434782609,0.06938586956521739
26.198999999999998,-0.11533423913043478,-0.06399728260869567,0.06933152173913043
26.218999999999998,-0.11536141304347826,-0.06391576086956523,0.06927717391304349
26.238999999999997,-0.11538858695652174,-0.06383423913043479,0.06922282608695653
26.259,-0.11541576086956522,-0.06375271739130435,0.06916847826086957
26.279,-0.1154429347826087,-0.06367119565217391,0.06911413043478261
26.299,-0.11547010869565218,-0.06358967391304349,0.06905978260869565
26.319,-0.11549728260869566,-0.06350815217391305,0.06900543478260869
26.339,-0.11552445652173912,-0.06342663043478261,0.06895108695652175
26.358999999999998,-0.1155516304347826,-0.06334510869565219,0.06889673913043479
26.378999999999998,-0.11557880434782608,-0.06326358695652175,0.06884239130434783
26.398999999999997,-0.11560597826086956,-0.06318206521739131,0.06878804347826087
26.419,-0.11563315217391304,-0.06310054347826087,0.06873369565217391
26.439,-0.11566032608695652,-0.06301902173913043,0.06867934782608695
26.459,-0.1156875,-0.06293750000000001,0.06862499999999999
26.479,-0.11571467391304348,-0.06285597826086957,0.06857065217391305
26.499,-0.11574184782608696,-0.06277445652173913,0.06851630434782609
26.519,-0.11576902173913044,-0.0626929347826087,0.06846195652173913
26.538999999999998,-0.1157961956521739,-0.06261141304347827,0.06840760869565218
26.558999999999997,-0.11582336956521738,-0.06252989130434783,0.06835326086956522
26.579,-0.11585054347826088,-0.06244836956521739,0.06829891304347825
26.599,-0.11587771739130434,-0.06236684782608695,0.0682445652173913
26.619,-0.11590489130434782,-0.06228532608695653,0.06819021739130435
26.639,-0.1159320652173913,-0.06220380434782609,0.06813586956521739
26.659,-0.11595923913043478,-0.06212228260869566,0.06808152173913043
26.679,-0.11598641304347826,-0.062040760869565226,0.06802717391304348
26.698999999999998,-0.11601358695652174,-0.06195923913043479,0.06797282608695653
26.718999999999998,-0.11604076086956522,-0.06187771739130436,0.06791847826086957
26.738999999999997,-0.11606793478260868,-0.061796195652173924,0.06786413043478262
26.759,-0.11609510869565218,-0.06171467391304348,0.06780978260869565
26.779,-0.11612228260869566,-0.06163315217391305,0.06775543478260869
26.799,-0.11614945652173912,-0.06155163043478261,0.06770108695652174
26.819,-0.1161766304347826,-0.06147010869565218,0.06764673913043479
26.839,-0.11620380434782608,-0.061388586956521746,0.06759239130434783
26.858999999999998,-0.11623097826086956,-0.061307065217391314,0.06753804347826087
26.878999999999998,-0.11625815217391304,-0.06122554347826088,0.06748369565217392
26.898999999999997,-0.11628532608695652,-0.061144021739130444,0.06742934782608696
26.919,-0.1163125,-0.0610625,0.06737499999999999
26.939,-0.11633967391304348,-0.06098097826086957,0.06732065217391305
26.959,-0.11636684782608696,-0.06089945652173913,0.06726630434782609
26.979,-0.11639402173913044,-0.060817934782608704,0.06721195652173913
26.999,-0.1164211956521739,-0.060736413043478266,0.06715760869565217
27.019,-0.11644836956521738,-0.060654891304347834,0.06710326086956522
27.038999999999998,-0.11647554347826086,-0.0605733695652174,0.06704891304347826
27.058999999999997,-0.11650271739130434,-0.060491847826086964,0.0669945652173913
27.079,-0.11652989130434782,-0.06041032608695652,0.06694021739130435
27.099,-0.1165570652173913,-0.06032880434782609,0.06688586956521739
27.119,-0.11658423913043478,-0.060247282608695656,0.06683152173913043
27.139,-0.11661141304347826,-0.060165760869565224,0.06677717391304347
27.159,-0.11663858695652174,-0.060084239130434786,0.06672282608695652
27.179,-0.11666576086956522,-0.060002717391304354,0.06666847826086957
27.198999999999998,-0.1166929347826087,-0.05992119565217392,0.0666141304347826
27.218999999999998,-0.11672010869565216,-0.059839673913043484,0.06655978260869566
27.238999999999997,-0.11674728260869564,-0.05975815217391306,0.0665054347826087
27.259,-0.11677445652173912,-0.05967663043478261,0.06645108695652173
27.279,-0.1168016304347826,-0.059595108695652176,0.06639673913043478
27.299,-0.11682880434782608,-0.059513586956521744,0.06634239130434783
27.319,-0.11685597826086956,-0.059432065217391306,0.06628804347826087
27.339,-0.11688315217391304,-0.05935054347826088,0.06623369565217391
27.358999999999998,-0.11691032608695652,-0.05926902173913044,0.06617934782608696
27.378999999999998,-0.1169375,-0.05918750000000001,0.066125
27.398999999999997,-0.11696467391304348,-0.05910597826086958,0.06607065217391304
27.419,-0.11699184782608696,-0.05902445652173913,0.06601630434782609
27.439,-0.11701902173913044,-0.058942934782608696,0.06596195652173913
27.459,-0.11704619565217392,-0.058861413043478264,0.06590760869565217
27.479,-0.11707336956521738,-0.058779891304347825,0.06585326086956522
27.499,-0.11710054347826086,-0.0586983695652174,0.06579891304347826
27.519,-0.11712771739130434,-0.05861684782608696,0.0657445652173913
27.538999999999998,-0.11715489130434782,-0.05853532608695653,0.06569021739130435
27.558999999999997,-0.1171820652173913,-0.0584538043478261,0.0656358695652174
27.579,-0.11720923913043478,-0.05837228260869565,0.06558152173913043
27.599,-0.11723641304347826,-0.05829076086956522,0.06552717391304347
27.619,-0.11726358695652174,-0.058209239130434784,0.06547282608695652
27.639,-0.11729076086956522,-0.05812771739130435,0.06541847826086956
27.659,-0.1173179347826087,-0.05804619565217392,0.0653641304347826
27.679,-0.11734510869565216,-0.05796467391304348,0.06530978260869566
27.698999999999998,-0.11737228260869564,-0.05788315217391305,0.0652554347826087
27.718999999999998,-0.11739945652173912,-0.05780163043478262,0.06520108695652174
27.738999999999997,-0.1174266304347826,-0.05772010869565219,0.06514673913043478
27.759,-0.11745380434782608,-0.05763858695652174,0.06509239130434782
27.779,-0.11748097826086956,-0.057557065217391304,0.06503804347826087
27.799,-0.11750815217391304,-0.05747554347826087,0.0649836956521739
27.819,-0.11753532608695652,-0.05739402173913044,0.06492934782608696
27.839,-0.1175625,-0.0573125,0.064875
27.858999999999998,-0.11758967391304348,-0.05723097826086958,0.06482065217391304
27.878999999999998,-0.11761684782608695,-0.05714945652173914,0.06476630434782608
27.898999999999997,-0.11764402173913042,-0.05706793478260871,0.06471195652173914
27.919,-0.11767119565217392,-0.05698641304347826,0.06465760869565217
27.939,-0.11769836956521738,-0.056904891304347824,0.06460326086956522
27.959,-0.11772554347826086,-0.05682336956521739,0.06454891304347826
27.979,-0.11775271739130434,-0.05674184782608696,0.0644945652173913
27.999,-0.11777989130434782,-0.05666032608695653,0.06444021739130434
28.019,-0.1178070652173913,-0.0565788043478261,0.06438586956521739
28.038999999999998,-0.11783423913043478,-0.05649728260869566,0.06433152173913044
28.058999999999997,-0.11786141304347826,-0.05641576086956523,0.06427717391304348
28.079,-0.11788858695652174,-0.05633423913043478,0.06422282608695651
28.099,-0.11791576086956522,-0.056252717391304344,0.06416847826086956
28.119,-0.1179429347826087,-0.05617119565217392,0.0641141304347826
28.139,-0.11797010869565216,-0.05608967391304348,0.06405978260869565
28.159,-0.11799728260869564,-0.05600815217391305,0.0640054347826087
28.179,-0.11802445652173912,-0.05592663043478262,0.06395108695652174
28.198999999999998,-0.1180516304347826,-0.05584510869565218,0.06389673913043478
28.218999999999998,-0.11807880434782608,-0.055763586956521755,0.06384239130434782
28.238999999999997,-0.11810597826086956,-0.055682065217391316,0.06378804347826088
28.259,-0.11813315217391304,-0.05560054347826087,0.0637336956521739
28.279,-0.11816032608695652,-0.05551902173913044,0.06367934782608695
28.299,-0.1181875,-0.0554375,0.063625
28.319,-0.11821467391304348,-0.05535597826086957,0.06357065217391304
28.339,-0.11824184782608696,-0.05527445652173914,0.06351630434782608
28.358999999999998,-0.11826902173913043,-0.0551929347826087,0.06346195652173914
28.378999999999998,-0.1182961956521739,-0.055111413043478275,0.06340760869565218
28.398999999999997,-0.11832336956521738,-0.055029891304347836,0.06335326086956522
28.419,-0.11835054347826086,-0.05494836956521739,0.06329891304347826
28.439,-0.11837771739130434,-0.05486684782608696,0.0632445652173913
28.459,-0.11840489130434782,-0.05478532608695652,0.06319021739130434
28.479,-0.1184320652173913,-0.054703804347826096,0.06313586956521738
28.499,-0.11845923913043478,-0.05462228260869566,0.06308152173913044
28.519,-0.11848641304347826,-0.054540760869565226,0.06302717391304348
28.538999999999998,-0.11851358695652173,-0.054459239130434794,0.06297282608695652
28.558999999999997,-0.1185407608695652,-0.054377717391304356,0.06291847826086958
28.579,-0.1185679347826087,-0.05429619565217391,0.0628641304347826
28.599,-0.11859510869565218,-0.05421467391304348,0.06280978260869564
28.619,-0.11862228260869565,-0.05413315217391304,0.0627554347826087
28.639,-0.11864945652173912,-0.054051630434782616,0.06270108695652174
28.659,-0.1186766304347826,-0.05397010869565218,0.06264673913043478
28.679,-0.11870380434782608,-0.053888586956521746,0.06259239130434782
28.698999999999998,-0.11873097826086956,-0.053807065217391314,0.06253804347826086
28.718999999999998,-0.11875815217391304,-0.053725543478260876,0.06248369565217392
28.738999999999997,-0.11878532608695652,-0.05364402173913045,0.06242934782608696
28.759,-0.1188125,-0.0535625,0.062375
28.779,-0.11883967391304348,-0.05348097826086957,0.06232065217391304
28.799,-0.11886684782608695,-0.053399456521739136,0.06226630434782608
28.819,-0.11889402173913043,-0.0533179347826087,0.06221195652173913
28.839,-0.1189211956521739,-0.053236413043478266,0.06215760869565218
28.858999999999998,-0.11894836956521739,-0.053154891304347834,0.06210326086956522
28.878999999999998,-0.11897554347826086,-0.0530733695652174,0.06204891304347826
28.898999999999997,-0.11900271739130434,-0.05299184782608697,0.06199456521739131
28.919,-0.11902989130434782,-0.05291032608695652,0.06194021739130434
28.939,-0.1190570652173913,-0.05282880434782609,0.06188586956521738
28.959,-0.11908423913043478,-0.052747282608695656,0.06183152173913043
28.979,-0.11911141304347826,-0.05266576086956522,0.06177717391304348
28.999,-0.11913858695652174,-0.05258423913043479,0.06172282608695652
29.019,-0.11916576086956521,-0.052502717391304354,0.06166847826086956
29.038999999999998,-0.11919293478260869,-0.05242119565217392,0.06161413043478261
29.058999999999997,-0.11922010869565217,-0.05233967391304349,0.06155978260869566
29.079,-0.11924728260869565,-0.05225815217391304,0.06150543478260869
29.099,-0.11927445652173913,-0.05217663043478261,0.06145108695652174
29.119,-0.1193016304347826,-0.052095108695652176,0.06139673913043478
29.139,-0.11932880434782608,-0.052013586956521744,0.06134239130434782
29.159,-0.11935597826086956,-0.05193206521739131,0.06128804347826087
29.179,-0.11938315217391304,-0.051850543478260874,0.06123369565217392
29.198999999999998,-0.11941032608695652,-0.05176902173913044,0.06117934782608696
29.218999999999998,-0.1194375,-0.05168750000000001,0.061125
29.238999999999997,-0.11946467391304347,-0.05160597826086957,0.06107065217391305
29.259,-0.11949184782608696,-0.051524456521739134,0.06101630434782608
29.279,-0.11951902173913043,-0.051442934782608696,0.06096195652173912
29.299,-0.1195461956521739,-0.051361413043478264,0.06090760869565217
29.319,-0.11957336956521739,-0.05127989130434783,0.06085326086956522
29.339,-0.11960054347826087,-0.051198369565217394,0.06079891304347826
29.358999999999998,-0.11962771739130434,-0.05111684782608697,0.0607445652173913
29.378999999999998,-0.11965489130434782,-0.05103532608695653,0.06069021739130435
29.398999999999997,-0.1196820652173913,-0.0509538043478261,0.060635869565217396
29.419,-0.11970923913043478,-0.050872282608695654,0.06058152173913043
29.439,-0.11973641304347826,-0.050790760869565216,0.06052717391304348
29.459,-0.11976358695652174,-0.050709239130434784,0.06047282608695652
29.479,-0.11979076086956522,-0.05062771739130435,0.06041847826086956
29.499,-0.11981793478260869,-0.050546195652173914,0.06036413043478261
29.519,-0.11984510869565217,-0.05046467391304349,0.060309782608695656
29.538999999999998,-0.11987228260869565,-0.05038315217391305,0.0602554347826087
29.558999999999997,-0.11989945652173913,-0.05030163043478262,0.06020108695652174
29.579,-0.1199266304347826,-0.050220108695652174,0.06014673913043478
29.599,-0.11995380434782608,-0.050138586956521736,0.06009239130434782
29.619,-0.11998097826086956,-0.05005706521739131,0.06003804347826086
29.639,-0.12,-0.04076923076923161,0.04615384615384741
29.659,-0.12541666666666568,-0.013750000000002961,0.019166666666668643
29.679,-0.07091603053437073,0.177633587786204,-0.0876335877862338
29.698999999999998,0.060381679389293924,0.5501526717556712,-0.26015267175570017
29.718999999999998,0.19167938931295858,0.9226717557251384,-0.4326717557251665
29.738999999999997,0.32297709923662327,1.2951908396946055,-0.6051908396946328
29.759,0.45427480916031127,1.6677099236641388,-0.7777099236641298
29.779,0.5855725190839759,2.040229007633606,-0.9502290076335962
29.799,0.7168702290076405,2.4127480916030732,-1.1227480916030625
29.819,0.8133333333333255,2.5233333333333254,-1.3399999999999763
29.839,0.8866666666666627,2.6833333333333256,-1.5233333333333254
29.858999999999998,0.88,2.5580000000000114,-1.6079999999999972
29.878999999999998,0.27142857142858884,1.56,-2.001428571428558
29.898999999999997,-0.279999999999929,1.9999999999998934,-2.120000000000071
29.919,-0.3959999999999972,2.2319999999999944,-1.7340000000000029
29.939,-0.72,2.9749999999999996,-1.57
29.959,-1.3,4.35,-1.41
29.979,-1.84,5.11,-1.38
29.999,-2.139999999999988,4.823333333333372,-1.3433333333333373
30.019,-2.1,4.2,-1.25
30.038999999999998,-1.7000000000000828,3.7400000000000833,-1.1600000000000237
30.058999999999997,-1.1400000000000712,3.285000000000044,-1.0300000000000178
30.079,-0.57,2.76,-0.78
30.099,-0.16,2.16,-0.52
30.119,0.23,1.83,-0.36
30.139,0.52,1.31,-0.35
30.159,0.6,0.72,-0.45
30.179,0.69,0.41,-0.61
30.198999999999998,0.6766666666666745,0.24666666666667456,-0.14666666666671008
30.218999999999998,0.4000000000000533,0.23000000000001777,0.3500000000000355
30.238999999999997,0.35,0.053333333333337285,0.10666666666667457
30.259,0.33,0.015,-0.03
30.279,0.38,0.05,-0.06
30.299,0.41,0.53,-0.06
30.319,0.53,0.88,0.02
30.339,0.7899999999999929,1.0919999999999959,0.07399999999999858
30.358999999999998,1.7399999999998934,0.9700000000003552,-0.02
30.378999999999998,1.1300000000002486,0.4900000000000533,0.0
30.398999999999997,0.2400000000001421,0.6899999999999644,0.01
30.419,-0.11,0.61,-0.12
30.439,-0.19,0.39,-0.26
30.459,-0.36,-0.29,-0.25
30.479,-0.2,-0.26,-0.22
30.499,0.48,0.08,-0.02
30.519,0.39,-0.11,-0.0
30.538999999999998,0.2700000000000097,-0.14999999999999353,0.01999999999999677
30.558999999999997,-0.004186046511612446,-0.3467441860465076,0.050465116279074476
30.579,-0.11116279069767751,-0.3746511627906985,0.017906976744185107
30.599,-0.6285714285714264,-0.4128571428571421,-0.05714285714285787
30.619,-0.66,-0.41000000000000003,-0.045
30.639,-0.5940000000000056,-0.30800000000000427,-0.06
30.659,-0.44,-0.27,-0.07
30.679,-0.36263157894736997,-0.236315789473685,-0.086315789473685
30.698999999999998,-0.20727272727273022,-0.08727272727273021,-0.06
30.718999999999998,-0.16,-0.010000000000035527,-0.03
30.738999999999997,-0.16,-0.01,-0.03
30.759,-0.1,-0.01,-0.07
30.779,0.11,0.01,-0.12
30.799,0.23,0.07,-0.15
30.819,0.3733333333333254,0.11,-0.1
30.839,0.44249999999999556,0.12,-0.05
30.858999999999998,0.44,0.14499999999999114,-0.04
30.878999999999998,0.44,0.10000000000001184,-0.03000000000001184
30.898999999999997,0.45,-0.0033333333333254384,-0.04
30.919,0.39,-0.03,-0.04
30.939,0.22333333333332545,-0.02,-0.04
30.959,0.023333333333325438,0.08333333333333728,-0.016666666666662718
30.979,-0.05,0.06333333333334913,0.016666666666674563
30.999,-0.06333333333332544,-0.08333333333332543,0.02
31.019,-0.13,-0.16333333333332545,0.0
31.038999999999998,-0.18999999999998815,-0.26,-0.03
31.058999999999997,-0.27,-0.33333333333332543,-0.06
31.079,-0.3,-0.3933333333333373,-0.02666666666666272
31.099,-0.29,-0.37,0.05
31.119,-0.34,-0.33,0.07
31.139,-0.5366666666666589,-0.6266666666666588,0.01
31.159,-0.67,-0.57,0.03
31.179,-0.69,-0.52,0.05
31.198999999999998,-0.5400000000000119,-0.40333333333333726,-0.006666666666662719
31.218999999999998,-0.24250000000001998,-0.24250000000001998,0.022499999999993338
31.239,0.02750000000000666,0.012500000000011103,0.06
31.259,0.23333333333333728,0.4333333333333491,0.09
31.279,0.29,0.61,0.08
31.299,0.48,0.585,0.03
31.319,0.01666666666672193,-0.09999999999995264,0.07
31.339,-0.46999999999998227,-0.4374999999999867,0.06
31.358999999999998,-0.6200000000000089,-0.52,-0.009999999999991118
31.378999999999998,-0.44500000000002665,-0.53,-0.04499999999999112
