timestamp,gyro_x,gyro_y,gyro_z
0.034,-0.26,-0.28,0.05
0.054000000000000006,0.10000000000000005,0.6000000000000001,0.050000000000000024
0.07400000000000001,0.21000000000000013,0.6899999999999998,0.06999999999999987
0.09400000000000001,0.16,0.18999999999999986,-0.39333333333333353
0.11400000000000002,0.1246153846153846,0.2861538461538462,-0.5353846153846155
0.134,-0.0325,0.5487500000000001,-0.6325000000000001
0.15400000000000003,-0.2700000000000003,0.6600000000000003,-0.68
0.17400000000000002,-0.5633333333333338,0.8333333333333335,-0.836666666666667
0.19400000000000003,-1.060000000000001,0.479999999999999,-1.1100000000000005
0.21400000000000005,-1.6050000000000004,0.09999999999999987,-1.4000000000000001
0.23400000000000004,-1.7499999999999993,0.08000000000000046,-1.3799999999999997
0.254,-1.0366666666666666,0.4533333333333333,-1.27
0.274,-0.54,0.43333333333333335,-1.43
0.29400000000000004,-0.11333333333333204,0.27333333333333315,-1.52
0.31400000000000006,0.17235294117647068,0.3782352941176471,-1.51
0.3340000000000001,0.29839999999999994,0.030399999999999847,-1.4716
0.3540000000000001,0.29039999999999994,-0.017600000000000254,-1.4796
0.3740000000000001,0.56,0.010000000000001119,-1.261428571428571
0.39400000000000013,0.26166666666666577,0.2233333333333326,-1.0933333333333337
0.41400000000000003,0.11,-0.10333333333333351,-1.18
0.43400000000000005,-0.09000000000000083,-0.2800000000000006,-1.05
0.45400000000000007,-0.30000000000000054,0.03000000000000037,-1.14
0.4740000000000001,-0.19999999999999946,0.2400000000000025,-1.1800000000000008
0.4940000000000001,-0.2599999999999982,0.8799999999999978,-1.4500000000000006
0.5140000000000001,0.06714285714285761,0.5885714285714282,-1.6114285714285719
0.5340000000000001,0.31000000000000444,0.6600000000000056,-1.6399999999999977
0.5540000000000002,0.69,-0.17000000000001222,-1.5900000000000023
0.5740000000000002,0.8166666666666674,-0.47999999999999665,-1.749999999999999
0.5940000000000001,0.7699999999999989,0.0033333333333351867,-0.9766666666666626
0.6140000000000001,0.4911111111111109,0.18,-0.2955555555555549
0.6340000000000001,-0.19000000000001666,-0.5100000000000222,-0.2400000000000122
0.6540000000000001,-0.4700000000000133,-0.9000000000000178,-0.4500000000000122
0.6740000000000002,-2.070000000000002,-0.9500000000000015,-1.4599999999999989
0.6940000000000002,-2.379999999999999,-1.500000000000006,-0.9499999999999977
0.7140000000000002,-2.159999999999999,-1.7833333333333339,-0.8133333333333331
0.7340000000000002,-1.3749999999999967,-2.0625000000000013,-0.6524999999999994
0.7540000000000002,-0.26999999999999336,-2.80000000000001,-0.7600000000000022
0.7740000000000001,-0.1960000000000009,-3.2960000000000007,-0.9480000000000004
0.7940000000000002,-0.8200000000000061,-3.219999999999998,-0.9799999999999972
0.8140000000000002,-1.4444444444444446,-2.9133333333333327,-0.5711111111111106
0.8340000000000002,-1.5399999999999978,-2.509999999999991,0.11000000000001554
0.8540000000000002,-1.4399999999999977,-2.4200000000000013,0.48
0.8740000000000002,-1.1199999999999963,-2.8100000000000067,0.5300000000000022
0.8940000000000002,-0.7199999999999963,-3.6200000000000077,0.8900000000000045
0.9140000000000001,-0.4700000000000007,-4.230000000000001,1.3300000000000016
0.9340000000000002,-0.7100000000000066,-4.03999999999999,1.5900000000000056
0.9540000000000002,-0.9275000000000003,-3.6224999999999987,1.7500000000000002
0.9740000000000002,-0.8799999999999978,-1.9699999999999966,2.1800000000000006
0.9940000000000002,-0.6174999999999995,-1.71,2.3075000000000014
1.0140000000000002,-0.6400000000000033,-1.7099999999999989,2.5700000000000034
1.0340000000000003,-0.8766666666666686,-1.5733333333333315,2.75
1.0540000000000003,-0.96,-1.3399999999999972,2.5766666666666627
1.0740000000000003,-0.9039999999999995,-1.24,2.357999999999999
1.0940000000000003,-0.7966666666666657,-1.21,2.199999999999997
1.1140000000000003,-0.7239999999999995,-1.2,2.0839999999999996
1.1340000000000003,-0.6218181818181813,-1.1909090909090905,1.9418181818181812
1.1540000000000001,-0.34999999999999665,-1.0499999999999967,1.6599999999999955
1.1740000000000002,-0.12999999999999964,-0.7249999999999991,1.334999999999999
1.1940000000000002,-0.12,-0.28999999999999554,1.0699999999999978
1.2140000000000002,-0.20333333333333384,-0.023333333333332346,1.04
1.2340000000000002,-0.27000000000000224,0.03,1.0099999999999956
1.2540000000000002,-0.3433333333333343,0.09333333333333432,0.779999999999997
1.2740000000000002,-0.38,0.19250000000000084,0.5649999999999983
1.2940000000000003,-0.4433333333333343,0.2733333333333343,0.43333333333333135
1.3140000000000003,-0.5200000000000011,0.3,0.3299999999999989
1.3340000000000003,-0.6033333333333343,0.36666666666666864,0.15333333333333138
1.3540000000000003,-0.6933333333333342,0.5466666666666686,-0.07666666666666865
1.3740000000000003,-0.74,0.7733333333333383,-0.16666666666666544
1.3940000000000003,-0.6799999999999978,1.02,-0.11999999999999778
1.4140000000000004,-0.5299999999999964,0.8866666666666617,-0.11
1.4340000000000004,-0.2599999999999778,0.6199999999999822,-0.16000000000000444
1.4540000000000004,0.1700000000000037,0.39666666666666545,-0.1499999999999963
1.4740000000000004,0.3160000000000008,0.35600000000000076,0.170000000000004
1.4940000000000002,0.4800000000000022,0.5200000000000022,0.7000000000000066
1.5140000000000002,0.6266666666666686,0.4199999999999941,1.050000000000003
1.5340000000000003,0.8300000000000044,-0.19000000000000777,1.2600000000000022
1.5540000000000003,1.120000000000003,-0.6433333333333343,1.2266666666666628
1.5740000000000003,1.250000000000001,-0.4199999999999911,0.8699999999999956
1.5940000000000003,1.0766666666666629,0.3800000000000119,0.7766666666666686
1.6140000000000003,0.7642857142857125,0.8614285714285725,0.8471428571428575
1.6340000000000003,0.4799999999999778,0.6699999999999645,0.8399999999999955
1.6540000000000004,0.029999999999991117,-0.44000000000002,0.20999999999997557
1.6740000000000004,-0.3400000000000044,-0.9066666666666674,-0.6733333333333414
1.6940000000000004,-0.9200000000000133,-0.2999999999999767,-1.2900000000000067
1.7140000000000004,-1.2714285714285731,0.7342857142857238,-1.3357142857142845
1.7340000000000004,-1.15999999999999,0.9599999999999733,-1.0199999999999967
1.7540000000000004,-0.42666666666664943,-1.0533333333333816,-1.1133333333333402
1.7740000000000005,-0.14000000000001037,-2.5233333333333454,-1.42
1.7940000000000003,-0.9100000000000089,-1.866666666666645,-0.9666666666666568
1.8140000000000003,-1.2250000000000005,-0.8249999999999973,-0.29499999999999726
1.8340000000000003,-1.027272727272725,-0.24909090909090614,0.2900000000000032
1.8540000000000003,1.2800000000000207,-0.7266666666666982,1.4466666666666628
1.8740000000000003,2.1179999999999994,-3.2960000000000127,0.08799999999998154
1.8940000000000003,1.5199999999999378,-3.2299999999999245,-1.6100000000000623
1.9140000000000004,0.24999999999996447,-1.329999999999929,-2.069999999999993
1.9340000000000004,-0.7481818181818221,0.9072727272727373,-1.6354545454545424
1.9540000000000004,-1.5900000000000167,2.78000000000002,-1.034999999999995
1.9740000000000004,-2.100000000000003,3.205000000000002,-0.9449999999999983
1.9940000000000004,-1.754999999999985,2.99999999999999,-0.6699999999999899
2.0140000000000002,-0.7699999999999845,2.314999999999988,-0.0199999999999889
2.0340000000000003,0.2900000000000133,1.3749999999999856,0.75500000000001
2.0540000000000003,0.8950000000000033,0.29999999999998445,1.205000000000001
2.0740000000000003,0.8279999999999985,-0.5160000000000025,0.9899999999999982
2.0940000000000003,0.32333333333332986,-0.7066666666666657,0.34666666666666424
2.1140000000000003,-0.1433333333333358,-0.29999999999999705,0.11
2.1340000000000003,-0.4700000000000044,0.1266666666666726,0.2233333333333363
2.1540000000000004,-0.6833333333333362,0.4133333333333363,0.29
2.1740000000000004,-0.6919999999999988,0.45,0.17399999999999788
2.1940000000000004,-0.5539999999999979,0.3639999999999979,-0.06600000000000214
2.2140000000000004,-0.37999999999999556,0.09999999999999556,-0.13
2.2340000000000004,-0.33,0.00999999999999556,0.06000000000001776
2.2540000000000004,-0.3249999999999978,0.3100000000000134,0.36000000000000887
2.274,-0.2,0.62,0.55
2.294,0.14,0.09,0.59
2.314,0.46000000000000296,-1.3566666666666731,1.100000000000003
2.334,1.1300000000000043,-1.5233333333333328,1.0966666666666627
2.354,1.3566666666666642,-0.6833333333333255,0.2833333333333299
2.374,0.73,0.25,0.12
2.394,-0.14,0.54,0.54
2.414,0.4366666666666775,-0.36333333333334616,0.7766666666666657
2.434,1.1,-0.98,0.65
2.454,1.1119999999999963,-1.2419999999999989,0.35399999999999787
2.474,0.41,-0.89,0.15
2.494,-0.3050000000000056,-0.22499999999999223,0.3400000000000044
2.5140000000000002,-0.47,0.1150000000000011,0.6100000000000022
2.5340000000000003,-0.3899999999999867,0.059999999999982234,0.6099999999999867
2.5540000000000003,0.08000000000003109,-0.3100000000000133,0.15999999999997336
2.5740000000000003,0.5833333333333358,-0.5366666666666672,-0.2900000000000015
2.5940000000000003,0.8333333333333343,-0.4766666666666657,-0.5066666666666672
2.6140000000000003,0.7199999999999941,-0.1899999999999941,-0.5199999999999986
2.6340000000000003,0.38999999999997337,0.09000000000001332,-0.4599999999999956
2.6540000000000004,-0.09000000000000333,0.3800000000000011,-0.41
2.6740000000000004,-0.49500000000000277,0.47,-0.4500000000000011
2.6940000000000004,-0.7900000000000134,0.46,-0.6300000000000089
2.7140000000000004,-0.9750000000000022,0.5050000000000022,-0.8000000000000045
2.7340000000000004,-0.98,0.7200000000000044,-0.9166666666666682
2.7540000000000004,-0.9099999999999989,1.0100000000000033,-0.9799999999999989
2.7740000000000005,-0.6999999999999933,1.1950000000000016,-0.8599999999999967
2.7940000000000005,-0.27999999999999264,1.029999999999994,-0.6199999999999956
2.8140000000000005,0.14000000000000742,0.5699999999999896,-0.4599999999999985
2.8340000000000005,0.4233333333333373,-0.01000000000001184,-0.38333333333333136
2.8540000000000005,0.4499999999999985,-0.45000000000000445,-0.34
2.8740000000000006,0.29999999999999705,-0.5899999999999985,-0.32
2.8940000000000006,0.06999999999999408,-0.4699999999999941,-0.30333333333333135
2.9140000000000006,-0.18000000000000296,-0.18999999999999556,-0.22999999999999854
2.934,-0.34,0.05,-0.2
2.954,-0.41,0.21,-0.22
2.974,-0.37333333333333285,0.17333333333333284,-0.24333333333333285
2.994,-0.23,-0.15,-0.22
3.0140000000000002,-0.01999999999999112,-0.3200000000000022,-0.12999999999999556
3.0340000000000003,0.11769230769230801,-0.3592307692307693,-0.003846153846153319
3.0540000000000003,0.4800000000000044,-0.6400000000000089,0.49000000000000443
3.0740000000000003,0.5666666666666671,-0.8900000000000015,0.5166666666666657
3.0940000000000003,0.65,-1.06,0.30999999999999556
3.1140000000000003,0.6299999999999956,-1.0499999999999956,0.12999999999998224
3.1340000000000003,0.47999999999998666,-0.9099999999999823,-0.09000000000000888
3.1540000000000004,-0.01000000000000592,-0.32999999999999113,-0.19
3.1740000000000004,-0.30000000000000665,0.0600000000000111,-0.20999999999999777
3.1940000000000004,-0.4625000000000008,0.2925000000000008,-0.2037499999999996
3.2140000000000004,-0.4599999999999985,0.3599999999999985,-0.07999999999999556
3.2340000000000004,-0.31999999999999557,0.08999999999998667,0.18000000000000888
3.2540000000000004,-0.14399999999999785,-0.36200000000000426,0.4260000000000021
3.2740000000000005,0.18666666666667459,-0.7866666666666746,0.5666666666666687
3.2940000000000005,0.5100000000000059,-1.100000000000006,0.58
3.3140000000000005,0.7200000000000022,-1.2699999999999978,0.61
3.3340000000000005,0.7699999999999956,-1.1199999999999823,0.5599999999999912
3.3540000000000005,0.6099999999999822,-0.7299999999999689,0.3999999999999867
3.3740000000000006,0.1299999999999889,0.2200000000000222,-0.010000000000008882
3.3940000000000006,-0.145000000000005,0.8300000000000101,-0.325000000000005
3.4140000000000006,-0.34000000000000447,1.1100000000000045,-0.5300000000000022
3.4340000000000006,-0.47,1.23,-0.5299999999999991
3.4540000000000006,-0.5300000000000089,1.1099999999999823,-0.30999999999997335
3.4740000000000006,-0.7500000000000089,0.659999999999969,0.4100000000000444
3.4940000000000007,-0.7966666666666642,0.2133333333333358,1.3133333333333506
3.5140000000000007,-0.4499999999999778,0.5166666666666716,1.6333333333333357
3.5340000000000007,0.5300000000000755,0.4599999999999778,1.6299999999999955
3.5540000000000003,2.070000000000019,-0.45000000000001666,1.399999999999991
3.5740000000000003,2.7599999999999953,-1.420000000000011,0.45999999999997115
3.5940000000000003,2.2899999999999867,-1.2199999999999807,-0.4100000000000133
3.6140000000000003,1.309999999999969,-0.06999999999997336,-0.6999999999999911
3.6340000000000003,0.009999999999964473,0.5100000000000089,-0.21999999999999112
3.6540000000000004,-0.900000000000003,0.6399999999999941,-0.2200000000000074
3.6740000000000004,-0.5499999999999897,-0.08000000000001925,-0.8500000000000147
3.6940000000000004,-0.28,-0.7500000000000089,-1.2999999999999978
3.7140000000000004,-0.570000000000006,-0.8533333333333343,-0.8833333333333254
3.7340000000000004,-0.990000000000003,-1.0266666666666686,-0.3299999999999971
3.7540000000000004,-1.0249999999999984,-1.1,-0.3
3.7740000000000005,-0.8199999999999866,-1.1799999999999955,-0.33
3.7940000000000005,-0.32333333333331704,-0.19333333333330371,-0.026666666666656305
3.8140000000000005,0.43666666666666965,0.6333333333333215,0.4833333333333348
3.8340000000000005,0.07999999999998446,-0.4700000000000333,-0.21000000000003552
3.8540000000000005,-0.16499999999999834,-1.2575000000000025,-1.1275000000000026
3.8740000000000006,-0.05,-0.9199999999999778,-1.0399999999999934
3.8940000000000006,-0.15000000000000444,-0.12999999999998002,-0.9700000000000044
3.9140000000000006,-0.3000000000000133,0.35000000000003106,-1.1500000000000132
3.9340000000000006,-0.43000000000000443,0.7300000000000155,-1.2700000000000022
3.9540000000000006,-0.58,1.5133333333333379,-0.8633333333333281
3.9740000000000006,-0.30999999999998523,2.0733333333333435,-0.116666666666642
3.9940000000000007,0.2900000000000148,1.9366666666666494,0.5833333333333507
4.014000000000001,0.5733333333333372,1.0299999999999407,0.8666666666666627
4.034000000000001,0.49999999999999556,-0.12000000000002664,0.5149999999999845
4.054,0.38,-0.61,0.04
4.074000000000001,0.22999999999999554,-0.24999999999998224,-0.15499999999999778
4.094,-0.04333333333333728,0.41666666666667457,0.026666666666668642
4.114000000000001,-0.33000000000000446,0.8100000000000045,0.14
4.134,-0.28999999999999704,0.5566666666666598,-0.07333333333333727
4.154000000000001,-0.07333333333332544,0.04333333333332544,-0.41000000000001185
4.174,-0.09,0.07,-0.51
4.194000000000001,-0.33000000000001184,0.29000000000001186,-0.2233333333333136
4.214,-0.3349999999999933,0.4,-0.01500000000000222
4.234000000000001,-0.09999999999996448,0.2499999999999556,-0.03000000000000888
4.2540000000000004,0.19200000000000073,-0.8040000000000086,0.2960000000000057
4.274000000000001,0.27500000000000446,-1.0399999999999467,0.9700000000000177
4.2940000000000005,0.3166666666666657,-0.09999999999999408,0.7733333333333225
4.314000000000001,0.2199999999999941,0.1399999999999941,0.14999999999999408
4.3340000000000005,0.04333333333333432,-0.12333333333333728,0.2666666666666716
4.354000000000001,0.5200000000000444,-0.5500000000000267,0.835000000000031
4.3740000000000006,1.4650000000000243,-1.045000000000011,1.1150000000000024
4.394000000000001,1.9349999999999934,-1.3100000000000267,0.9499999999999733
4.414000000000001,1.4249999999999756,-1.3399999999999956,0.6649999999999934
4.434000000000001,0.5199999999999527,-1.0533333333333137,0.4933333333333254
4.454000000000001,-0.37666666666667753,-0.5433333333333255,0.3366666666666657
4.474000000000001,-1.0266666666666864,0.02333333333336097,0.20666666666666272
4.494000000000001,-1.149999999999991,0.5500000000000222,0.10999999999999556
4.514,-0.8649999999999889,0.7149999999999977,0.029999999999995558
4.534000000000001,-0.4299999999999378,0.5399999999999645,-0.12000000000002664
4.554,0.1250000000000111,0.25499999999999334,-0.2950000000000022
4.574000000000001,0.3866666666666706,-0.06333333333334124,-0.2966666666666647
4.594,0.3666666666666657,-0.3233333333333343,-0.18333333333333138
4.614000000000001,0.17499999999999333,-0.35499999999999776,-0.12
4.634,-0.10000000000000889,-0.15499999999999337,-0.16500000000000223
4.654000000000001,-0.3233333333333373,0.13666666666667457,-0.26666666666666866
4.674,-0.35499999999999776,0.25,-0.3550000000000022
4.694000000000001,-0.17999999999997335,0.23,-0.4000000000000089
4.714,0.07000000000000445,0.2,-0.49000000000000443
4.734000000000001,0.16,0.22,-0.6033333333333373
4.7540000000000004,0.14,0.23,-0.65
4.774000000000001,0.09142857142857053,0.21142857142857052,-0.64
4.7940000000000005,0.00499999999999778,0.11499999999999777,-0.59
4.814000000000001,-0.06666666666666865,0.01333333333333136,-0.57
4.8340000000000005,-0.1833333333333373,-0.06666666666666865,-0.6266666666666686
4.854000000000001,-0.3500000000000044,-0.15500000000000222,-0.6449999999999978
4.8740000000000006,-0.4900000000000089,-0.2300000000000089,-0.5699999999999911
4.894000000000001,-0.54,-0.23999999999999555,-0.49999999999999556
4.914000000000001,-0.56,-0.059999999999994086,-0.41333333333333133
4.934000000000001,-0.58,0.17000000000001184,-0.37
4.954000000000001,-0.6366666666666686,0.3533333333333373,-0.2966666666666627
4.974000000000001,-0.7150000000000014,0.41,-0.19499999999999854
4.994000000000001,-0.74,0.33999999999999114,-0.06999999999998224
5.014000000000001,-0.6433333333333284,0.25,0.0466666666666716
5.034000000000001,-0.4866666666666627,0.25666666666666865,0.12
5.054000000000001,-0.30454545454545034,0.3636363636363664,0.17
5.074000000000001,-0.09999999999999556,0.4750000000000022,0.19
5.094000000000001,0.08000000000002665,0.4699999999999911,0.19
5.114000000000001,0.25000000000000444,0.2599999999999911,0.21500000000000222
5.134000000000001,0.33400000000000324,-0.130000000000016,0.27400000000000324
5.154000000000001,0.3049999999999978,-0.5850000000000111,0.3450000000000022
5.174,0.19333333333333136,-0.8533333333333373,0.39
5.194000000000001,0.08666666666666273,-0.8833333333333314,0.45666666666666866
5.214,0.05,-0.7199999999999941,0.5566666666666686
5.234000000000001,0.09666666666666865,-0.4166666666666568,0.5733333333333314
5.2540000000000004,0.18333333333333432,-0.07333333333333136,0.4566666666666657
5.274000000000001,0.290000000000003,0.16500000000000442,0.2849999999999956
5.2940000000000005,0.36,0.30000000000000293,0.11999999999999704
5.314000000000001,0.32333333333333136,0.3,0.08
5.3340000000000005,0.2166666666666627,0.21333333333333135,0.09666666666666865
5.354000000000001,0.05666666666666272,0.03666666666666272,0.17666666666666864
5.3740000000000006,-0.07333333333333432,-0.08333333333333431,0.23333333333333434
5.394000000000001,-0.11666666666667061,-0.13666666666667063,0.2966666666666706
5.414000000000001,-0.08333333333333136,-0.14,0.35
5.434000000000001,-0.013333333333329386,-0.11333333333332939,0.35
5.454000000000001,0.06200000000000071,-0.0679999999999993,0.31
5.474000000000001,0.12500000000000666,-0.03,0.24499999999999333
5.494000000000001,0.15,2.9605947323336385e-15,0.21
5.514000000000001,0.13,0.04,0.24
5.534000000000001,0.07333333333333136,0.05,0.27
5.554000000000001,-0.03000000000000296,0.00999999999999852,0.27999999999999853
5.574000000000001,-0.09,-0.02,0.27
5.594000000000001,-0.08000000000000444,0.08000000000001332,0.26
5.614000000000001,-0.2000000000000089,0.32000000000000595,0.25000000000000294
5.634000000000001,-0.38000000000000445,0.5300000000000089,0.27
5.654000000000001,-0.4183333333333327,0.6433333333333345,0.26833333333333276
5.674000000000001,-0.32999999999998225,0.71,0.16999999999998225
5.694000000000001,-0.1699999999999941,0.760000000000003,-0.01000000000000592
5.714000000000001,-0.019999999999994078,0.759999999999997,-0.07
5.734000000000001,0.11666666666666864,0.5733333333333255,0.04000000000000592
5.754000000000001,0.24,0.26999999999999114,0.2900000000000053
5.774000000000001,0.16999999999999554,-0.03000000000000444,0.5350000000000067
5.794000000000001,-0.16000000000002962,-0.039999999999988156,0.8600000000000236
5.814000000000001,-0.43000000000000294,0.2800000000000178,1.1800000000000117
5.8340000000000005,-0.4699999999999982,0.8500000000000177,1.6800000000000106
5.854000000000001,-0.16217391304347556,1.4834782608695665,2.041739130434783
5.8740000000000006,-0.08391304347825876,1.5182608695652184,2.059130434782609
5.894000000000001,2.2800000000000353,-0.1800000000000888,1.089999999999938
5.914000000000001,2.3499999999999734,-1.7800000000000666,0.05999999999995559
5.934000000000001,1.6199999999999424,-2.3699999999999957,-0.42000000000001775
5.954000000000001,0.6399999999998579,-1.8699999999998846,-0.7700000000000444
5.974000000000001,-0.6800000000000489,-0.4099999999999245,-1.080000000000009
5.994000000000001,-1.2000000000000028,0.7800000000000297,-1.260000000000009
6.014000000000001,-1.169999999999994,0.9899999999999792,-1.41
6.034000000000001,-1.0699999999999956,0.21999999999993783,-1.4800000000000089
6.054000000000001,-0.9799999999999941,-0.9400000000000177,-1.600000000000003
6.074000000000001,-0.3699999999999556,-1.4599999999999866,-1.7099999999999866
6.094000000000001,-0.030000000000011844,-1.0166666666666508,-0.9733333333332781
6.114000000000001,-0.2674999999999989,-0.8174999999999989,-0.08249999999999223
6.134000000000001,0.1500000000000213,-0.8420000000000042,0.19600000000000214
6.154000000000001,1.0471428571428691,-0.96,0.28
6.174000000000001,2.036666666666698,-0.923333333333361,0.5166666666666864
6.194000000000001,1.9899999999999511,-2.3700000000000845,0.5299999999999689
6.214000000000001,0.9099999999999407,-2.6466666666666034,-0.45333333333339654
6.234000000000001,-0.47000000000004216,-0.6799999999999179,-1.4600000000000155
6.254000000000001,-1.7940000000000298,1.9780000000000597,-1.7039999999999977
6.274000000000001,-2.79000000000004,3.3700000000000045,-1.48
6.294000000000001,-3.2333333333333374,3.0299999999999647,-1.54
6.314000000000001,-2.90999999999996,2.419999999999969,-1.27999999999996
6.334000000000001,-1.7633333333332661,1.999999999999988,-0.4333333333332899
6.354000000000001,-0.5978571428571282,1.7357142857142804,0.2764285714285792
6.374000000000001,0.6240000000000351,0.9839999999999552,0.9340000000000191
6.394000000000001,1.3566666666666864,-0.3933333333333965,1.1199999999999881
6.4140000000000015,1.4866666666666628,-1.3600000000000236,0.6399999999999645
6.434000000000001,1.136666666666639,-1.3233333333333017,0.10666666666665088
6.454000000000001,0.542499999999985,-0.53999999999998,-0.022499999999998334
6.474000000000001,0.019999999999928946,0.20000000000008883,0.13000000000003553
6.494000000000001,-0.5600000000000029,0.79,0.16999999999999704
6.514000000000001,-0.69,0.5533333333333136,-0.1666666666666864
6.534000000000001,-0.64,0.27333333333332943,-0.47333333333333527
6.554000000000001,-0.8100000000000033,0.3600000000000016,-0.3699999999999968
6.574000000000001,-1.03,0.6300000000000222,0.05000000000002665
6.594000000000001,-0.7999999999999734,0.8599999999999822,0.3500000000000133
6.614000000000001,-0.3233333333333235,-0.023333333333358987,0.5633333333333412
6.634000000000001,-0.14250000000000335,-0.7925000000000166,0.8050000000000067
6.654000000000001,-0.19571428571428084,-0.6999999999999885,0.8785714285714269
6.674000000000001,0.09764705882353483,-0.3617647058823489,0.7905882352941164
6.694000000000001,0.8000000000000089,-0.20000000000004442,0.6699999999999912
6.714000000000001,0.7466666666666746,-0.6,0.7066666666666745
6.734000000000001,0.9900000000000533,-0.6100000000000089,0.8600000000000266
6.754000000000001,1.4200000000000532,-0.7500000000000888,1.210000000000071
6.774000000000001,1.3799999999999466,-1.3300000000000534,1.1699999999999466
6.794000000000001,0.5249999999999266,-1.5599999999999867,0.5749999999999533
6.814000000000001,-0.24333333333336096,-1.03333333333329,0.2666666666666627
6.834000000000001,-0.56,-0.1449999999999667,0.2925000000000033
6.854000000000001,-0.3799999999999941,0.3966666666666716,0.32
6.874000000000001,0.14166666666667901,0.5016666666666642,0.1533333333333284
6.894000000000001,1.1800000000000532,-0.050000000000053293,-0.20000000000001333
6.9140000000000015,1.54,-0.5600000000000267,-0.3600000000000133
6.934000000000001,1.246666666666639,-0.6833333333333255,-0.3833333333333373
6.9540000000000015,0.6419999999999894,-0.4179999999999929,-0.36799999999999883
6.974000000000001,0.055999999999977276,-0.03199999999998295,-0.30399999999999433
6.9940000000000015,-0.54500000000002,0.4600000000000133,-0.3400000000000133
7.014000000000001,-0.6266666666666627,0.4766666666666627,-0.4233333333333373
7.034000000000002,-0.42666666666664693,0.19333333333330865,-0.4366666666666617
7.054000000000001,-0.027499999999997003,-0.27300000000000363,-0.3289999999999988
7.074000000000001,0.050000000000013325,-0.3600000000000133,-0.29999999999999555
7.094000000000001,0.6100000000000133,-0.8449999999999933,-0.10999999999998668
7.114000000000001,0.69,-0.6899999999999955,-0.03499999999999778
7.134000000000001,0.6779999999999976,-0.48399999999999255,0.04
7.154000000000001,0.6157142857142847,-0.2671428571428539,0.05
7.174000000000001,0.530769230769229,-0.011538461538457962,-0.009230769230771018
7.194000000000001,0.39999999999998226,0.24000000000000887,-0.1400000000000089
7.214000000000001,0.24333333333332544,0.2466666666666627,-0.19
7.234000000000001,0.022499999999991672,0.11499999999999444,-0.2325000000000028
7.254000000000001,-0.2133333333333373,0.051666666666668644,-0.32166666666666865
7.274000000000001,-0.38500000000000445,0.13500000000000445,-0.4300000000000089
7.294000000000001,-0.48500000000000665,0.23500000000000665,-0.47
7.314000000000001,-0.5650000000000045,0.3,-0.52
7.334000000000001,-0.64,0.30749999999999666,-0.57
7.354000000000001,-0.6857142857142872,0.21857142857142567,-0.56
7.374000000000001,-0.8500000000000133,-0.030000000000026644,-0.55
7.394000000000001,-1.0840000000000085,-0.1960000000000057,-0.4639999999999943
7.4140000000000015,-1.28,-0.09249999999999,-0.21999999999998668
7.434000000000001,-1.1339999999999943,0.23000000000000712,0.1160000000000057
7.4540000000000015,-0.7514285714285606,0.5142857142857198,0.39571428571429296
7.474000000000001,-0.2724999999999935,0.5749999999999982,0.5550000000000018
7.4940000000000015,0.5000000000000533,0.19499999999995338,0.5849999999999933
7.514000000000001,1.08000000000004,-0.3200000000000399,0.5199999999999867
7.534000000000002,1.2633333333333283,-0.7166666666666863,0.3399999999999852
7.554000000000001,1.0437499999999924,-0.88,0.16749999999999696
7.574000000000002,0.6183333333333264,-0.754999999999997,0.008333333333332346
7.594000000000001,0.10999999999993783,-0.4199999999999378,-0.10000000000000889
7.614000000000002,-0.5900000000000177,0.3100000000000267,-0.19500000000000445
7.634000000000001,-0.81,0.65500000000002,-0.17
7.654000000000002,-0.7428571428571363,0.7342857142857121,-0.1142857142857121
7.674000000000001,-0.4966666666666627,0.602499999999997,-0.06
7.694000000000002,0.023333333333358006,0.136666666666642,0.0366666666666716
7.714000000000001,0.3800000000000148,-0.2400000000000148,0.0966666666666716
7.734000000000001,0.5400000000000013,-0.42000000000000126,0.11
7.754000000000001,0.5133333333333284,-0.4066666666666568,0.0633333333333284
7.774000000000001,0.35499999999998666,-0.22499999999998666,-0.01
7.794000000000001,0.09333333333331359,0.046666666666686396,-0.0333333333333284
7.814000000000001,-0.14333333333333728,0.23333333333333728,-0.03
7.834000000000001,-0.22,0.25,0.0
7.854000000000001,-0.1679999999999993,0.17599999999999857,0.03200000000000071
7.874000000000001,0.010000000000011843,0.01999999999998816,0.11000000000000593
7.894000000000001,0.22000000000001185,-0.15333333333334123,0.17
7.9140000000000015,0.3766666666666716,-0.26,0.2
7.934000000000001,0.4,-0.2366666666666652,0.19
7.9540000000000015,0.4,-0.15499999999999667,0.22500000000000334
7.974000000000001,0.41,-0.13555555555555424,0.26444444444444576
7.9940000000000015,0.43,-0.14,0.27
8.014000000000001,0.38333333333333136,-0.16,0.27
8.034000000000002,0.2949999999999933,-0.22500000000000667,0.31
8.054000000000002,0.22714285714285354,-0.3228571428571465,0.35
8.074000000000002,0.16,-0.44000000000000594,0.37
8.094000000000003,0.11,-0.5200000000000119,0.40000000000001185
8.114000000000003,0.06999999999999645,-0.5199999999999929,0.41999999999999643
8.134000000000002,-0.017500000000005553,-0.4049999999999889,0.37249999999999445
8.154000000000002,-0.06666666666667456,-0.1966666666666509,0.35
8.174000000000003,-0.1,0.020000000000023686,0.34
8.194000000000003,-0.06,0.24000000000001775,0.34000000000000596
8.214000000000002,-0.04000000000000592,0.48000000000001775,0.3199999999999882
8.234000000000002,-0.07,0.6133333333333373,0.16999999999998816
8.254000000000003,-0.11750000000000665,0.6224999999999934,-0.07250000000001999
8.274000000000003,-0.15000000000001776,0.5099999999999645,-0.31000000000001776
8.294000000000002,-0.24000000000001184,0.44,-0.38
8.314000000000002,-0.4700000000000237,0.3999999999999941,-0.3199999999999882
8.334000000000003,-0.7900000000000237,0.33,-0.03999999999997039
8.354000000000003,-1.0200000000000178,0.43000000000007105,0.42000000000010657
8.374000000000002,-1.0299999999999823,0.6400000000000267,1.0800000000000978
8.394000000000002,-0.47999999999993487,0.8299999999999941,2.300000000000112
8.414000000000001,0.520000000000077,0.5199999999999526,3.9800000000001243
8.434000000000003,1.4500000000000948,-0.16000000000011844,4.899999999999965
8.454000000000002,1.7881818181818259,-0.9090909090909339,4.139090909090871
8.474000000000002,2.3371428571428714,-1.6085714285714359,2.437142857142821
8.494000000000002,2.2099999999998223,-1.3299999999999024,0.08999999999987565
8.514000000000003,0.029999999999484855,-0.03999999999966249,-0.5600000000000533
8.534000000000002,-1.7700000000001066,1.3300000000000978,-0.8800000000000533
8.554000000000002,-2.2700000000000116,1.6499999999999881,-1.3666666666666942
8.574000000000002,-2.0399999999999556,0.8699999999999467,-1.9800000000000444
8.594000000000003,-1.7199999999999467,0.8900000000001244,-2.0699999999998933
8.614000000000003,-1.4699999999999822,1.60000000000008,-1.159999999999849
8.634000000000002,-1.3233333333333137,1.9366666666666272,-0.07333333333328398
8.654000000000002,-0.9499999999999733,1.2999999999999379,-0.17500000000003108
8.674000000000003,-0.5455555555555425,0.18111111111106112,-0.6622222222222407
8.694000000000003,-0.18199999999998864,-1.2660000000000795,-0.9240000000000057
8.714000000000002,-0.06999999999997632,-1.7199999999999644,-0.5199999999999586
8.734000000000002,0.5000000000000888,-1.1399999999999821,0.07000000000003553
8.754000000000003,1.1500000000000319,-1.7060000000001023,-0.26400000000008955
8.774000000000003,1.0674999999999613,-2.45,-1.4700000000000621
8.794000000000002,0.5199999999999112,-2.029999999999902,-1.5899999999999557
8.814000000000002,-0.42000000000003906,-0.8199999999999289,-1.2099999999999893
8.834000000000003,-1.1000000000000594,0.5400000000001185,-1.1700000000000237
8.854000000000003,-1.2449999999999957,1.1300000000000268,-1.3149999999999955
8.874000000000002,-0.9233333333333136,1.4366666666666716,-1.1799999999999926
8.894000000000002,-0.07999999999992895,1.6800000000000355,-0.8799999999999734
8.914000000000003,0.34000000000002134,1.9900000000000142,-0.5599999999999574
8.934000000000003,0.5300000000000356,1.9699999999999112,-0.05999999999987565
8.954000000000002,0.6933333333333431,1.3066666666665976,0.358333333333358
8.974000000000002,0.8176190476190499,0.359047619047601,0.6214285714285748
8.994000000000002,0.6499999999999645,-0.7000000000000266,0.6599999999999734
9.014000000000003,0.17999999999987565,-0.6499999999998934,0.4399999999999645
9.034000000000002,-0.3820000000000348,-0.13799999999996518,0.273999999999995
9.054000000000002,-0.8100000000000118,0.3250000000000148,0.16499999999999704
9.074000000000002,-1.01,0.5480000000000086,0.06199999999999148
9.094000000000003,-0.9333333333333136,0.68,-0.0466666666666864
9.114000000000003,-0.7999999999999912,0.5699999999999822,-0.18000000000000888
9.134000000000002,-0.7900000000000059,0.5100000000000059,-0.20999999999999408
9.154000000000002,-0.875000000000003,0.595000000000003,-0.07999999999999408
9.174000000000003,-0.9147058823529429,0.5358823529411714,0.12352941176471449
9.194000000000003,-1.05,0.006666666666597584,0.7700000000000592
9.214000000000002,-0.5566666666665383,-0.5800000000000889,0.9866666666666568
9.234000000000002,0.7300000000000592,-0.93,0.83
9.254000000000003,2.0400000000000587,-1.0440000000000156,0.9420000000000078
9.274000000000003,2.842727272727286,-1.4718181818181906,1.0390909090909046
9.294000000000002,3.0499999999999465,-1.7900000000000533,0.76499999999996
9.314000000000002,2.2999999999999408,-2.090000000000012,0.5533333333333255
9.334000000000003,0.9149999999998757,-2.0799999999999765,0.3699999999999763
9.354000000000003,-0.38750000000002777,-1.5599999999999778,-0.002500000000016652
9.374000000000002,-0.6614285714285681,-0.9314285714285567,-0.44142857142857955
9.394000000000002,-0.1799999999999467,-0.2199999999999467,-0.8400000000000266
9.414000000000003,0.2000000000000296,0.026666666666656798,-1.0366666666666864
9.434000000000003,0.35,-0.21000000000004737,-1.2100000000000473
9.454000000000002,0.2049999999999852,-0.3299999999999941,-1.525000000000009
9.474000000000002,-0.15800000000000747,-0.13999999999999468,-1.6980000000000022
9.494000000000003,-0.9800000000000622,0.4025000000000389,-1.6299999999999688
9.514000000000003,-1.5380000000000227,0.7620000000000057,-1.2099999999999715
9.534000000000002,-1.58799999999999,0.6819999999999851,-0.8359999999999801
9.554000000000002,-1.2674999999999834,0.3374999999999833,-0.5149999999999889
9.574000000000003,-0.842352941176461,-0.05470588235294917,-0.32411764705882035
9.594000000000003,-0.263333333333284,-0.3866666666666864,-0.2266666666666568
9.614000000000003,0.1000000000000296,-0.3633333333333136,-0.17666666666665679
9.634000000000002,0.32500000000001333,-0.14999999999997335,-0.02499999999998668
9.654000000000002,0.41,0.0,0.14000000000001778
9.674000000000003,0.4,-0.05428571428572226,0.29428571428572226
9.694000000000003,0.4276923076923103,-0.21307692307693096,0.42538461538462063
9.714000000000002,0.6133333333333432,-0.5133333333333432,0.61
9.734000000000002,0.7133333333333373,-0.5766666666666627,0.5433333333333255
9.754000000000003,0.7900000000000356,-0.48999999999992894,0.3499999999998934
9.774000000000003,0.8299999999999644,-0.3499999999998934,0.11999999999985789
9.794000000000002,0.7499999999999645,-0.07999999999992895,-0.20000000000007107
9.814000000000002,0.45199999999998863,0.29800000000001137,-0.45200000000000284
9.834000000000003,0.03999999999978684,0.5600000000000356,-0.5600000000000356
9.854000000000003,-0.4200000000001776,0.65,-0.6900000000000355
9.874000000000002,-0.7042857142857273,0.6785714285714319,-0.7871428571428637
9.894000000000002,-0.9807692307692358,0.7469230769230786,-0.86
9.914000000000003,-1.19,0.7666666666666568,-0.6166666666666272
9.934000000000003,-1.049999999999858,0.6999999999999289,-0.2799999999998579
9.954000000000002,-0.62499999999996,0.50249999999998,-0.02499999999998668
9.974000000000002,-0.2636363636363584,0.3318181818181792,0.03
9.994000000000003,0.07000000000017764,0.1799999999998934,0.07000000000007106
10.014000000000003,0.575714285714303,-0.15285714285715155,0.30285714285715154
10.034000000000002,0.85500000000004,-0.36500000000003996,0.51500000000004
10.054000000000002,1.0300000000000178,-0.6050000000000266,0.6900000000000177
10.074000000000003,1.0849999999999822,-0.8550000000000533,0.75
10.094000000000003,1.0342857142857096,-0.9857142857142904,0.7121428571428547
10.114000000000003,0.6666666666666272,-1.24,0.4499999999999763
10.134000000000002,0.33749999999996666,-1.22,0.20999999999997335
10.154000000000003,-0.08500000000008881,-1.0449999999999466,-0.14000000000007107
10.174000000000003,-0.3700000000001421,-0.7099999999997513,-0.4400000000001066
10.194000000000003,-0.5635714285714356,-0.2592857142856931,-0.6235714285714357
10.214000000000002,-1.12000000000008,0.8850000000001199,-0.6949999999999866
10.234000000000004,-1.4900000000001066,1.5100000000002132,-0.5499999999998935
10.254000000000003,-1.6049999999999933,1.8800000000000134,-0.29499999999998006
10.274000000000003,-1.4399999999998578,1.8799999999998933,-0.08999999999989342
10.294000000000002,-1.2384210526315733,1.7447368421052587,0.012631578947370683
10.314000000000002,-0.6166666666666272,0.9933333333332781,0.15666666666667456
10.334000000000003,-0.29499999999998006,0.3849999999999534,0.2500000000000133
10.354000000000003,-0.12499999999999334,-0.0850000000000333,0.3700000000000133
10.374000000000002,-0.06222222222221937,-0.26777777777778067,0.48555555555556124
10.394000000000002,-0.06,-0.29,0.573333333333335
10.414000000000003,-0.10500000000001777,-0.1399999999999645,0.6950000000000177
10.434000000000003,-0.11,0.005000000000015543,0.74
10.454000000000002,-0.1,0.09,0.71
10.474000000000002,-0.09,0.1,0.6524999999999983
10.494000000000003,-0.06199999999999763,0.09,0.5719999999999976
10.514000000000003,-0.05500000000001332,0.15000000000002667,0.4099999999999734
10.534000000000002,-0.10500000000001333,0.33000000000002666,0.2799999999999734
10.554000000000002,-0.22333333333333927,0.5033333333333393,0.2
10.574000000000003,-0.288750000000005,0.501249999999995,0.2
10.594000000000003,-0.38000000000003553,0.42999999999998223,0.16999999999998225
10.614000000000003,-0.6633333333333492,0.4466666666666746,-0.02333333333334912
10.634000000000002,-0.75,0.5733333333333491,-0.033333333333325436
10.654000000000003,-0.6999999999999289,0.64,0.02
10.674000000000003,-0.5599999999999941,0.6199999999999941,-0.00500000000000296
10.694000000000003,-0.36999999999998817,0.40999999999998815,-0.12000000000000592
10.714000000000002,-0.24999999999998668,0.15999999999997336,-0.16500000000000667
10.734000000000004,-0.17,-0.0966666666666864,-0.17
10.754000000000003,-0.2,-0.11999999999998816,-0.23000000000002369
10.774000000000003,-0.23,0.08000000000002842,-0.3500000000000142
10.794000000000002,-0.24,0.3300000000000178,-0.5100000000000119
10.814000000000004,-0.19999999999999113,0.4400000000000089,-0.6200000000000089
10.834000000000003,-0.14333333333332546,0.3666666666666509,-0.6233333333333254
10.854000000000003,-0.12,0.16999999999997634,-0.4899999999999763
10.874000000000002,-0.11999999999999407,0.01999999999998816,-0.30999999999998223
10.894000000000004,-0.07363636363635806,-0.056363636363641945,-0.19363636363635806
10.914000000000003,0.08000000000001777,-0.20000000000001777,0.07000000000001777
10.934000000000003,0.2966666666666983,-0.3833333333333491,0.20333333333334913
10.954000000000002,0.6100000000000236,-0.5233333333333492,0.21333333333332544
10.974000000000002,0.7750000000000089,-0.6150000000000089,0.14499999999999114
10.994000000000003,0.7715384615384594,-0.62,0.11153846153845934
11.014000000000003,0.5766666666666508,-0.62,0.12
11.034000000000002,0.4533333333333136,-0.61,0.15
11.054000000000002,0.35,-0.59,0.17
11.074000000000003,0.358750000000005,-0.56,0.188750000000005
11.094000000000003,0.45052631578947716,-0.41894736842104574,0.17
11.114000000000003,0.48,0.20000000000003554,0.04
11.134000000000002,0.59500000000002,0.5750000000000199,0.06500000000000666
11.154000000000003,0.9300000000000889,0.5099999999999112,0.13000000000001777
11.174000000000003,1.3200000000000889,-0.03000000000015987,0.19000000000001777
11.194000000000003,1.505000000000003,-0.41500000000000925,0.255000000000001
11.214000000000002,1.4399999999999897,-1.2500000000000075,0.4500000000000076
11.234000000000004,1.059999999999929,-1.1899999999999407,0.7500000000000236
11.254000000000003,0.5299999999998757,-0.7499999999999112,0.7999999999999823
11.274000000000003,0.04333333333330175,-0.4366666666666272,0.7466666666666746
11.294000000000002,-0.04,-0.2610526315789402,0.8115789473684238
11.314000000000004,0.15999999999998815,0.6700000000001066,1.05
11.334000000000003,0.08,1.15500000000002,0.9049999999999667
11.354000000000003,0.19000000000003553,0.8099999999998047,0.3699999999998934
11.374000000000002,0.31750000000000556,0.027499999999961153,0.03624999999998613
11.394000000000004,0.3436842105263137,-0.4815789473684314,-0.22157894736843137
11.414000000000003,0.15999999999992895,0.20000000000021317,-0.6499999999999645
11.434000000000003,-0.18333333333337282,0.74,-0.34999999999997633
11.454000000000002,-0.45,-0.18250000000010547,-0.40750000000002773
11.474000000000004,-0.36249999999999,-1.26250000000007,-0.751250000000035
11.494000000000003,-0.22187499999999785,-1.3087499999999785,-1.1406250000000107
11.514000000000003,-1.178000000000051,1.4200000000001136,-0.6679999999999374
11.534000000000002,-1.7000000000000177,2.139999999999947,-0.01999999999995559
11.554000000000004,-1.4899999999998401,1.0899999999997336,0.16000000000001777
11.574000000000003,-0.92249999999995,0.49499999999998,0.218750000000005
11.594000000000003,-0.28705882352939793,0.7111764705882461,0.245882352941178
11.614000000000003,0.4900000000000296,1.4266666666665975,0.33
11.634000000000002,0.3766666666666272,0.4966666666665561,0.059999999999928944
11.654000000000003,-0.12000000000012434,-0.2700000000000829,-0.6833333333334438
11.674000000000003,-0.8800000000003197,-0.08999999999964473,-1.130000000000142
11.694000000000003,-1.198235294117653,0.47470588235295963,-1.2570588235294133
11.714000000000002,-1.1324999999999532,0.94249999999998,-0.92499999999996
11.734000000000004,-0.2899999999997335,0.36999999999987565,-0.5999999999999467
11.754000000000003,0.7766666666667456,-0.0366666666666864,-0.51
11.774000000000003,1.007777777777783,-0.11,-0.49111111111110844
11.794000000000002,0.9185714285714243,0.0042857142857171855,-0.37571428571428284
11.814000000000004,0.4459999999999744,0.02799999999998721,-0.10799999999998722
11.834000000000003,0.22,-0.1866666666666864,-0.03
11.854000000000003,0.2700000000000178,-0.3700000000000355,-0.12000000000001776
11.874000000000002,0.37000000000001776,-0.45,-0.20000000000001777
11.894000000000004,0.38,-0.4885714285714344,-0.22
11.914000000000003,0.2519999999999886,-0.5359999999999944,-0.19
11.934000000000003,0.13,-0.45999999999998226,-0.12999999999996448
11.954000000000002,0.07666666666665681,-0.3766666666666568,-0.05
11.974000000000004,0.049999999999964476,-0.279999999999929,-0.09000000000007105
11.994000000000003,-0.0433333333333432,0.06666666666671602,-0.22
12.014000000000003,-0.06,0.3450000000000059,-0.16999999999998816
12.034000000000002,-0.02,0.03666666666659758,0.0366666666666864
12.054000000000004,-0.10666666666669035,-0.5800000000001067,0.16333333333334518
12.074000000000003,-0.1333333333333136,-1.0566666666666864,0.1633333333333136
12.094000000000003,-0.03399999999999408,-1.0726666666666629,0.046666666666656795
12.114000000000003,-0.21000000000002664,0.5300000000000578,-0.3399999999999734
12.134000000000004,-0.7150000000000666,1.1650000000000222,0.32000000000017764
12.154000000000003,-0.4966666666665976,0.8533333333332545,0.8300000000000592
12.174000000000003,0.1800000000001421,0.059999999999786835,1.1200000000000356
12.194000000000003,0.5900000000000266,-0.8650000000001199,1.1449999999999867
12.214000000000002,0.6425000000000067,-1.2425000000000066,1.0474999999999934
12.234000000000004,0.7800000000000356,-1.1599999999999289,0.9599999999999822
12.254000000000003,0.8166666666666568,-0.8399999999999408,0.9066666666666569
12.274000000000003,0.7299999999999645,-0.49999999999992895,0.87
12.294000000000002,0.71,-0.45238095238095116,0.8623809523809511
12.314000000000004,0.7520000000000064,-0.9720000000000384,0.38799999999996165
12.334000000000003,0.7066666666666271,-1.1333333333333135,-0.16000000000005923
12.354000000000003,0.3324999999999456,-0.66749999999993,-0.5875000000000233
12.374000000000002,-0.13000000000012435,-0.01999999999984013,-0.6799999999999823
12.394000000000004,-0.6300000000001776,0.6400000000002132,-0.5899999999999289
12.414000000000003,-0.9525000000000077,0.8649999999999844,-0.4674999999999922
12.434000000000003,-0.9499999999999733,0.6499999999999467,-0.41
12.454000000000002,-0.6949999999999334,0.1649999999999334,-0.39
12.474000000000004,-0.33499999999991115,-0.22500000000005327,-0.4
12.494000000000003,-0.05999999999985789,-0.33,-0.41
12.514000000000003,0.22500000000001555,-0.24749999999999223,-0.3349999999999845
12.534000000000002,0.3550000000000133,-0.21,-0.15999999999997336
12.554000000000004,0.38,-0.21,-0.0249999999999889
12.574000000000003,0.35999999999996446,-0.18999999999996448,0.0
12.594000000000003,0.2699999999999645,-0.09999999999996448,-0.10000000000003553
12.614000000000003,0.10999999999997336,0.04500000000001332,-0.32000000000002665
12.634000000000004,-0.060000000000044414,0.07,-0.5000000000000444
12.654000000000003,-0.20333333333336095,0.07,-0.5966666666666804
12.674000000000003,-0.3266666666666746,0.16333333333334912,-0.6433333333333254
12.694000000000003,-0.2799999999999867,0.24500000000000666,-0.5449999999999934
12.714000000000004,-0.20666666666665087,0.2666666666666509,-0.5
12.734000000000004,-0.13,0.1866666666666568,-0.5133333333333432
12.754000000000003,-0.16666666666667457,0.11333333333332543,-0.56
12.774000000000003,-0.27000000000002666,-0.045000000000039966,-0.5049999999999867
12.794000000000004,-0.41000000000004444,-0.27500000000006664,-0.34499999999993336
12.814000000000004,-0.48666666666668046,-0.4066666666666805,-0.07333333333327807
12.834000000000003,-0.46499999999998665,-0.47,0.18000000000002664
12.854000000000003,-0.2999999999999704,-0.4066666666666568,0.3233333333333432
12.874000000000002,0.03333333333337281,-0.3166666666666568,0.4033333333333432
12.894000000000004,0.4700000000000592,-0.1933333333333136,0.43
12.914000000000003,0.7033333333333925,-0.12333333333332148,0.41
12.934000000000003,1.0700000000000711,-0.049999999999964476,0.38
12.954000000000002,1.1199999999999732,0.0,0.37
12.974000000000004,0.9549999999999467,0.01,0.32499999999998225
12.994000000000003,0.6699999999999289,0.0,0.19499999999998224
13.014000000000003,0.313333333333284,-0.0233333333333432,0.053333333333313596
13.034000000000002,-0.020000000000026646,-0.03,-0.07000000000001333
13.054000000000004,-0.18,-0.12000000000003552,-0.18000000000003552
13.074000000000003,-0.14999999999996447,-0.27000000000007107,-0.24000000000003552
13.094000000000003,-0.05999999999996447,-0.3399999999999645,-0.2699999999999645
13.114000000000003,-0.02,-0.08999999999997632,-0.12666666666665088
13.134000000000004,0.0,0.14000000000004442,0.05000000000004441
13.154000000000003,0.08000000000001184,0.18999999999998815,0.22000000000001185
13.174000000000003,0.16000000000001185,0.17,0.28
13.194000000000003,0.2,0.21,0.29
13.214000000000004,0.16,0.23999999999998814,0.26
13.234000000000004,0.11,0.17666666666663905,0.24333333333331952
13.254000000000003,0.08,-2.368244489403537e-14,0.20333333333332546
13.274000000000003,0.07,-0.22333333333334912,0.15333333333332544
13.294000000000004,0.07,-0.28800000000000237,0.14
13.314000000000004,0.10000000000001184,-0.2699999999999882,0.19000000000001185
13.334000000000003,0.15000000000003552,-0.30000000000007104,0.24
13.354000000000003,0.2933333333333491,-0.5666666666666982,0.22
13.374000000000004,0.49333333333336093,-0.9533333333334024,0.17
13.394000000000004,0.6166666666666805,-1.213333333333361,0.11
13.414000000000003,0.65,-1.1799999999999866,0.08500000000000665
13.434000000000003,0.5599999999999764,-0.8699999999999408,0.15000000000001185
13.454000000000004,0.3533333333332781,-0.5133333333332781,0.30000000000004146
13.474000000000004,0.05999999999996447,-0.16999999999996449,0.4600000000000237
13.494000000000003,-0.08000000000010658,-0.019999999999928946,0.4999999999999645
13.514000000000003,-0.17333333333332546,0.07,0.44
13.534000000000002,-0.15,0.023333333333325438,0.3733333333333254
13.554000000000004,-0.19000000000001185,0.03000000000001184,0.2599999999999882
13.574000000000003,-0.2566666666666805,0.14333333333336096,0.16333333333331954
13.594000000000003,-0.3,0.29210526315789725,0.15
13.614000000000003,-0.31,0.33333333333334914,0.15666666666667456
13.634000000000004,-0.3,0.4300000000000118,0.24000000000001184
13.654000000000003,-0.31,0.6500000000000474,0.19999999999997634
13.674000000000003,-0.31,0.9100000000001421,0.02999999999985789
13.694000000000003,-0.2999999999999822,1.1100000000000179,-0.2400000000000888
13.714000000000004,-0.38000000000001183,1.0399999999999645,-0.6200000000000119
13.734000000000004,-0.46,0.8849999999999822,-0.5849999999999467
13.754000000000003,-0.45999999999998226,0.7899999999999823,-0.21999999999991118
13.774000000000003,-0.3299999999999645,0.76,0.30000000000012433
13.794000000000004,-0.1299999999999467,0.81,0.720000000000071
13.814000000000004,0.09000000000002664,0.5999999999999645,1.2100000000000621
13.834000000000003,0.27000000000001184,0.42,1.6600000000000354
13.854000000000003,0.28999999999996445,0.7600000000001244,1.5299999999998402
13.874000000000004,0.09999999999996448,1.4900000000001954,0.7599999999998579
13.894000000000004,-0.06000000000001421,2.100000000000007,0.3899999999999929
13.914000000000003,-0.19000000000003553,1.6099999999997336,0.4900000000000533
13.934000000000003,-0.3800000000000237,0.16999999999976317,0.6199999999999763
13.954000000000004,-0.2899999999998934,-1.110000000000089,0.06999999999978684
13.974000000000004,0.2300000000000533,-0.9499999999998934,-0.9800000000001776
13.994000000000003,-0.10000000000015395,-0.5099999999999526,-1.41
14.014000000000003,-1.280000000000154,0.1900000000001421,-1.5100000000000593
14.034000000000004,-1.4799999999998046,1.0400000000001066,-2.2200000000001423
14.054000000000004,-0.4299999999998934,0.9933333333332031,-2.163333333333203
14.074000000000003,-0.16999999999998816,-0.050000000000153956,-0.9899999999997868
14.094000000000003,0.01000000000000533,-1.1200000000000179,0.22000000000002487
14.114000000000003,0.04000000000005329,-1.2200000000001598,0.3600000000002487
14.134000000000004,0.3435714285714314,0.3300000000000787,1.5028571428571373
14.154000000000003,0.24399999999998628,1.767333333333331,0.9633333333333104
14.174000000000003,-0.9333333333334617,0.24999999999982236,-0.08333333333340241
14.194000000000003,-1.7200000000000533,-0.9700000000000799,-0.4100000000000266
14.214000000000004,-1.9199999999999822,-1.01999999999996,-0.8300000000000355
14.234000000000004,-1.279999999999769,-0.0999999999998046,-1.4900000000001066
14.254000000000003,-0.029999999999680255,0.6000000000000888,-1.4899999999998756
14.274000000000003,1.1700000000004618,0.7799999999999645,-0.8899999999997158
14.294000000000004,1.8400000000001067,0.7600000000000355,-0.4299999999998579
14.314000000000004,1.8359999999999745,0.84,-0.009999999999968028
14.334000000000003,1.319999999999929,0.5799999999999289,0.4500000000000444
14.354000000000003,0.7199999999999408,-0.23333333333343204,0.6566666666666569
14.374000000000004,0.32666666666660354,-0.8966666666667457,0.3733333333332544
14.394000000000004,0.12499999999998446,-1.0274999999999923,0.002499999999976686
14.414000000000003,0.09,-0.7199999999997868,-0.16
14.434000000000003,0.11,-0.22333333333328398,-0.1466666666666568
14.454000000000004,0.07,0.03,-0.12
14.474000000000004,0.1033333333333432,-0.1000000000000296,-0.1866666666666864
14.494000000000003,0.17333333333334322,-0.4000000000000296,-0.42000000000002957
14.514000000000003,0.16499999999998669,-0.5124999999999933,-0.7050000000000133
14.534000000000004,0.014999999999977795,-0.304999999999889,-0.6549999999999334
14.554000000000004,-0.03500000000001777,0.06500000000008882,-0.45
14.574000000000003,-0.2166666666666864,0.36,-0.45
14.594000000000003,-0.28,-0.027500000000054405,-0.3574999999999922
14.614000000000004,-0.3850000000000222,-0.2899999999999112,-0.3850000000000666
14.634000000000004,-0.5066666666666982,0.20000000000014212,-0.4066666666666035
14.654000000000003,-0.5149999999999822,1.14500000000016,0.06000000000010658
14.674000000000003,-0.35499999999996,1.08999999999984,0.34
14.694000000000004,0.1500000000001421,-0.2966666666669825,0.37666666666669824
14.714000000000004,0.8666666666667929,-1.4700000000000948,0.5266666666666983
14.734000000000004,1.16,-1.4766666666666273,0.6933333333333729
14.754000000000003,0.9999999999999734,-0.9149999999999068,0.91
14.774000000000003,0.81499999999996,-0.42499999999993343,0.8199999999999734
14.794000000000004,0.504999999999889,-0.2650000000000222,0.5499999999999112
14.814000000000004,0.03666666666659758,-0.3733333333333432,0.32666666666665684
14.834000000000003,-0.4566666666666864,-0.38666666666665683,0.28
14.854000000000003,-0.5949999999999867,-0.1299999999999467,0.15999999999997336
14.874000000000004,-0.3199999999999112,0.28500000000015546,-0.11500000000011103
14.894000000000004,-0.0333333333333136,0.7533333333333728,-0.3166666666666568
14.914000000000003,0.13500000000001777,0.7849999999999467,-0.06499999999991118
14.934000000000003,0.29000000000010656,0.3199999999997158,0.2700000000001066
14.954000000000004,0.511428571428583,-0.2900000000000406,0.3842857142857085
14.974000000000004,0.65,-0.6550000000000178,0.21999999999992895
14.994000000000003,0.5149999999999467,-0.5699999999999645,0.014999999999982236
15.014000000000003,0.19999999999997337,-0.2999999999999734,0.05500000000000666
15.034000000000004,-0.10000000000004441,0.07000000000008882,0.1550000000000222
15.054000000000004,-0.24,0.26000000000003554,0.17
15.074000000000003,-0.20499999999998225,0.23999999999996446,0.14
15.094000000000003,-0.06999999999996448,0.009999999999928946,0.18000000000001184
15.114000000000004,0.18571428571430312,-0.43285714285717186,0.3085714285714344
15.134000000000004,0.4200000000000444,-0.7750000000000222,0.3849999999999778
15.154000000000003,0.49,-0.7933333333333196,0.30666666666663905
15.174000000000003,0.4759999999999943,-0.6239999999999772,0.19199999999998862
15.194000000000004,0.41,-0.24999999999995381,0.005999999999990763
15.214000000000004,0.3249999999999778,0.04500000000006661,-0.07
15.234000000000004,0.29,0.2500000000000355,-0.05
15.254000000000003,0.2549999999999867,0.3750000000000133,-0.07500000000001333
15.274000000000004,0.17666666666663905,0.43,-0.15666666666668047
15.294000000000004,0.014999999999977795,0.3874999999999889,-0.22
15.314000000000004,-0.19333333333336097,0.25666666666663907,-0.25
15.334000000000003,-0.3,0.07999999999997336,-0.25
15.354000000000005,-0.23999999999995558,-0.015000000000022204,-0.23
15.374000000000004,-0.1399999999999645,-0.06,-0.21
15.394000000000004,-0.15666666666668047,-0.11666666666668048,-0.2
15.414000000000003,-0.25666666666667853,-0.21333333333335702,-0.19
15.434000000000003,-0.34666666666667456,-0.3800000000000237,-0.2
15.454000000000004,-0.473333333333361,-0.5466666666666805,-0.30333333333336093
15.474000000000004,-0.6750000000000533,-0.5849999999999822,-0.4700000000000355
15.494000000000003,-0.9133333333333571,-0.353333333333286,-0.49333333333332147
15.514000000000003,-1.0533333333333372,0.06000000000002369,-0.3066666666666509
15.534000000000004,-1.026666666666639,0.5333333333334025,-0.06666666666663904
15.554000000000004,-0.7766666666665976,0.7766666666666805,0.06666666666668049
15.574000000000003,-0.31999999999989337,0.7499999999999645,0.06499999999998224
15.594000000000003,0.18333333333337282,0.4366666666666272,0.01
15.614000000000004,0.5566666666667219,-0.030000000000082898,-0.02666666666668048
15.634000000000004,0.7350000000000222,-0.3800000000000888,-0.0850000000000222
15.654000000000003,0.7233333333333195,-0.5566666666666805,-0.18666666666668047
15.674000000000003,0.5699999999999763,-0.4966666666666509,-0.27
15.694000000000004,0.31199999999998296,-0.25199999999998296,-0.2879999999999957
15.714000000000004,-0.026666666666701207,0.12333333333336097,-0.23333333333331951
15.734000000000004,-0.31333333333336094,0.3866666666666805,-0.14
15.754000000000003,-0.34999999999998815,0.4099999999999763,-0.10999999999998816
15.774000000000004,-0.2149999999999334,0.2099999999999112,-0.0649999999999778
15.794000000000004,-0.04588235294116964,0.011176470588226194,-0.02529411764705655
15.814000000000004,0.26000000000001183,-0.26000000000001183,0.0
15.834000000000003,0.31,-0.23999999999998814,0.0
15.854000000000005,0.23999999999996446,-0.12999999999998224,0.02
15.874000000000004,0.08499999999993339,-0.014999999999977795,0.0450000000000222
15.894000000000004,-0.05,0.0,0.08285714285714901
15.914000000000003,-0.08333333333332149,-0.03,0.1
15.934000000000005,-0.06,-0.08,0.15000000000001776
15.954000000000004,-0.009999999999988157,-0.11,0.24000000000001184
15.974000000000004,0.05000000000001185,-0.15,0.3100000000000118
15.994000000000003,0.09,-0.22500000000000667,0.31
16.014000000000003,0.14666666666667455,-0.3166666666666746,0.29
16.034000000000002,0.24000000000001184,-0.3700000000000118,0.29
16.054000000000002,0.3,-0.38,0.26
16.074,0.2919999999999957,-0.34199999999999575,0.25
16.094,0.23,-0.22,0.23
16.114,0.15333333333332544,-0.12333333333332544,0.20333333333332546
16.134,0.07,-0.06,0.15
16.154000000000003,0.02,-0.009999999999988157,0.07999999999998816
16.174000000000003,0.01,0.06000000000001776,-3.55271367880247e-14
16.194000000000003,-0.016000000000004264,0.1,-0.06
16.214000000000002,-0.03,0.12,-0.06
16.234,-0.014999999999991118,0.13,-0.07
16.254,0.05,0.09,-0.09
16.274,0.11,0.05,-0.11
16.294,0.135,0.015,-0.15
16.314000000000004,0.12999999999998224,-0.030000000000017762,-0.17
16.334000000000003,0.11,-0.08,-0.18
16.354000000000003,0.15000000000001185,-0.11,-0.18
16.374000000000002,0.21,-0.13,-0.16
16.394000000000002,0.24,-0.16,-0.11799999999999787
16.414,0.25,-0.23200000000000284,-0.09399999999999858
16.434,0.22,-0.27,-0.13
16.454,0.16,-0.24,-0.17
16.474000000000004,0.05999999999998815,-0.14999999999997632,-0.20000000000001186
16.494000000000003,-0.05,-0.03999999999999556,-0.23
16.514000000000003,-0.1,0.035000000000008885,-0.24
16.534000000000002,-0.07999999999998224,0.04,-0.23
16.554000000000002,-0.029999999999982235,-0.010000000000017764,-0.19
16.574,0.03,-0.09,-0.15
16.594,0.08,-0.13,-0.11
16.614,0.11,-0.12,-0.1
16.634000000000004,0.09999999999996448,-0.11,-0.08
16.654000000000003,0.03999999999998224,-0.08,-0.08
16.674000000000003,-8.881784196998286e-15,-0.05,-0.08
16.694000000000003,-0.01,-0.05,-0.07999999999999408
16.714000000000002,-0.01,-0.06,-0.06238095238095351
16.734,0.01,-0.06,-0.05
16.754,0.04,-0.02,-0.04
16.774,0.00666666666666272,0.04333333333333728,-0.03
16.794,-0.07,0.07,-0.03
16.814000000000004,-0.12000000000003552,0.07,-0.03
16.834000000000003,-0.15,0.07,-0.03
16.854000000000003,-0.12,0.07,-0.01
16.874000000000002,-0.05,0.07,0.010000000000017764
16.894000000000002,-0.02,0.07,0.07
16.914,0.01,0.04,0.11
16.934,0.04,-0.023333333333333334,0.12
16.954,0.05,-0.09,0.09
16.974000000000004,0.04,-0.08,0.07
16.994000000000003,0.023333333333325438,-0.04333333333332544,0.07
17.014000000000003,-0.011818181818184167,0.02181818181818417,0.07
17.034000000000002,-0.04,0.07500000000000889,0.06
17.054000000000002,-0.04,0.09,0.04
17.074,-0.03,0.05,0.05
17.094,-0.03499999999999556,0.004999999999995559,0.04500000000000444
17.114,-0.04,-0.01,0.03833333333333136
17.134000000000004,-0.04,0.01,0.02
17.154000000000003,-0.03,0.03,0.02
17.174000000000003,-0.04,0.05,0.0
17.194000000000003,-0.06,0.05125000000000167,-0.0012500000000016654
17.214000000000002,-0.05,0.05,0.007272727272724631
17.234,-0.03,0.02,0.01
17.254,0.0,-0.01,0.02
17.274,0.01,0.0,0.02
17.294000000000004,-0.015000000000017763,0.0,0.01
17.314000000000004,-0.06000000000001776,0.01,-0.01
17.334000000000003,-0.10333333333334913,0.023333333333349124,-0.03
17.354000000000003,-0.13,0.05,-0.03
17.374000000000002,-0.11,0.07333333333333729,-0.03333333333333728
17.394000000000002,-0.1,0.08,-0.05
17.414,-0.12,0.08,-0.06666666666666272
17.434,-0.1650000000000089,0.08,-0.07
17.454,-0.2,0.08,-0.1
17.474000000000004,-0.2,0.11500000000001775,-0.14
17.494000000000003,-0.2,0.15333333333333465,-0.15
17.514000000000003,-0.2,0.19000000000003553,-0.15
17.534000000000002,-0.18,0.28333333333333727,-0.1
17.554000000000002,-0.13666666666666272,0.3266666666666627,-0.06666666666666272
17.574,-0.056666666666662716,0.28666666666666274,0.0
17.594,0.05200000000000284,0.19799999999999715,0.03
17.614,0.16130434782608702,0.058695652173912975,0.05
17.634000000000004,0.17000000000001778,0.049999999999964476,0.050000000000017766
17.654000000000003,0.21499999999998223,-0.09500000000001776,0.10500000000001777
17.674000000000003,0.15799999999999148,-0.08,0.12
17.694000000000003,0.1,-0.0485714285714264,0.12
17.714000000000002,0.1,-0.02,0.12
17.734,0.12,-0.035000000000008885,0.12
17.754,0.14,-0.06,0.12
17.774,0.14,-0.056666666666662716,0.11666666666666271
17.794000000000004,0.11999999999999289,-0.03,0.0999999999999929
17.814000000000004,0.06499999999998224,-0.0049999999999822365,0.07
17.834000000000003,0.01,0.025000000000017765,0.03499999999998224
17.854000000000003,-0.03666666666667456,0.05,0.01333333333332544
17.874000000000002,-0.06,0.07,0.0
17.894000000000002,-0.06,0.07,-0.01
17.914,-0.06,0.07,-0.01
17.934,-0.05499999999999112,0.08,0.01
17.954,-0.03,0.06,0.05
17.974000000000004,0.015000000000017763,0.0049999999999822365,0.07
17.994000000000003,0.04,-0.04000000000003553,0.07
18.014000000000003,0.05,-0.05,0.06
18.034000000000002,0.07499999999999113,-0.06,0.04
18.054000000000002,0.06,-0.05,0.03
18.074,0.02,-0.014999999999991118,0.025000000000008883
18.094,-0.01,0.01,0.04
18.114,-0.01,-0.002105263157895229,0.05210526315789523
18.134000000000004,0.02,-0.030000000000035526,0.06
18.154000000000003,0.06,-0.06,0.06499999999998224
18.174000000000003,0.06,-0.05,0.06
18.194000000000003,0.01,-0.03,0.07
18.214000000000002,-0.05071428571428662,0.01,0.09071428571428662
18.234,-0.09,0.046666666666674565,0.14
18.254,-0.08,0.06,0.17
18.274,-0.023333333333325438,0.06,0.20666666666667455
18.294000000000004,0.04500000000000888,0.03499999999999112,0.25
18.314000000000004,0.08,-0.010434782608697735,0.3
18.334000000000003,0.08,-0.01913043478261071,0.3
18.354000000000003,0.04,0.02666666666667456,0.27
18.374000000000002,0.0,0.14000000000001778,0.29500000000000887
18.394000000000002,-0.0336363636363651,0.2136363636363651,0.3736363636363651
18.414,-0.12235294117647354,0.29117647058823676,0.47
18.434,-0.22,0.36,0.49
18.454000000000004,-0.27,0.4566666666666825,0.4133333333333175
18.474000000000004,-0.2166666666666627,0.4266666666666627,0.3266666666666627
18.494000000000003,-0.09799999999999716,0.31599999999999434,0.28
18.514000000000003,-0.026538461538460012,0.31346153846154,0.28
18.534000000000002,-0.01,0.33,0.2900000000000355
18.554000000000002,-0.17666666666667455,0.32,0.6200000000000236
18.574,-0.15,0.53,0.94
18.594,-0.07666666666665088,0.6966666666666745,1.1366666666666745
18.614,0.13625000000000695,0.6262499999999959,0.8599999999999889
18.634000000000004,0.47428571428573385,0.21857142857137637,0.2799999999999543
18.654000000000003,0.3699999999999526,-0.41666666666669827,-0.07666666666665088
18.674000000000003,-0.19000000000004735,-0.6033333333333254,0.1600000000000237
18.694000000000003,-0.37,-0.11999999999997159,0.29799999999999716
18.714000000000002,-0.24615384615384467,0.7084615384615532,0.05076923076922342
18.734,-0.12,1.09,-0.33
18.754,0.12,0.37,-0.42
18.774,-0.16,-0.34,-0.61
18.794000000000004,-0.9633333333334103,-0.37333333333332147,-0.8333333333333393
18.814000000000004,-1.722500000000014,-0.012499999999980568,-0.9074999999999973
18.834000000000003,-0.9933333333332307,0.6800000000000237,-0.42999999999992894
18.854000000000003,-0.15999999999988157,0.4999999999999171,0.22000000000009473
18.874000000000002,0.5033333333333728,-0.21000000000011843,0.8333333333333965
18.894000000000002,0.3090909090908853,-1.5327272727273151,1.1545454545454572
18.914,-0.2509090909090921,-2.152727272727273,1.039090909090908
18.934,-0.23,-1.19,0.44
18.954000000000004,0.5000000000001421,1.420000000000379,-0.6433333333335071
18.974000000000004,0.5399999999998816,1.2099999999997157,-1.4200000000001183
18.994000000000003,-0.42555555555559765,-0.24666666666669826,-1.9344444444444497
19.014000000000003,-1.6600000000004618,-0.6399999999998224,-1.869999999999929
19.034000000000002,-2.243333333333337,-0.004166666666653829,-1.8358333333333343
19.054000000000002,-1.8999999999998816,0.6699999999999645,-1.8499999999999763
19.074,-1.07,0.36,-1.58
19.094,-0.3014285714285584,-0.031428571428578675,-1.2342857142857055
19.114000000000004,0.25500000000001927,-0.16,-0.7708333333333109
19.134000000000004,0.8400000000000888,0.09000000000003552,-0.04999999999987566
19.154000000000003,1.2500000000000593,0.06999999999996448,0.4900000000000592
19.174000000000003,1.46,-0.3800000000000829,0.6799999999999882
19.194000000000003,1.357999999999983,-0.8500000000000284,0.4059999999999659
19.214000000000002,1.0757142857142779,-0.9328571428571388,-0.007857142857152827
19.234,0.61,-0.47,-0.2
19.254,0.16,0.15,-0.1
19.274,-0.37,0.56,0.07
19.294000000000004,-0.6730769230769273,0.4853846153846091,0.046923076923072723
19.314000000000004,-0.6499999999999764,0.10999999999996447,-0.16000000000003553
19.334000000000003,-0.46333333333330173,0.03000000000004737,-0.23
19.354000000000003,-0.35999999999998816,0.38000000000005923,-0.03999999999995263
19.374000000000002,-0.2599999999999645,0.6499999999999467,0.26000000000003554
19.394000000000002,-0.09666666666666272,-0.023333333333384654,0.4933333333333491
19.414,-0.03,-0.9233333333333491,0.7911111111111164
19.434,0.02,-0.81,0.9
19.454000000000004,0.3350000000000799,0.21500000000045297,0.4249999999998668
19.474000000000004,0.19999999999994672,1.1900000000000177,0.21000000000001776
19.494000000000003,0.2166666666666864,0.9266666666666271,0.5966666666666982
19.514000000000003,0.9200000000001777,-0.2400000000002842,1.170000000000071
19.534000000000002,1.5000000000000355,-1.3700000000001777,1.229999999999929
19.554000000000002,1.2999999999998757,-1.7099999999999644,0.7799999999998934
19.574,0.6524999999999944,-1.2924999999999944,0.35499999999999776
19.594,-0.24,-0.16,0.18
19.614000000000004,-0.7360000000000299,0.6840000000000553,0.19
19.634000000000004,-1.0694117647058858,1.3488235294117716,0.21470588235294288
19.654000000000003,-0.9399999999999111,1.12999999999984,0.32
19.674000000000003,-0.41249999999992226,0.274999999999889,0.2249999999999778
19.694000000000003,0.13000000000004736,-0.38666666666672195,0.11333333333332543
19.714000000000002,0.4150000000000111,-0.6375000000000055,0.06
19.734,0.5826315789473695,-0.6221052631578915,0.017368421052630496
19.754,0.55,-0.29,-0.1
19.774000000000004,0.23999999999995264,0.19000000000004735,-0.3833333333333491
19.794000000000004,-2.368244489403537e-14,0.3166666666666746,-0.4366666666666746
19.814000000000004,-0.17333333333334122,0.2666666666666588,-0.37
19.834000000000003,-0.26444444444444576,0.16111111111110848,-0.32
19.854000000000003,-0.35,-0.010000000000023684,-0.3299999999999882
19.874000000000002,-0.37,-0.11333333333333728,-0.2166666666666627
19.894000000000002,-0.3399999999999882,-0.13,-0.08999999999998816
19.914,-0.2927272727272721,-0.11272727272727213,-0.022727272727272138
19.934,-0.2166666666666627,-0.02666666666666272,-0.02333333333333728
19.954000000000004,-0.17,0.033333333333349126,-0.036666666666650874
19.974000000000004,-0.11,0.06,-0.055000000000017764
19.994000000000003,-0.09,0.07,-0.11428571428571864
20.014000000000003,-0.09,0.14666666666668246,-0.21333333333334123
20.034000000000002,-0.12333333333333728,0.2433333333333373,-0.26
20.054000000000002,-0.21666666666667456,0.3333333333333373,-0.27
20.074,-0.3150000000000089,0.39,-0.27
20.094,-0.36,0.39,-0.25
20.114000000000004,-0.36363636363635865,0.31727272727271727,-0.21
20.134000000000004,-0.2633333333333018,-0.02000000000004737,-0.13
20.154000000000003,-0.14666666666665087,-0.27000000000004737,-0.13
20.174000000000003,-0.07,-0.38,-0.1366666666666509
20.194000000000003,-0.04399999999999574,-0.30799999999999145,-0.12
20.214000000000002,0.030000000000071053,-0.11999999999992894,-0.05999999999996447
20.234,0.1594736842105275,0.004736842105263749,-0.015263157894736252
20.254,0.3900000000000178,-0.04500000000000888,0.05
20.274000000000004,0.44,-0.20000000000004736,0.1
20.294000000000004,0.3749999999999778,-0.3750000000000222,0.13
20.314000000000004,0.279999999999929,-0.45,0.08999999999996447
20.334000000000003,0.13176470588235098,-0.4358823529411755,0.011764705882350976
20.354000000000003,-0.08500000000000887,-0.14499999999997337,-0.07
20.374000000000002,-0.19,0.13500000000002665,-0.09
20.394000000000002,-0.16999999999996449,0.26000000000003554,-0.07999999999996447
20.414,-0.09222222222221696,0.25111111111110845,-0.06
20.434000000000005,0.04000000000000761,0.1899999999999924,-0.034999999999996194
20.454000000000004,0.16,0.11499999999997335,0.0
20.474000000000004,0.15,0.13,0.01
20.494000000000003,0.11999999999996447,0.17,-0.020000000000035528
20.514000000000003,0.06499999999999778,0.22,-0.07500000000000223
20.534000000000002,0.0018181818181803502,0.26,-0.1
20.554000000000002,-0.11,0.3150000000000089,-0.09
20.574,-0.12499999999999112,0.3049999999999911,-0.05499999999999112
20.594,-0.09,0.23624999999999943,-0.01249999999999889
20.614000000000004,-0.02684210526315563,0.14684210526315564,0.03
20.634000000000004,0.07000000000003553,0.07,0.07000000000003553
20.654000000000003,0.13500000000001777,-0.015000000000017763,0.09500000000001776
20.674000000000003,0.20500000000001778,-0.13000000000003553,0.11
20.694000000000003,0.26,-0.2433333333333373,0.1266666666666627
20.714000000000002,0.27,-0.2962500000000039,0.09374999999999611
20.734,0.23,-0.32,0.03578947368420954
20.754,0.1,-0.22,0.04
20.774000000000004,-0.08500000000003997,-0.04999999999997336,0.07
20.794000000000004,-0.3100000000000355,0.16000000000003553,0.08000000000001184
20.814000000000004,-0.5100000000001066,0.33000000000003554,0.1
20.834000000000003,-0.615000000000002,0.35,0.09
20.854000000000003,-0.5499999999999823,0.21999999999998224,0.04
20.874000000000002,-0.3966666666666627,0.05666666666666272,-0.01666666666666864
20.894000000000002,-0.18333333333332544,-0.07333333333333729,-0.09666666666667456
20.914,-0.003749999999991673,-0.041249999999997226,-0.19750000000000556
20.934000000000005,0.16066666666667456,0.02533333333333728,-0.2553333333333373
20.954000000000004,0.1666666666666351,0.27000000000004737,-0.1366666666666351
20.974000000000004,-0.04750000000003331,0.5825000000000555,0.13250000000005552
20.994000000000003,-0.2533333333333491,1.2033333333334202,0.7966666666667456
21.014000000000003,-0.33,1.9900000000000888,1.45500000000008
21.034000000000002,-0.28181818181818036,2.4609090909090985,1.9754545454545571
21.054000000000002,0.10000000000007106,2.2949999999998845,2.5800000000000356
21.074,1.0500000000000267,0.08999999999992896,2.519999999999991
21.094000000000005,2.420000000000201,-2.3100000000002012,1.9299999999998578
21.114000000000004,3.2271428571429293,-3.0100000000000557,1.0342857142855788
21.134000000000004,3.174285714285692,-3.165714285714284,-2.3696322681843185e-14
21.154000000000003,-0.19000000000067502,-2.644999999999769,-0.78
21.174000000000003,-2.3900000000000854,-0.5979999999998125,-0.9380000000000398
21.194000000000003,-2.319999999999834,2.040000000000225,-1.4099999999999762
21.214000000000002,-1.3719999999999446,2.4159999999999617,-1.0179999999999703
21.234,-0.73,1.1,-0.77
21.254,-0.4960000000000114,-1.4040000000000312,-0.88
21.274000000000004,-0.74,-1.44999999999984,-0.6499999999998934
21.294000000000004,-0.3566666666665798,-0.6233333333332307,-0.3233333333333017
21.314000000000004,0.4300000000006395,0.10000000000035528,-0.10999999999985789
21.334000000000003,1.8100000000000533,-0.4800000000004796,0.059999999999928944
21.354000000000003,1.5399999999999527,-2.670000000000142,-0.5200000000000474
21.374000000000002,1.0666666666666273,-3.2399999999999762,-0.7133333333333254
21.394000000000002,0.7499999999998224,-2.359999999999325,-0.61
21.414,0.45,-1.19,-0.6
21.434000000000005,-0.16272727272731502,0.06818181818188689,-0.5318181818181713
21.454000000000004,-0.6400000000000267,0.8900000000000533,-0.5200000000000267
21.474000000000004,-0.8900000000000237,1.3500000000000474,-0.7033333333333491
21.494000000000003,-1.008571428571422,1.7342857142857337,-0.6671428571428442
21.514000000000003,-0.9138461538461482,1.8346153846153828,-0.4030769230769136
21.534000000000002,-0.39999999999991714,1.1499999999998578,0.2400000000000592
21.554000000000002,0.14000000000008883,0.029999999999769073,0.47
21.574,0.38,-0.69,0.26
21.594000000000005,0.28999999999994674,-0.7699999999999467,0.01999999999994671
21.614000000000004,0.11499999999992007,-0.49999999999984013,-0.06
21.634000000000004,-0.09076923076924254,-0.12384615384613619,-0.06769230769231063
21.654000000000003,-0.5300000000000356,0.38000000000001183,-0.19000000000003553
21.674000000000003,-0.7800000000000533,0.4000000000000178,-0.4900000000001066
21.694000000000003,-0.9900000000001421,0.6000000000002131,-0.8700000000001066
21.714000000000002,-1.2700000000000238,1.3500000000001184,-0.8899999999999408
21.734,-1.22,1.81,-0.44
21.754000000000005,-1.1081818181818093,1.5136363636363328,-0.25272727272726175
21.774000000000004,2.3092638912216055e-13,-1.0200000000001777,0.5000000000000355
21.794000000000004,0.6950000000001244,-1.41,0.5249999999999823
21.814000000000004,0.8299999999999289,-0.3399999999998224,0.4499999999999882
21.834000000000003,0.14999999999984012,0.8000000000002132,0.45000000000007107
21.854000000000003,-0.10428571428571864,1.131428571428578,0.651428571428578
21.874000000000002,0.43500000000003997,0.4949999999999334,1.3050000000000046
21.894000000000002,0.8499999999999822,-0.8100000000001777,1.1199999999999113
21.914,0.49,-1.16,0.64
21.934000000000005,0.029999999999715782,-0.8499999999997158,0.28999999999982234
21.954000000000004,-0.40600000000001657,-0.39599999999998103,0.0559999999999929
21.974000000000004,-0.7999999999999645,0.4400000000000888,0.12000000000005329
21.994000000000003,-0.6099999999999289,0.6700000000000356,0.3150000000000533
22.014000000000003,9.473903143467643e-14,0.3699999999999171,0.3299999999999645
22.034000000000002,0.5000000000000533,-0.2100000000001421,-0.060000000000088816
22.054000000000002,0.5966666666666627,-0.6450000000000059,-0.5266666666666746
22.074,0.37,-0.66,-0.69
22.094000000000005,0.02999999999995559,-0.3249999999999334,-0.6774999999999889
22.114000000000004,-0.26000000000004736,0.16000000000009476,-0.65
22.134000000000004,-0.4500000000000237,0.5100000000000355,-0.6699999999999882
22.154000000000003,-0.5500000000000178,0.65,-0.6399999999999822
22.174000000000003,-0.5399999999999882,0.5999999999999763,-0.5699999999999881
22.194000000000003,-0.4333333333333254,0.3899999999999882,-0.46333333333332544
22.214000000000002,-0.34666666666666274,0.13999999999998816,-0.3866666666666627
22.234,-0.3247368421052619,0.029473684210523758,-0.37
22.254000000000005,-0.29999999999998817,-0.08,-0.3999999999999882
22.274000000000004,-0.27,-0.11,-0.3349999999999734
22.294000000000004,-0.25,-0.22333333333334912,-0.23333333333332545
22.314000000000004,-0.3500000000000355,-0.34,-0.11999999999998223
22.334000000000003,-0.45,-0.3925000000000111,0.025000000000022206
22.354000000000003,-0.41999999999992893,-0.45000000000007107,0.14000000000007107
22.374000000000002,-0.12999999999992895,-0.6300000000000355,0.37000000000001776
22.394000000000002,0.1000000000000533,-0.7,0.37
22.414000000000005,0.2800000000000178,-0.6399999999999645,0.23999999999996446
22.434000000000005,0.32999999999998225,-0.43999999999992895,0.029999999999946708
22.454000000000004,0.32,-0.3409090909090839,-0.03454545454545807
22.474000000000004,0.10333333333330175,0.22000000000004735,-0.09666666666665089
22.494000000000003,-0.05666666666669825,0.43666666666669823,-0.033333333333301754
22.514000000000003,-0.15600000000000852,0.5060000000000086,0.01
22.534000000000002,-0.18000000000003552,0.43999999999992895,-0.04000000000003553
22.554000000000002,-0.19,0.348571428571425,-0.07714285714285836
22.574,-0.35666666666667457,-0.04000000000001184,-0.14
22.594000000000005,-0.5400000000000533,-0.33000000000007107,-0.14
22.614000000000004,-0.9400000000001065,-0.55,-0.11
22.634000000000004,-1.2600000000000178,-0.3799999999998934,-0.059999999999982234
22.654000000000003,-1.28,-0.21636363636362843,-0.032727272727271405
22.674000000000003,-0.7533333333332071,0.8400000000000947,0.10666666666669825
22.694000000000003,-0.056666666666627195,1.09,0.3100000000000118
22.714000000000002,0.7033333333333729,0.9033333333333137,0.4966666666666746
22.734,1.3700000000000236,0.3366666666666272,0.6466666666666746
22.754000000000005,1.5300000000000888,0.04999999999978684,0.6900000000000177
22.774000000000004,1.7433333333333016,-1.346666666666793,0.6633333333333018
22.794000000000004,1.5849999999999467,-1.790000000000071,0.4749999999999467
22.814000000000004,1.2449999999999113,-1.749999999999929,0.19499999999994672
22.834000000000003,0.7799999999998579,-1.2899999999998402,-0.010000000000035527
22.854000000000003,0.5726315789473551,-1.0257894736841937,-0.06684210526316124
22.874000000000002,-0.43000000000021316,0.5000000000003553,-0.27000000000003554
22.894000000000002,-0.8400000000000118,1.1400000000000237,-0.3
22.914000000000005,-0.9933333333333492,1.4900000000000473,-0.28666666666665086
22.934000000000005,-0.8999999999999764,1.5199999999999882,-0.2699999999999882
22.954000000000004,-0.7978947368420988,1.4378947368420987,-0.25
22.974000000000004,-0.18999999999987566,0.5799999999998223,-0.10999999999996447
22.994000000000003,0.3700000000000947,-0.266666666666793,0.026666666666698247
23.014000000000003,0.6766666666666825,-0.7000000000000236,0.13333333333334124
23.034000000000002,0.7166666666666627,-0.8233333333333372,0.1833333333333373
23.054000000000002,0.6399999999998934,-0.8199999999999644,0.2
23.074000000000005,0.11333333333325439,-0.43999999999995265,0.15
23.094000000000005,-0.23000000000004736,-0.13999999999995263,0.09666666666665089
23.114000000000004,-0.4400000000000533,0.09000000000005329,0.08
23.134000000000004,-0.4249999999999822,0.08499999999998223,0.09
23.154000000000003,-0.3499999999999289,0.019999999999928946,0.10000000000003553
23.174000000000003,-0.0949999999999778,-0.24,0.15
23.194000000000003,0.01,-0.21999999999998224,0.13
23.214000000000002,0.06,-0.04499999999999112,0.1450000000000089
23.234,0.07,-0.03,0.19
23.254000000000005,0.09736842105263424,-0.13210526315790272,0.21
23.274000000000004,0.1533333333333136,-0.5233333333333728,0.06333333333331359
23.294000000000004,0.03999999999992895,-0.6,-0.09000000000007105
23.314000000000004,-0.14000000000003554,-0.4449999999999467,-0.19500000000001777
23.334000000000003,-0.22040000000000187,-0.18879999999999436,-0.17959999999999812
23.354000000000003,-0.22840000000000105,-0.16479999999999695,-0.17159999999999898
23.374000000000002,-0.14499999999999114,0.10499999999999113,0.10000000000001777
23.394000000000002,-0.006666666666650877,-0.07000000000002368,0.2566666666666746
23.414000000000005,0.09500000000007994,-0.2200000000000533,0.33500000000002667
23.434000000000005,0.26000000000007106,-0.38000000000003553,0.34
23.454000000000004,0.35666666666668245,-0.4133333333333175,0.31
23.474000000000004,0.36,-0.285999999999983,0.25199999999999434
23.494000000000003,0.30499999999998223,0.045000000000088816,0.14499999999998225
23.514000000000003,0.19333333333332545,0.33333333333334914,0.11
23.534000000000002,-2.368244489403537e-14,0.4933333333333491,0.08333333333332543
23.554000000000002,-0.06000000000005329,0.5300000000000356,0.04999999999998224
23.574000000000005,-0.31142857142857866,0.7414285714285787,-0.09857142857142133
23.594000000000005,-0.39500000000002666,0.75,0.025000000000026647
23.614000000000004,-0.5400000000000592,0.7233333333333136,0.11
23.634000000000004,-0.7166666666666746,0.64,0.13
23.654000000000003,-0.7566666666666982,0.63,0.13
23.674000000000003,-0.6749999999999912,0.61,0.05499999999999112
23.694000000000003,-0.6249999999999911,0.5499999999999823,0.004999999999991118
23.714000000000002,-0.5066666666666508,0.3999999999999763,0.09333333333334913
23.734,-0.23333333333330175,0.32,0.3466666666666982
23.754000000000005,0.030000000000035526,0.38,0.5700000000000355
23.774000000000004,0.38000000000004736,0.17999999999995261,0.990000000000071
23.794000000000004,0.6100000000000355,-0.3050000000001244,1.5250000000001243
23.814000000000004,0.67,-1.0400000000000829,2.020000000000012
23.834000000000003,0.5099999999999526,-0.9399999999998578,1.6099999999998107
23.854000000000003,0.17999999999996447,-0.044999999999902306,-0.13000000000026649
23.874000000000002,-0.27000000000005925,0.4499999999999882,-2.1000000000001187
23.894000000000002,-0.5400000000000237,0.11999999999992894,-2.1266666666666034
23.914000000000005,-0.9266666666668048,-0.2799999999999408,-1.466666666666568
23.934000000000005,-1.4400000000001598,0.625000000000453,-1.74500000000024
23.954000000000004,-1.4849999999999555,1.7500000000000533,-2.1449999999999734
23.974000000000004,-0.33999999999977504,1.3599999999998225,-1.2099999999998106
23.994000000000003,0.9400000000000948,0.08333333333320701,-0.11999999999992894
24.014000000000003,1.4900000000000355,-0.9400000000000946,0.07
24.034000000000002,1.6200000000000356,-1.3600000000001422,0.13000000000007106
24.054000000000002,2.080000000000071,-1.5966666666666984,0.37666666666669824
24.074000000000005,2.7700000000000475,-2.6700000000002366,0.68
24.094000000000005,2.8399999999999643,-3.690000000000071,0.5699999999999289
24.114000000000004,2.319999999999822,-3.479999999999858,0.27999999999994674
24.134000000000004,1.219999999999698,-2.519999999999716,0.18
24.154000000000003,-0.06000000000017763,-1.1899999999998223,0.06999999999996448
24.174000000000003,-1.0800000000001067,-0.2399999999998934,-0.39000000000009477
24.194000000000003,-1.4650000000000087,0.44000000000007106,-0.9050000000000444
24.214000000000002,-1.2199999999999407,1.0800000000000711,-1.1800000000000117
24.234000000000005,-1.0335714285714077,1.2771428571428738,-1.2
24.254000000000005,-0.4633333333332544,1.5333333333333137,-0.866666666666568
24.274000000000004,-0.28,1.3599999999999528,-0.31999999999991713
24.294000000000004,-0.26,0.9166666666666035,0.18000000000004737
24.314000000000004,-0.15999999999998815,0.31999999999992895,0.37
24.334000000000003,-0.08,0.006666666666650877,0.2299999999999763
24.354000000000003,-0.2500000000000355,0.13000000000003553,-0.13000000000002665
24.374000000000002,-0.5000000000000355,0.42000000000004734,-0.22
24.394000000000002,-0.58,0.5599999999999882,-0.10999999999997631
24.414000000000005,-0.5199999999999881,0.3999999999999763,-0.05
24.434000000000005,-0.4199999999999822,0.4300000000000355,-0.12000000000001776
24.454000000000004,-0.38222222222221935,0.4933333333333419,-0.13
24.474000000000004,-0.5400000000000889,0.6199999999999822,0.05
24.494000000000003,-1.1800000000001953,0.0299999999998046,0.05999999999994671
24.514000000000003,-1.8900000000001598,-0.6100000000000178,-0.1700000000000533
24.534000000000002,-2.550000000000053,0.6400000000005862,-0.2799999999999645
24.554000000000002,-2.5821052631578936,1.5268421052631875,-0.22631578947368125
24.574000000000005,-1.0314285714284213,2.7799999999999545,1.1700000000000914
24.594000000000005,1.150000000000444,1.109999999999414,2.080000000000071
24.614000000000004,2.8500000000001657,-1.4900000000003435,1.9699999999998934
24.634000000000004,3.48,-3.3666666666668874,1.1033333333331596
24.654000000000003,3.3299999999998757,-3.79,0.5499999999998579
24.674000000000003,2.42999999999987,-2.9999999999998224,-0.04000000000003553
24.694000000000003,1.579999999999787,-1.519999999999627,-0.2500000000000355
24.714000000000002,0.6899999999998934,-0.02499999999983124,-0.28499999999999115
24.734000000000005,-0.3800000000001599,1.1550000000001333,-0.26
24.754000000000005,-0.7966666666668404,1.4166666666667456,-0.2533333333333491
24.774000000000004,-1.7800000000000533,1.3899999999999288,-0.4600000000000533
24.794000000000004,-1.8599999999999646,0.8899999999998757,-0.7000000000000532
24.814000000000004,-1.6499999999999644,0.33999999999989344,-0.8900000000000355
24.834000000000003,-1.51,-0.02000000000005329,-0.95
24.854000000000003,-1.51,-0.07842105263158279,-0.9405263157894723
24.874000000000002,-1.6800000000000177,0.04500000000004441,-0.8299999999999822
24.894000000000005,-1.8825000000000132,0.6525000000001199,-0.6549999999999734
24.914000000000005,-1.8499999999999646,1.3600000000001422,-0.4899999999999467
24.934000000000005,-1.5099999999999052,1.9400000000000472,-0.24999999999995265
24.954000000000004,-1.4185714285714184,1.9857142857142909,-0.19571428571427896
24.974000000000004,-0.14999999999990526,1.3933333333332545,0.34000000000002367
24.994000000000003,0.8600000000001894,0.2999999999997631,0.5133333333333492
25.014000000000003,1.7533333333334122,-0.8600000000001184,0.4233333333333175
25.034000000000002,2.2471428571428747,-1.757142857142905,0.18285714285712545
25.054000000000002,2.32866666666667,-2.1040000000000143,0.033333333333325436
25.074000000000005,1.8133333333331951,-2.5399999999999405,-0.44000000000005923
25.094000000000005,1.1199999999998225,-2.033333333333136,-0.6066666666666863
25.114000000000004,0.24333333333315968,-0.9599999999997632,-0.65
25.134000000000004,-0.536666666666793,0.24000000000023686,-0.6066666666666508
25.154000000000003,-0.6636363636363742,0.45454545454547096,-0.6
25.174000000000003,-1.26,1.7100000000000355,-0.41999999999996446
25.194000000000003,-1.0733333333333017,1.6433333333333016,-0.23999999999997632
25.214000000000002,-0.49333333333330176,0.9566666666666271,0.01666666666667456
25.234000000000005,0.17666666666679298,0.16666666666650878,0.22666666666669824
25.254000000000005,0.3020000000000185,0.0189999999999792,0.26700000000000695
25.274000000000004,0.9700000000000533,-0.7500000000000888,0.41
25.294000000000004,1.1666666666666983,-1.1766666666667456,0.34666666666665086
25.314000000000004,1.25,-1.45,0.25
25.334000000000003,1.1449999999999465,-1.2949999999999111,0.2650000000000178
25.354000000000003,1.082222222222221,-1.1755555555555521,0.28
25.374000000000002,0.6319999999999872,-0.24199999999996588,0.4020000000000085
25.394000000000005,0.48,0.27000000000004737,0.5033333333333492
25.414000000000005,0.5500000000000356,0.32999999999998225,0.51
25.434000000000005,0.6966666666666982,0.06333333333325439,0.44333333333330177
25.454000000000004,0.7700000000000474,-0.09333333333341229,0.3866666666666351
25.474000000000004,0.9460000000000085,-0.6020000000000171,0.18799999999998296
25.494000000000003,0.9149999999999823,-0.7550000000000178,0.00499999999994671
25.514000000000003,0.7399999999999645,-0.6999999999999822,-0.19000000000001777
25.534000000000002,0.4399999999999645,-0.44999999999996443,-0.3250000000000089
25.554000000000006,0.06772727272726173,-0.14818181818180937,-0.39
25.574000000000005,0.022272727272714066,-0.11181818181817124,-0.39
25.594000000000005,-0.8666666666667456,0.4000000000000474,-0.18999999999995265
25.614000000000004,-1.2700000000001066,0.5750000000000266,5.3290705182007514e-14
25.634000000000004,-1.4933333333333492,0.7266666666666982,0.16666666666669824
25.654000000000003,-1.4679999999999904,0.8406666666666698,0.32133333333333963
25.674000000000003,-1.309999999999858,0.86,0.43000000000007105
25.694000000000003,-0.7833333333333137,0.6799999999999882,0.5833333333333373
25.714000000000002,-0.3899999999999645,0.4799999999999822,0.56
25.734000000000005,-0.09999999999995263,0.30333333333330176,0.52
25.754000000000005,-0.009999999999964473,0.24,0.52
25.774000000000004,-0.05500000000001332,0.25,0.58
25.794000000000004,-0.22000000000003553,0.3250000000000178,0.6250000000000178
25.814000000000004,-0.3950000000000533,0.4200000000000355,0.5849999999999822
25.834000000000003,-0.6050000000000533,0.5800000000000355,0.48999999999996446
25.854000000000003,-0.6640000000000033,0.6360000000000021,0.45199999999999896
25.874000000000002,-0.91,0.9600000000000118,0.27
25.894000000000005,-0.7699999999999408,1.0333333333333137,0.1966666666666272
25.914000000000005,-0.4699999999998934,0.9349999999999733,0.014999999999920063
25.934000000000005,-0.08499999999986677,0.7999999999999468,-0.13
25.954000000000004,0.3520000000000597,0.65799999999999,0.04000000000004974
25.974000000000004,0.7700000000000355,0.5099999999999822,0.4350000000000444
25.994000000000003,0.93,0.3866666666666509,0.8200000000000474
26.014000000000003,0.8399999999999822,0.35500000000000886,1.3200000000000711
26.034000000000002,0.7433333333333373,0.2633333333333254,1.7833333333333492
26.054000000000006,0.76,0.03647058823528342,1.8964705882352833
26.074000000000005,0.6733333333333137,-0.15333333333337282,1.4699999999998223
26.094000000000005,0.5733333333333136,-0.22666666666668642,0.6366666666665087
26.114000000000004,0.5866666666666863,-0.4166666666667456,0.09666666666656798
26.134000000000004,0.5799999999999644,-0.97500000000016,-0.08000000000003553
26.154000000000003,0.21777777777775145,-1.5311111111111242,-0.28333333333334915
26.174000000000003,-0.40000000000053293,-1.5399999999997869,-0.6300000000003197
26.194000000000003,-1.8550000000000444,0.39500000000018654,-1.6300000000000354
26.214000000000006,-1.97,1.5933333333334914,-1.3699999999998225
26.234000000000005,-1.776666666666568,1.673333333333195,-0.6233333333331359
26.254000000000005,-1.3833333333333135,0.5659999999999289,-0.10733333333332544
26.274000000000004,-1.099999999999858,-0.520000000000604,-0.18000000000017763
26.294000000000004,-0.809999999999929,-1.5800000000001067,-0.590000000000071
26.314000000000004,-0.06999999999990526,-1.5999999999999526,-0.4099999999999526
26.334000000000003,0.8850000000001954,-0.9099999999998933,0.16000000000010658
26.354000000000003,1.026363636363651,-0.8281818181818094,0.2331818181818255
26.374000000000002,1.1699999999999762,-1.076666666666651,-0.06000000000004736
26.394000000000005,0.8833333333332544,-0.746666666666568,-0.3566666666666864
26.414000000000005,0.4133333333331952,-0.366666666666568,-0.3633333333333136
26.434000000000005,-0.27000000000017765,-0.0033333333332543832,-0.4166666666667456
26.454000000000004,-0.8300000000001776,0.2900000000001421,-0.7500000000001421
26.474000000000004,-0.9145454545454613,0.35590909090909595,-0.8331818181818266
26.494000000000003,-0.5299999999999171,0.78,-0.9099999999999764
26.514000000000003,0.010000000000047367,0.8466666666666746,-0.6933333333333018
26.534000000000002,0.4900000000000592,0.7999999999999764,-0.3399999999999408
26.554000000000006,0.7840000000000119,0.6459999999999881,0.09933333333336096
26.574000000000005,0.8499999999999645,0.37999999999982237,0.5500000000001066
26.594000000000005,0.7066666666666271,0.03999999999994079,0.73
26.614000000000004,0.5566666666666272,-0.18333333333337282,0.6333333333333137
26.634000000000004,0.3866666666666509,-0.29666666666667457,0.3999999999999763
26.654000000000003,0.20909090909089853,-0.34,0.17909090909089853
26.674000000000003,-0.03000000000001184,-0.2599999999999763,-0.010000000000011843
26.694000000000003,-0.12,-0.14999999999996447,0.05000000000007106
26.714000000000006,-0.1400000000000237,-0.5100000000002368,0.02999999999995263
26.734000000000005,-0.28,-0.7999999999999734,-0.01
26.754000000000005,0.05000000000007106,-0.850000000000071,-0.0700000000000237
26.774000000000004,0.3199999999999882,-1.2800000000000593,-0.2800000000000474
26.794000000000004,-0.21000000000010657,-1.3499999999998697,-0.720000000000071
26.814000000000004,-0.5599999999999764,0.15000000000027236,-1.0200000000000118
26.834000000000003,-0.1499999999999171,1.810000000000166,-1.1300000000000237
26.854000000000003,0.2545454545454604,2.399090909090908,-1.250909090909092
26.874000000000006,0.3000000000004263,2.389999999999716,-1.26
26.894000000000005,1.110000000000095,-0.19000000000037895,-0.6299999999998579
26.914000000000005,1.3800000000000237,-0.9600000000000118,-0.26999999999995267
26.934000000000005,1.4299999999999882,-0.7299999999999289,-0.009999999999976316
26.954000000000004,1.2149999999999554,-0.30499999999995564,0.06
26.974000000000004,0.7399999999999289,0.14000000000007107,-0.15000000000004737
26.994000000000003,0.41999999999998816,0.650000000000083,-0.4100000000000237
27.014000000000003,0.38,1.1700000000000828,-0.47
27.034000000000002,0.35999999999999643,1.6400000000000141,-0.3599999999999929
27.054000000000006,0.2699999999999963,1.7199999999999962,-0.22
27.074000000000005,0.23999999999996446,1.699999999999929,-0.21
27.094000000000005,0.3100000000000237,1.5600000000000118,-0.6300000000000474
27.114000000000004,0.5000000000000236,1.6800000000000237,-0.8900000000000119
27.134000000000004,0.6000000000000119,1.9000000000000354,-0.9299999999999882
27.154000000000003,0.5449999999999934,2.10750000000001,-0.8149999999999933
27.174000000000003,0.4362962962962945,2.25,-0.6762962962962946
27.194000000000003,0.42148148148148057,2.25,-0.6614814814814807
27.214000000000006,0.5000000000000474,1.6999999999999527,-0.37999999999995265
27.234000000000005,0.64,1.6700000000000355,-0.23999999999998814
27.254000000000005,0.64,1.7130769230769265,-0.2234615384615368
27.274000000000004,0.37333333333330176,1.846666666666651,-0.24
27.294000000000004,0.3600000000000237,1.7499999999999762,-0.19
27.314000000000004,0.5000000000000355,1.61,-0.17999999999998223
27.334000000000003,0.6700000000000356,1.64,-0.20000000000001777
27.354000000000003,0.81,1.7400000000000178,-0.29000000000001774
27.374000000000006,0.7599999999999645,1.8700000000001422,-0.3700000000000355
27.394000000000005,0.72,2.1700000000001065,-0.49000000000007105
27.414000000000005,0.6899999999999822,2.330000000000018,-0.6600000000000356
27.434000000000005,0.5333333333333018,2.393333333333349,-0.72
27.454000000000004,0.37826086956521526,2.541739130434785,-0.75
27.474000000000004,0.3608695652173893,2.559130434782611,-0.75
27.494000000000003,0.26,2.713333333333302,-0.78
27.514000000000003,0.2674999999999956,2.6149999999999913,-0.81
27.534000000000006,0.2099999999999911,2.4499999999999824,-0.87
27.554000000000006,0.10857142857142518,2.43285714285715,-0.9
27.574000000000005,0.08,2.4900000000000713,-0.8799999999999645
27.594000000000005,0.24000000000004737,2.3533333333333015,-0.6199999999999526
27.614000000000004,0.44000000000001777,2.1799999999999646,-0.5600000000000089
27.634000000000004,0.5775000000000066,1.6999999999999467,-0.7325000000000199
27.654000000000003,0.63,1.0566666666666509,-1.0822222222222329
27.674000000000003,0.6300000000000355,0.809999999999929,-1.1800000000000355
27.694000000000003,0.6,0.7,-1.0133333333333254
27.714000000000006,0.47999999999992893,0.840000000000071,-0.91
27.734000000000005,0.28666666666665086,0.9,-0.9433333333333491
27.754000000000005,0.28250000000000297,0.9725000000000029,-0.947499999999997
27.774000000000004,0.38,0.9966666666666508,-0.87
27.794000000000004,0.29333333333330175,0.8433333333333017,-0.8366666666666508
27.814000000000004,0.13333333333330177,0.6299999999999526,-0.7566666666666508
27.834000000000003,0.036666666666650874,0.41333333333330174,-0.6066666666666508
27.854000000000003,0.021818181818180644,0.3918181818181807,-0.5836363636363613
27.874000000000006,0.019999999999964473,0.43,-0.4399999999999645
27.894000000000005,-0.08666666666669826,0.3933333333333018,-0.3233333333333018
27.914000000000005,-0.27333333333334914,0.16999999999995263,-0.2
27.934000000000005,-0.1466666666666035,-0.016666666666698245,-0.11666666666665088
27.954000000000004,0.11333333333334913,-0.1,-0.016666666666662718
27.974000000000004,0.36,0.11000000000005329,0.11000000000003553
27.994000000000003,0.17499999999991117,0.3650000000000533,0.33500000000005326
28.014000000000003,-0.3000000000000474,0.3799999999999763,0.5966666666666824
28.034000000000006,-0.5300000000000356,0.17999999999992894,0.69
28.054000000000006,-0.45428571428570075,-0.005714285714299249,0.64
28.074000000000005,-0.3099999999998934,-0.13000000000007106,0.6500000000000355
28.094000000000005,0.2133333333333965,-0.5733333333333965,0.62
28.114000000000004,0.5200000000000474,-0.8433333333333491,0.6333333333333492
28.134000000000004,0.6599999999999645,-0.7099999999998223,0.73
28.154000000000003,0.48999999999999155,-0.26999999999998986,0.76
28.174000000000003,0.44238095238094677,-0.21285714285713608,0.76
28.194000000000003,0.05333333333332544,0.05999999999998816,0.4933333333333254
28.214000000000006,-0.045000000000026644,-0.24000000000010657,0.36499999999997335
28.234000000000005,-0.13500000000002665,-0.3299999999999467,0.3550000000000266
28.254000000000005,-0.19428571428571972,-0.1435714285714204,0.46
28.274000000000004,-0.27,0.04600000000000948,0.46
28.294000000000004,-0.15499999999998224,0.4250000000000533,0.3649999999999822
28.314000000000004,-0.1,0.54,0.2799999999999645
28.334000000000003,-0.15,0.49499999999999406,0.18749999999999703
28.354000000000003,-0.15,0.3866666666666627,0.14
28.374000000000006,-0.12999999999992895,0.27,0.1
28.394000000000005,-0.09,0.3550000000000799,0.06499999999997336
28.414000000000005,-0.1166666666666864,0.5166666666666864,0.03
28.434000000000005,-0.1900000000000533,0.4499999999998934,-0.015000000000026645
28.454000000000004,-0.21199999999998864,0.19399999999997727,-0.04400000000000569
28.474000000000004,-0.04999999999992895,-0.06000000000010658,-0.09
28.494000000000003,0.10500000000001777,-0.16499999999998224,-0.05499999999998224
28.514000000000003,0.10333333333332545,-0.11,0.03666666666667456
28.534000000000006,0.0033333333333135963,-0.053333333333313596,0.07666666666668641
28.554000000000006,-0.0033333333333254384,0.04333333333334913,0.08
28.574000000000005,0.07666666666668641,0.3000000000000592,0.06
28.594000000000005,0.10999999999996447,0.4200000000000355,0.049999999999964476
28.614000000000004,0.06333333333331359,0.4166666666666864,0.013333333333313597
28.634000000000004,0.01,0.42,0.01
28.654000000000003,0.028000000000005684,0.34399999999998865,0.0
28.674000000000003,0.09666666666667456,0.18666666666665088,-0.03666666666667456
28.694000000000006,0.16666666666668642,0.06333333333331359,-0.08
28.714000000000006,0.1533333333333136,0.01,-0.12
28.734000000000005,0.1,0.0,-0.15
28.754000000000005,0.07,0.08333333333337281,-0.15
28.774000000000004,0.053333333333313596,0.1266666666666864,-0.17
28.794000000000004,0.04,0.13333333333332545,-0.16
28.814000000000004,0.0033333333333254384,0.11,-0.11333333333332543
28.834000000000003,-0.02,0.09,-0.07888888888888362
28.854000000000003,0.011000000000001243,0.08,-0.06
28.874000000000006,0.04,0.07,-0.059999999999928944
28.894000000000005,0.13666666666668642,0.05,-0.026666666666686403
28.914000000000005,0.17,0.13666666666668642,-0.01
28.934000000000005,0.12799999999999007,0.17,0.012000000000009947
28.954000000000004,0.08,0.09666666666666174,0.05
28.974000000000004,0.05499999999998224,-0.07000000000003553,0.07500000000001777
28.994000000000003,0.03,-0.16,0.07
29.014000000000003,0.07000000000000593,-0.09999999999999408,0.04
29.034000000000006,0.12,-0.03599999999998721,0.03
29.054000000000006,0.14,0.01133333333333728,0.02
29.074000000000005,0.11999999999996447,0.049999999999964476,0.01
29.094000000000005,0.1,0.004999999999973355,0.03
29.114000000000004,0.11,-0.0866666666666864,0.04
29.134000000000004,0.1350000000000089,-0.1350000000000089,0.05499999999999112
29.154000000000003,0.14,-0.17,0.04947368421052386
29.174000000000003,0.14,-0.18,0.039999999999964474
29.194000000000006,0.09,-0.21,-0.006666666666686404
29.214000000000006,0.08,-0.21,-0.01
29.234000000000005,0.06,-0.18,0.009999999999996447
29.254000000000005,0.05,-0.18,0.01999999999998816
29.274000000000004,0.05,-0.16,0.02
29.294000000000004,0.05,-0.12333333333332544,0.03
29.314000000000004,0.05,-0.08,0.05
29.334000000000003,-0.013333333333349124,-0.03,0.05
29.354000000000006,-0.08800000000001136,-0.03,0.04
29.374000000000006,-0.11000000000003553,-0.03,0.039999999999964474
29.394000000000005,-0.11,-0.01,0.04666666666668641
29.414000000000005,-0.053333333333313596,0.04666666666668641,0.05
29.434000000000005,-0.0033333333333135963,0.06333333333331359,0.04
29.454000000000004,0.01,0.03,0.032857142857146485
29.474000000000004,0.035000000000004444,-0.02,0.04
29.494000000000003,0.1400000000000474,-0.12000000000002368,0.01
29.514000000000003,0.23,-0.2866666666666509,-0.01
29.534000000000006,0.049999999999940786,-0.1766666666666272,0.01
29.554000000000006,-0.15076923076923307,-0.00923076923076692,0.01
29.574000000000005,-0.15846153846154068,-0.0015384615384593306,0.01
29.594000000000005,-0.07999999999997631,0.09999999999997632,-0.02
