timestamp,acc_x,acc_y,acc_z,gyro_x,gyro_y,gyro_z
0.439,0.25,0.1,-0.02,0.00875,-0.125,0.2
0.459,0.28625,0.0049999999999999975,0.10250000000000001,0.0,-0.17411764705882357,0.2
0.47900000000000004,0.3800000000000002,-0.13000000000000017,0.21,0.0,-0.21058823529411771,0.2
0.49900000000000005,0.5300000000000006,-0.25000000000000044,0.23999999999999977,0.007500000000000034,-0.23500000000000007,0.2
0.5190000000000001,0.750000000000002,-0.4100000000000004,0.34000000000000147,0.01,-0.25882352941176484,0.2094117647058824
0.5390000000000001,0.729999999999996,-0.4700000000000002,0.4199999999999999,0.01250000000000014,-0.32000000000000056,0.2237500000000002
0.5590000000000002,0.1699999999999999,-0.5700000000000008,0.5800000000000016,0.03705882352941194,-0.4288235294117657,0.26764705882352985
0.5790000000000002,0.3100000000000049,-0.740000000000002,0.5799999999999957,0.06588235294117686,-0.5741176470588254,0.3476470588235306
0.5990000000000002,0.7199999999999978,-0.8399999999999975,0.41000000000000064,0.11750000000000069,-0.7825000000000026,0.47250000000000153
0.6190000000000002,0.19999999999999626,-0.5399999999999973,0.6,0.1770588235294124,-1.0088235294117671,0.6129411764705898
0.6390000000000002,0.010000000000001999,-0.27999999999999914,0.2999999999999931,0.24823529411764797,-1.2829411764705918,0.7488235294117668
0.6590000000000003,0.17000000000000046,-0.21999999999999978,-0.3000000000000073,0.3568750000000021,-1.7143750000000082,1.0087500000000054
0.6790000000000003,0.26000000000000334,-0.25000000000000067,-0.8399999999999989,0.4763636363636368,-2.171818181818183,1.327272727272729
0.6990000000000003,0.5200000000000007,-0.28000000000000036,-0.629999999999998,0.5127272727272734,-2.286969696969699,1.4545454545454566
0.7190000000000003,0.6000000000000023,-0.2799999999999997,-0.5300000000000087,0.6500000000000016,-2.54,1.9400000000000053
0.7390000000000003,0.6699999999999947,-0.19999999999999768,-1.2200000000000122,0.7563636363636392,-2.506363636363633,2.2572727272727326
0.7590000000000003,0.6300000000000017,-0.04999999999999834,-1.6799999999999977,0.932121212121215,-2.282121212121208,2.5724242424242476
0.7790000000000004,0.27999999999999403,0.09000000000000133,-1.4299999999999857,1.1258823529411799,-2.040588235294113,2.8770588235294166
0.7990000000000004,0.27000000000000135,0.08999999999999933,-0.639999999999995,1.299411764705885,-1.9576470588235295,3.163529411764711
0.8190000000000004,0.0699999999999929,0.16000000000000933,-0.6600000000000138,1.2399999999999924,-2.4300000000000233,3.2599999999999976
0.8390000000000004,-0.21000000000000177,0.49000000000000754,-0.8199999999999853,0.9143749999999975,-3.4443750000000155,3.1524999999999967
0.8590000000000004,-0.22000000000000045,0.9100000000000098,-0.37000000000000355,0.8425000000000011,-3.834999999999989,3.0212499999999984
0.8790000000000004,-0.28999999999999776,1.19,-0.5599999999999974,0.8647058823529409,-3.178823529411746,3.0117647058823547
0.8990000000000005,0.030000000000015542,1.26,-0.4200000000000044,0.8105882352941158,-2.5011764705882227,3.054117647058824
0.9190000000000005,0.4800000000000004,1.0799999999999903,-0.48,0.686874999999997,-2.2943749999999983,2.9381249999999968
0.9390000000000005,0.5200000000000028,0.6999999999999938,-0.6400000000000028,0.501249999999998,-2.087499999999988,2.7287499999999976
0.9590000000000005,0.6400000000000178,0.5700000000000072,-0.569999999999985,0.4435294117647062,-1.5717647058823392,2.5864705882352883
0.9790000000000005,1.3399999999999972,1.0000000000000149,-0.06999999999999779,0.38647058823529024,-1.2364705882352902,2.289999999999989
0.9990000000000006,1.2199999999999993,1.4700000000000017,0.09999999999999507,-0.38250000000003787,-1.0149999999999912,0.6299999999999202
1.0190000000000006,1.1299999999999992,1.2899999999999847,-0.14000000000001134,-1.9564705882353408,-0.11294117647055857,0.22411764705882686
1.0390000000000006,1.110000000000003,0.9099999999999926,-0.5700000000000192,-2.4687499999999862,0.6837500000000378,-0.05250000000000749
1.0590000000000006,1.259000000000005,0.7310000000000005,-1.056000000000009,-2.137647058823525,1.578823529411775,-0.24176470588235627
1.0790000000000006,1.4479999999999988,0.8060000000000034,-1.3470000000000095,-2.086470588235296,1.7176470588235264,-0.21529411764705303
1.0990000000000006,1.3169999999999984,0.9430000000000016,-1.8610000000000284,-1.8699999999999868,1.7625000000000046,-0.02749999999999375
1.1190000000000007,1.3470000000000042,0.714999999999974,-2.423999999999979,-1.3476470588235139,1.8370588235294134,0.10411764705882684
1.1390000000000007,1.4339999999999953,0.011999999999993783,-1.2219999999999782,-0.9149999999999849,1.4799999999999833,0.104999999999995
1.1590000000000007,1.3579999999999985,-0.011999999999993783,-1.641000000000063,-0.4376470588235103,1.0311764705882236,-0.04235294117647557
1.1790000000000007,1.4710000000000085,0.02599999999998912,-2.819000000000007,0.09823529411766604,0.8182352941176445,-0.16235294117647397
1.1990000000000007,1.6700000000000077,-0.32000000000001555,-2.8579999999999983,0.49000000000001,0.6399999999999917,-0.2075000000000004
1.2190000000000007,1.9390000000000225,-0.7300000000000155,-2.84300000000001,0.502941176470586,0.3264705882352814,-0.15352941176470314
1.2390000000000008,2.4719999999999938,-1.104000000000011,-3.288000000000014,0.37823529411762946,0.41117647058824924,0.04352941176470708
1.2590000000000008,2.2499999999999845,-1.4510000000000163,-3.101999999999947,-0.019210526315790906,0.7094736842105247,0.0173684210526234
1.2790000000000008,1.897142857142845,-1.7657142857142947,-1.9399999999999613,-0.05605263157894881,0.66736842105263,-0.1931578947368503
1.2990000000000008,1.267999999999983,-2.1620000000000092,-1.3740000000000032,-0.030588235294111837,0.5905882352941119,-0.4164705882353043
1.3190000000000008,0.8189999999999759,-2.3410000000000006,-1.3289999999999837,0.2945454545454746,0.15636363636360773,-0.6672727272727373
1.3390000000000009,0.15999999999996892,-2.3039999999999954,-0.8339999999999798,0.5100000000000084,-0.17363636363637663,-0.674242424242424
1.3590000000000009,-0.5920000000000171,-2.17,-0.4079999999999984,0.8487500000000294,-0.5100000000000178,-0.5424999999999811
1.379000000000001,-0.841999999999982,-2.217999999999998,-0.571000000000011,1.3035294117647176,-0.8276470588235406,-0.21235294117645936
1.399000000000001,-0.382999999999983,-2.0869999999999873,-0.617999999999978,1.4018181818181825,-1.01242424242425,-0.043333333333326965
1.419000000000001,-0.190999999999991,-1.878999999999999,0.09100000000006095,1.4199999999999964,-1.1700000000000141,0.09000000000000521
1.439000000000001,-0.07,-1.815999999999986,1.194000000000034,1.332352941176465,-1.508823529411787,0.21294117647059574
1.459000000000001,-0.0019999999999920064,-1.47999999999998,1.662000000000012,1.2166666666666617,-1.9400000000000164,0.3600000000000059
1.479000000000001,0.32700000000003693,-1.168999999999999,1.932000000000012,1.079999999999992,-2.240000000000009,0.5000000000000067
1.499000000000001,1.08000000000005,-1.174000000000004,2.180999999999991,0.8449999999999855,-2.3800000000000052,0.6500000000000079
1.519000000000001,2.005000000000035,-1.261999999999992,1.848999999999989,0.5358823529411605,-2.6164705882353076,0.8117647058823612
1.539000000000001,2.7250000000000347,-0.995999999999976,1.953000000000043,0.23624999999998683,-3.0912500000000285,1.065000000000025
1.559000000000001,3.496000000000056,-0.556999999999987,2.883000000000033,0.04529411764705442,-3.5558823529411954,1.5423529411764996
1.579000000000001,4.629000000000039,-0.301999999999982,3.188999999999979,0.018947368421054846,-3.8636842105263294,2.0484210526316033
1.599000000000001,5.077999999999998,0.028000000000007994,2.743999999999974,0.08666666666667151,-4.190000000000021,2.50666666666669
1.619000000000001,4.8619999999999814,0.1790000000000092,2.0909999999999602,0.15687500000000312,-4.496250000000013,2.8543750000000156
1.6390000000000011,4.405999999999946,0.47600000000004394,1.5720000000000147,0.16499999999999723,-4.409999999999978,3.0925000000000122
1.6590000000000011,3.633999999999956,1.1280000000000099,2.0880000000000343,0.0876470588235213,-3.9817647058823242,3.299411764705892
1.6790000000000012,2.705999999999922,1.2270000000000085,2.300999999999989,-0.09058823529413065,-3.503529411764679,3.432352941176476
1.6990000000000012,1.40199999999994,1.410000000000011,2.0739999999999967,-0.2925000000000104,-3.1024999999999796,3.5000000000000027
1.7190000000000012,0.4839999999999745,1.6020000000000012,2.378000000000049,-0.4366666666666741,-2.7544444444444256,3.5366666666666684
1.7390000000000012,0.21000000000000557,1.5759999999999978,3.1300000000000057,-0.5162500000000035,-2.319999999999977,3.5587499999999994
1.7590000000000012,0.2639999999999827,1.51,2.6939999999999293,-0.5741176470588266,-1.9482352941176273,3.53941176470588
1.7790000000000012,-0.10200000000002798,1.556000000000004,1.6919999999999547,-0.5947058823529404,-1.6476470588235106,3.4723529411764638
1.7990000000000013,-0.5780000000000387,1.7300000000000333,1.3560000000000108,-0.5599999999999967,-1.4174999999999875,3.294999999999985
1.8190000000000013,-1.1040000000000294,2.2760000000000375,1.6860000000000306,-0.5782352941176492,-1.370588235294117,2.9299999999999757
1.8390000000000013,-1.63000000000004,2.7240000000000224,1.9680000000000053,-0.7125000000000083,-1.3874999999999982,2.448749999999966
1.8590000000000013,-2.1620000000000346,3.0340000000000225,1.95,-0.7858823529411735,-1.3735294117647068,1.9558823529411475
1.8790000000000013,-2.5000000000000067,3.470000000000033,2.2900000000000467,-0.7388235294117617,-1.38,1.4929411764705574
1.8990000000000014,-2.7240000000000357,3.884000000000016,2.8860000000000174,-1.0050000000000316,-0.8699999999999434,0.7749999999999417
1.9190000000000014,-3.354000000000056,3.947999999999992,2.981999999999995,-1.133939393939397,-0.3606060606060312,0.4157575757575598
1.9390000000000014,-4.1680000000000454,3.890000000000007,2.7639999999999696,-1.1576470588235235,0.14647058823536363,0.06647058823522126
1.9590000000000014,-4.750000000000027,3.8659999999999775,2.2019999999999413,-1.0399999999999863,0.988823529411801,-0.7841176470588542
1.9790000000000014,-5.2420000000000675,3.3759999999999706,1.1599999999999266,-0.6749999999999592,1.5150000000000376,-1.2100000000000288
1.9990000000000014,-6.44400000000005,3.1060000000000105,0.362000000000008,0.03375000000005951,2.0593750000000406,-1.6375000000000324
2.0190000000000015,-6.487999999999923,3.568000000000051,1.048000000000074,0.9431250000000676,2.4437500000000236,-2.0875000000000323
2.0390000000000015,-5.1499999999998565,3.9439999999999804,1.5519999999999639,2.0311764705883304,2.394705882352898,-2.466470588235323
2.0590000000000015,-2.059999999999547,3.2379999999999156,0.5599999999999246,3.237058823529505,1.7799999999999372,-2.8988235294118145
2.0790000000000015,5.57400000000075,2.165999999999876,0.30400000000003324,4.335000000000064,1.0549999999999593,-3.6450000000000604
2.0990000000000015,15.296000000000616,-0.4760000000003367,0.2679999999998551,4.981176470588266,0.8382352941176504,-4.454705882352993
2.1190000000000015,22.400000000000542,-5.530000000000472,-3.284000000000427,4.874374999999979,1.028125000000017,-4.855625000000021
2.1390000000000016,28.674000000000316,-10.46200000000017,-7.362000000000073,4.273749999999925,1.2925000000000175,-5.061250000000055
2.1590000000000016,30.181999999999867,-10.969999999999873,-6.651999999999666,3.2435294117646114,1.5417647058823774,-5.867058823529493
2.1790000000000016,27.285999999999635,-9.253999999999836,-0.8639999999995795,2.2088235294116916,1.736470588235299,-6.816470588235368
2.1990000000000016,21.297999999999327,-7.001999999999858,0.3979999999998066,1.6149999999999622,1.55749999999997,-7.242500000000012
2.2190000000000016,11.933999999999156,-4.871999999999762,-0.47599999999994086,1.482941176470584,1.3676470588235183,-6.808823529411723
2.2390000000000017,2.5399999999993446,-2.1239999999998034,-0.11800000000005435,1.7612500000000089,1.623750000000003,-5.907499999999912
2.2590000000000017,-5.374000000000611,0.08400000000011512,-0.7680000000000143,1.7199999999999682,1.4841176470587794,-4.8235294117646275
2.2790000000000017,-13.894000000000723,0.5999999999998801,-0.6419999999999456,1.372941176470564,1.084705882352923,-3.925294117646991
2.2990000000000017,-18.487999999999857,-1.4320000000001296,0.9900000000001838,1.0274999999999657,1.0075000000000012,-3.2499999999999467
2.3190000000000017,-16.665999999999627,-1.245999999999733,1.765999999999965,0.4417647058822931,1.0758823529411843,-2.8288235294117294
2.3390000000000017,-11.551999999999545,1.7260000000001168,0.7699999999999201,-0.015238095238130744,1.3966666666666931,-2.619999999999984
2.3590000000000018,-6.8819999999999295,2.333999999999963,-0.08400000000012312,-0.4758823529412046,1.9635294117647226,-2.3294117647058634
2.379000000000002,-6.585999999999938,1.4359999999998398,-1.3519999999999923,-0.7917647058823762,2.0058823529411622,-2.0570588235293843
2.399000000000002,-6.4644444444445455,-0.30666666666686554,-0.4899999999998075,-0.892499999999999,1.7599999999999734,-1.6899999999999644
2.419000000000002,-7.245555555555609,-2.0811111111112566,0.6211111111110448,-0.7111764705882142,1.511764705882331,-1.2711764705881956
2.439000000000002,-8.0750000000001,-3.116000000000022,-0.6780000000001201,-0.4412499999999713,1.4912500000000113,-0.8262499999999563
2.459000000000002,-9.39600000000013,-2.8409999999999034,-0.8629999999998562,-0.1764705882352742,1.57,-0.4282352941176183
2.479000000000002,-10.59900000000006,-1.3909999999998306,1.1590000000002056,0.09882352941179512,1.3264705882352477,-0.0747058823529057
2.499000000000002,-10.68999999999994,0.3620000000001446,2.663000000000002,0.31875000000001164,0.9824999999999812,0.14625000000000832
2.519000000000002,-9.995999999999906,1.5100000000000586,1.927999999999875,0.4500000000000199,0.769999999999951,0.24000000000001462
2.539000000000002,-9.094999999999951,1.7199999999999804,0.8879999999999335,0.6816666666666934,0.16166666666657792,0.42333333333336115
2.559000000000002,-9.231000000000073,1.4359999999999453,0.4059999999999844,0.9056250000000066,-0.548750000000008,0.6650000000000106
2.579000000000002,-9.91800000000007,0.8289999999999472,0.5100000000000391,0.9681250000000066,-0.6237500000000079,0.7650000000000106
2.599000000000002,-10.588000000000031,0.35899999999996673,0.9370000000000176,1.0282352941176525,-0.8488235294117932,1.0370588235294456
2.619000000000002,-10.410999999999936,0.1460000000000039,0.48699999999988086,0.9899999999999979,-1.0599999999999876,1.2600000000000104
2.639000000000002,-9.255999999999828,0.36000000000003907,-0.46700000000001757,0.9664705882352919,-0.9188235294117513,1.3776470588235405
2.659000000000002,-7.784999999999873,0.6209999999999941,-0.2929999999999433,0.98000000000001,-0.7262499999999688,1.535000000000025
2.679000000000002,-5.731999999999676,0.2039999999999179,0.08399999999997654,0.9888235294117562,-0.6935294117647314,1.9247058823529957
2.699000000000002,-1.6029999999994744,-0.5080000000000313,-0.08399999999993747,0.394117647058728,-1.4988235294118861,2.6529411764706796
2.719000000000002,4.536000000000629,-0.3039999999998788,2.151000000000424,-0.43000000000001176,-2.049999999999897,3.510000000000078
2.739000000000002,9.581000000000385,1.3490000000001623,5.032999999999885,-0.4952941176470431,-1.0835294117645937,4.207058823529474
2.759000000000002,12.73100000000031,2.846000000000095,0.7129999999992322,-0.49250000000003746,-0.16999999999997,4.862500000000067
2.779000000000002,14.818000000000014,3.155999999999982,-3.686000000000005,-1.056470588235372,-0.6317647058824792,5.411764705882397
2.799000000000002,14.413999999999815,3.148999999999916,-0.719999999999411,-1.2588235294117545,-1.8094117647060088,5.735882352941206
2.819000000000002,12.550999999999881,1.4519999999997373,1.8109999999998345,-0.7699999999999504,-2.6000000000000485,5.819999999999989
2.839000000000002,11.714999999999899,-0.39800000000014946,0.13999999999993207,-0.35470588235291445,-3.001764705882377,5.703529411764686
2.859000000000002,10.385999999999823,-1.6650000000001473,0.7450000000001926,-0.15624999999998876,-3.1274999999999924,5.501249999999974
2.8790000000000022,8.685999999999778,-2.675000000000034,1.4729999999998435,-0.12941176470588842,-2.960588235294091,5.258235294117624
2.8990000000000022,6.94499999999983,-2.6149999999999434,-0.49100000000024235,-0.2511111111111287,-2.5594444444443902,5.071666666666648
2.9190000000000023,5.440999999999857,-1.8259999999998686,-1.861000000000016,-0.40250000000001745,-1.8868749999999141,4.898749999999979
2.9390000000000023,4.175999999999869,-0.5419999999998505,-1.494999999999898,-0.4658823529411836,-1.2176470588234545,4.667058823529373
2.9590000000000023,3.245999999999914,0.617000000000111,-0.6809999999999479,-0.5443750000000145,-0.5999999999999367,4.307499999999952
2.9790000000000023,2.5029999999999344,1.4680000000000588,-0.5380000000000362,-0.6941176470588414,-0.031764705882295546,3.837647058823476
2.9990000000000023,1.8279999999998944,1.689999999999976,-1.1040000000000911,-0.8725000000000208,0.4350000000000472,3.3174999999999404
3.0190000000000023,0.9219999999999137,1.2809999999999209,-1.6570000000000216,-1.0888235294117907,0.6611764705882559,2.8147058823528837
3.0390000000000024,0.17399999999989926,0.5879999999999184,-1.6389999999999592,-1.4512500000000503,0.533749999999968,2.324999999999945
3.0590000000000024,-0.5533333333333991,-0.046666666666742976,-0.9833333333331938,-1.8000000000000247,0.32529411764704863,1.9323529411764384
3.0790000000000024,-0.7600000000000079,-0.6633333333334149,0.010000000000086856,-1.9311764705882408,0.31705882352942155,1.7582352941176387
3.0990000000000024,-0.9666666666666798,-1.1433333333333755,0.23666666666663247,-1.9274999999999958,0.3950000000000083,1.7600000000000056
3.1190000000000024,-0.7539999999999677,-1.3379999999999932,-0.24200000000006466,-1.92,0.3158823529411628,1.8452941176470699
3.1390000000000025,-0.6540000000000026,-1.131999999999969,-0.48399999999996396,-2.0412500000000016,0.11187500000000229,2.0487499999999983
3.1590000000000025,-0.728000000000031,-0.951999999999982,0.23200000000012366,-2.0537500000000017,0.1306250000000023,2.036249999999998
3.1790000000000025,-1.2560000000000877,-0.6919999999999562,0.8140000000000155,-2.201176470588271,0.4929411764706767,1.7535294117646365
3.1990000000000025,-1.445999999999946,-0.421999999999982,0.9100000000000258,-2.2311764705882213,1.175882352941265,1.139411764705797
3.2190000000000025,-1.005999999999959,-0.33199999999999485,1.2300000000000515,-2.074242424242403,1.7948484848485609,0.2972727272726158
3.2390000000000025,-0.8579999999999922,-0.3980000000000309,1.540000000000013,-1.8894117647058506,2.3117647058823545,-0.5888235294118657
3.2590000000000026,-0.9940000000000669,-0.57,1.3219999999999303,-1.422499999999887,2.293749999999989,-1.3812500000000778
3.2790000000000026,-1.6640000000000927,-0.3379999999999408,1.0540000000000411,-0.21294117647040078,2.4970588235294735,-1.8411764705882707
3.2990000000000026,-2.3820000000001107,0.24000000000009014,1.7560000000001135,1.4188235294119897,2.9758823529412384,-2.184705882352991
3.3190000000000026,-3.4780000000001725,1.0240000000001186,2.4280000000000435,3.0500000000002006,3.1399999999999735,-2.900000000000141
3.3390000000000026,-4.8260000000001515,2.096000000000152,2.58600000000001,4.518823529411936,2.8429411764704735,-3.9941176470589994
3.3590000000000027,-5.966000000000178,3.224000000000144,2.6760000000000104,5.602500000000083,1.8899999999998536,-5.301250000000163
3.3790000000000027,-7.478000000000212,4.284000000000126,2.6799999999999864,5.928235294117644,0.8429411764704762,-6.434705882353057
3.3990000000000027,-8.7240000000001,4.932000000000036,2.481999999999967,5.60647058823523,0.21647058823523047,-7.264705882353043
3.4190000000000027,-9.048000000000005,4.9379999999999775,2.2399999999999585,4.964117647058728,0.0635294117646961,-7.900000000000083
3.4390000000000027,-8.877999999999895,4.647999999999937,1.937999999999978,4.238749999999883,0.10500000000003609,-8.210000000000013
3.4590000000000027,-7.633999999999838,4.133999999999935,1.7159999999999285,3.454705882352842,0.3435294117647352,-8.244705882352925
3.4790000000000028,-6.623999999999824,3.771999999999953,0.9599999999998761,2.864117647058767,0.49705882352942254,-7.984117647058766
3.4990000000000028,-4.985999999999681,3.38799999999995,0.10799999999990917,2.5924999999999785,0.42499999999997673,-7.31499999999989
3.519000000000003,-2.5379999999996614,3.1139999999999888,-0.37400000000005784,2.108235294117569,-0.2405882352942268,-6.246470588235138
3.539000000000003,0.14800000000040475,2.7939999999999063,-0.9400000000000825,1.4962499999999512,-0.7437499999999622,-4.956249999999821
3.559000000000003,3.806000000000603,1.6219999999997468,-0.8919999999999119,1.136470588235234,-0.4188235294116959,-3.8182352941175144
3.579000000000003,9.022000000000821,-0.6900000000004131,-0.13199999999996695,0.7035294117646411,0.2000000000001129,-3.0658823529410966
3.599000000000003,13.96200000000045,-4.046000000000479,-1.2960000000004241,0.4149999999999767,1.0900000000001264,-2.682499999999965
3.619000000000003,17.25600000000052,-7.004000000000305,-4.270000000000262,0.36117647058823205,1.5152941176470995,-2.611176470588232
3.639000000000003,20.978000000000534,-9.050000000000287,-4.855999999999861,0.25499999999997836,1.188749999999926,-2.7150000000000216
3.659000000000003,24.39200000000037,-10.64000000000015,-3.409999999999879,0.07588235294114032,0.7029411764705262,-2.809411764705877
3.679000000000003,25.311999999999948,-10.613999999999837,-3.9080000000002024,-0.20823529411769742,0.33235294117642383,-2.6470588235293633
3.699000000000003,24.1739999999997,-9.165999999999725,-4.503999999999867,-0.4600000000000311,0.14249999999998253,-2.159999999999907
3.719000000000003,21.435999999999392,-7.579999999999834,-2.5119999999995866,-0.7164705882353319,0.3082352941176799,-1.0894117647057162
3.739000000000003,16.647999999999207,-6.6819999999998725,0.018000000000353233,-0.7933333333333428,0.42363636363637913,-0.7709090909090521
3.759000000000003,10.526666666665488,-5.427777777777476,2.0488888888891488,-0.8437500000000018,0.5787500000000378,-0.4187499999999224
3.779000000000003,3.4199999999989306,-3.369999999999652,2.6849999999999783,-0.8558823529411782,0.7276470588235346,0.2676470588236528
3.799000000000003,-2.9427272727281113,-1.4590909090907083,2.0381818181816227,-0.887575757575764,0.6966666666666566,0.674242424242451
3.819000000000003,-9.100000000000797,-0.23999999999989427,0.1249999999997668,-0.9299999999999836,0.6299999999999361,0.8500000000001006
3.839000000000003,-10.509999999999689,-0.8250000000003077,0.7700000000003732,-0.8276470588235164,0.2305882352940656,1.44411764705887
3.859000000000003,-8.30499999999975,-3.1600000000002924,0.7949999999994996,-0.7549999999999928,-0.11625000000005592,1.7512500000000486
3.879000000000003,-8.40500000000032,-4.645000000000233,-2.6050000000003823,-0.6770588235293962,-0.4394117647059206,2.0729411764706334
3.899000000000003,-13.795000000001115,-5.429999999999875,-3.3599999999997703,-0.5176470588235004,-0.5758823529411873,2.371176470588281
3.919000000000003,-18.945000000000345,-3.579999999999658,-0.9199999999995523,-0.28999999999997256,-0.5499999999999964,2.650000000000031
3.939000000000003,-19.00499999999971,-1.6499999999998072,0.6950000000000777,-0.12833333333332098,-0.5233333333333263,2.835000000000016
3.959000000000003,-16.64499999999962,-1.5800000000001555,0.6949999999999222,-0.05437499999999064,-0.46812499999998686,2.9131250000000017
3.979000000000003,-14.434999999999711,-3.020000000000255,0.24999999999995648,0.08588235294121241,-0.3935294117646969,2.9147058823529393
3.999000000000003,-13.109999999999832,-4.305000000000143,0.07499999999997002,0.27882352941179356,-0.6170588235294838,3.0370588235294487
4.019000000000003,-12.204999999999911,-4.795000000000024,-0.4550000000001146,0.0012499999999315836,-1.3293750000001308,3.4556250000000786
4.039000000000003,-11.704999999999918,-4.779999999999972,-1.2600000000000995,-0.6837500000000729,-1.4674999999998626,3.8662500000000435
4.059000000000003,-11.319999999999963,-4.459999999999931,-1.4299999999999629,-1.00411764705883,-0.5652941176469091,4.110000000000028
4.079000000000003,-11.014999999999933,-3.8349999999998685,-0.9349999999998828,-1.008823529411757,0.23117647058830887,4.2782352941176685
4.099000000000003,-10.47999999999991,-3.1449999999999276,-0.4199999999999574,-1.1241176470588556,-0.2958823529413455,4.266470588235279
4.119000000000003,-9.829999999999929,-2.6999999999999287,-0.53500000000011,-1.198750000000004,-1.527500000000201,4.155624999999982
4.139000000000003,-9.494999999999928,-2.5,-1.2650000000000934,-0.744117647058748,-1.675294117647051,4.272941176470643
4.159000000000003,-8.874999999999869,-2.600000000000021,-1.945000000000117,-0.337499999999957,-1.765000000000086,4.648125000000088
4.179000000000003,-7.5999999999997545,-2.5249999999999493,-2.5050000000000616,-0.1047058823529113,-2.2835294117647824,5.173529411764782
4.199000000000003,-5.554999999999605,-2.004999999999904,-2.870000000000057,0.10000000000003498,-2.457647058823517,5.622941176470656
4.219000000000003,-2.844999999999592,-1.7850000000000188,-3.095000000000029,0.18750000000000805,-2.036874999999913,5.86062500000003
4.239000000000003,0.5800000000008028,-2.0250000000000106,-2.9799999999997726,0.08647058823525416,-1.3788235294116609,5.790588235294068
4.259000000000003,6.755000000001116,-1.3449999999997544,1.0200000000010756,-0.18375000000006453,-0.7856249999999075,5.441874999999912
4.2790000000000035,12.800000000000868,0.9550000000004227,6.910000000000483,-0.5541176470588911,-0.3417647058822918,4.858235294117523
4.299000000000003,17.165000000000585,1.8899999999999317,4.219999999999036,-0.8694117647059229,-0.12529411764703852,4.194705882352847
4.3190000000000035,19.51000000000019,1.2849999999999469,-0.6650000000005223,-1.0712500000000282,-0.10875000000000402,3.6737499999999237
4.339000000000003,18.229999999999446,2.250000000000224,-2.285000000000096,-1.0941176470588139,-0.12588235294115324,3.3923529411764415
4.3590000000000035,14.464999999999392,3.1450000000000955,-1.9649999999997476,-0.9624999999999398,0.01125000000002151,3.263125000000002
4.379000000000003,11.329999999999552,3.444999999999972,0.09500000000036368,-0.7779411764705909,-0.052352941176515524,3.349411764705909
4.399000000000004,8.684999999999576,2.8199999999998506,1.8350000000001598,-0.7955882352941209,-0.3464705882353475,3.5258823529412084
4.419000000000003,6.417999999999707,2.1059999999999275,1.8079999999998881,-0.8088235294117665,-0.5523529411764964,3.7023529411764966
4.439000000000004,4.885454545454289,1.5299999999998515,0.7781818181815818,-0.8158823529411865,-0.5399999999999661,3.8052941176470507
4.459000000000003,3.4255555555552983,0.5611111111109555,-0.6766666666669054,-0.874705882352951,-0.33411764705878616,3.699411764705835
4.479000000000004,2.093999999999762,0.017999999999953095,-1.7200000000001368,-0.9049999999999978,-0.11999999999996448,3.2949999999998956
4.499000000000004,1.0719999999998515,0.08400000000005473,-1.9819999999999882,-0.8929411764705857,0.03764705882355781,2.601176470588068
4.519000000000004,0.10799999999977722,0.5380000000001095,-1.7699999999999414,-0.9181250000000077,0.22000000000004108,1.7256249999998126
4.539000000000003,-0.8640000000001178,1.0420000000000664,-1.1879999999998883,-1.010588235294135,0.6588235294118615,0.9058823529410545
4.559000000000004,-1.61600000000018,1.3100000000000196,-0.6519999999999296,-1.130625000000028,1.2156250000000797,0.17499999999987953
4.579000000000004,-2.420000000000117,1.1859999999999453,-0.28199999999992964,-1.3470588235294707,1.5494117647059193,-0.4747058823530641
4.599000000000004,-2.5559999999999454,0.7279999999998945,-0.22000000000005865,-1.6788235294118332,1.7823529411765215,-0.9994117647059731
4.619000000000003,-2.5680000000000396,0.4199999999999698,-0.6180000000000393,-1.9376470588235621,2.2558823529412555,-1.411176470588292
4.639000000000004,-2.7520000000000273,0.2079999999999531,-0.4259999999998867,-2.01,2.6776470588235664,-1.8311764705883213
4.659000000000004,-2.639999999999915,-0.030000000000063948,0.2880000000001407,-1.9693749999999646,2.8475000000000326,-2.2493750000000947
4.679000000000004,-2.275999999999945,-0.24,0.5539999999999962,-1.6947058823528647,2.9988235294117933,-2.6700000000000745
4.699000000000003,-1.6479999999998751,-0.05199999999995612,0.4959999999999865,-1.205294117646964,3.1164705882353108,-2.9782352941176904
4.719000000000004,-0.8499999999998046,0.24200000000006644,0.5100000000000195,-0.5449999999998563,3.327500000000051,-3.0962500000000155
4.739000000000004,-0.24600000000000427,0.6260000000000895,0.3759999999999403,0.3552941176473058,3.6505882352941406,-3.1194117647059025
4.759000000000004,-0.24399999999995703,0.7859999999999844,0.4680000000000899,1.560625000000295,3.6331249999999162,-3.261875000000062
4.7790000000000035,0.07200000000009116,0.36799999999989197,0.7039999999999798,2.902941176470833,3.1447058823528278,-3.6688235294118674
4.799000000000004,0.39,-0.20600000000008206,-1.9539925233402755e-13,4.1076470588237415,2.2152941176468444,-4.348823529411908
4.819000000000004,0.4860000000000469,-0.564000000000081,-0.5,4.952500000000154,1.0956249999997716,-5.111875000000157
4.839000000000004,0.742000000000047,-0.8880000000000507,-0.15799999999991401,5.208235294117665,0.6264705882352449,-5.859411764706027
4.8590000000000035,0.8900000000000169,-1.0140000000000136,-0.06800000000004389,5.160624999999924,0.4843750000000237,-6.526875000000101
4.879000000000004,0.8539999999999961,-0.8439999999999375,-0.49800000000007033,4.618235294117507,0.6923529411765321,-7.082941176470697
4.8990000000000045,0.990000000000048,-0.43399999999987526,-0.6700000000000239,3.7358823529409384,0.979411764705948,-7.473529411764777
4.919000000000004,0.8259999999999061,0.24200000000014457,-0.7179999999999922,2.6417647058821396,1.3058823529412416,-7.267647058823458
4.939000000000004,0.18599999999986713,0.964000000000133,-0.40799999999989445,1.9158823529411524,1.5547058823527453,-6.043529411764101
4.959000000000004,-0.4820000000001446,1.6160000000001211,0.18800000000010939,1.863125000000046,0.5931249999999161,-3.130937499999793
4.9790000000000045,-1.3020000000002014,2.2780000000001586,0.5500000000000479,2.0756250000000507,0.20562499999990758,-2.174687499999772
4.999000000000004,-1.9600000000000977,2.9080000000001096,0.6940000000000156,2.4329411764706768,0.01647058823527734,-1.0141176470585647
5.019000000000004,-2.572000000000145,3.3860000000000823,0.74,2.069999999999823,0.18999999999997388,-0.410000000000117
5.039000000000004,-3.3680000000001877,3.7080000000000313,0.7119999999999882,1.0758823529409711,0.042941176470557896,-1.0688235294119006
5.059000000000005,-4.514000000000307,3.6979999999999666,0.5039999999999233,0.09874999999978146,0.03750000000007578,-1.533750000000003
5.079000000000004,-5.716666666666892,3.3899999999999033,0.2899999999999862,-0.5994117647059747,0.45294117647069,-1.2988235294116677
5.099000000000004,-6.460000000000142,2.969999999999917,0.2666666666666588,-0.8288235294117852,0.729411764705912,-0.640588235293972
5.119000000000004,-7.145000000000106,2.6009999999999276,0.32000000000004264,-0.6999999999999503,0.5999999999999268,0.1800000000001489
5.139000000000005,-6.856363636363444,2.232727272727183,0.7400000000000985,-0.49058823529408757,0.2988235294117319,0.8170588235295156
5.159000000000004,-5.956999999999791,2.0570000000000044,0.7009999999999276,-0.3774999999999825,0.24875000000003789,1.212500000000064
5.179000000000004,-4.397999999999651,2.148000000000015,0.19399999999989803,-0.2576470588234963,0.5064705882353651,1.4147058823529672
5.199000000000004,-1.472999999999271,2.024999999999936,-0.2880000000001023,0.006470588235358843,0.752352941176509,1.4752941176470635
5.219000000000005,2.9400000000011777,1.3199999999997734,0.029000000000212856,0.34555555555563544,0.6211111111110621,1.4266666666666512
5.239000000000004,8.936000000001398,-0.1600000000003836,1.540000000000341,0.6435294117647563,0.016470588235158026,1.251176470588195
5.259000000000004,15.12000000000105,-2.5927272727278456,1.113636363635916,0.872941176470633,-0.5364705882353589,1.0658823529411392
5.279000000000004,19.59000000000093,-6.21333333333429,-3.0000000000010214,1.070000000000039,-0.7300000000000055,0.9149999999999749
5.299000000000005,22.656363636364233,-10.263636363637247,-4.3218181818179575,1.1611764705882435,-0.6764705882352695,0.855882352941171
5.319000000000004,24.30300000000021,-12.455000000000107,-1.9879999999995481,1.0552941176470236,-0.5794117647058606,0.8941176470588371
5.339000000000004,24.728999999999946,-11.053999999999498,-2.045000000000277,0.8311764705881959,-0.4817647058823357,0.9970588235294265
5.359000000000004,21.64899999999892,-8.013999999999326,-2.8039999999999656,0.6576470588235019,-0.3817647058823206,1.0588235294117723
5.379000000000005,16.007999999998475,-5.373999999999392,-0.7169999999992325,0.5399999999999756,-0.24499999999997252,1.074999999999997
5.3990000000000045,9.987999999998696,-3.507999999999676,2.1330000000005076,0.415294117647026,-0.185882352941171,1.0347058823529276
5.419000000000004,3.3709999999985634,-2.1769999999997482,2.5509999999997994,0.22999999999995893,-0.14249999999998975,0.9262499999999744
5.4390000000000045,-4.28800000000185,-0.7159999999996505,0.7179999999995054,0.20095238095242526,0.015238095238085168,0.7800000000000423
5.459000000000005,-14.294000000002741,0.5220000000002369,-1.705000000000541,0.4003571428571446,-0.05571428571440888,0.999642857142999
5.4790000000000045,-20.28900000000033,0.15399999999966751,0.5620000000013046,0.40750000000000164,-0.57000000000012,1.5925000000001384
5.499000000000004,-17.681999999999213,-0.4219999999998124,6.957000000000814,0.33777777777775286,-0.930555555555618,2.2405555555557077
5.519000000000005,-14.073999999998968,1.6220000000004802,4.56199999999894,0.15999999999995299,-0.7970588235293482,2.7011764705883268
5.539000000000005,-9.584999999999098,2.7270000000001593,1.2719999999994127,-0.00764705882352345,-0.46588235294114066,2.9670588235294297
5.559000000000005,-7.9709999999998775,2.881999999999982,0.26299999999995016,0.07176470588240844,-0.3511764705882274,2.9788235294117276
5.579000000000004,-7.584999999999851,2.4189999999998166,1.2190000000003707,0.3850000000000916,-0.4250000000000528,2.794999999999953
5.599000000000005,-6.764999999999842,1.0049999999996149,2.9950000000002945,0.8676470588236525,-0.6823529411765334,2.328823529411617
5.619000000000005,-6.417000000000005,-0.663000000000407,2.261999999999464,0.9859374999999952,-0.7828125000000109,2.0809374999999704
5.639000000000005,-7.566000000000399,-1.7790000000001676,-0.23900000000053,0.9223529411763967,-0.7882352941175977,1.9499999999999535
5.659000000000004,-9.356000000000375,-1.708999999999902,-1.2449999999999788,0.6399999999999534,-0.5274999999999126,1.8137500000000029
5.679000000000005,-10.650000000000228,-0.9379999999997464,0.576000000000625,0.4870588235293858,-0.18411764705874697,1.855294117647076
5.699000000000005,-11.272000000000082,0.45400000000037105,3.1440000000005255,0.381176470588209,0.12764705882360677,1.925882352941194
5.719000000000005,-11.068999999999896,1.5600000000001812,3.479999999999819,0.25333333333330244,0.323333333333372,1.9933333333333487
5.739000000000004,-10.959090909090925,1.8527272727272688,1.763636363635995,-0.0029411764706588003,0.4370588235294269,2.03
5.759000000000005,-10.735454545454486,1.6699999999999497,0.6299999999998498,-0.3411764705883287,0.501764705882365,2.0123529411764522
5.779000000000005,-11.324000000000291,1.543999999999989,0.39200000000002205,-0.6917647058824381,0.5252941176470558,1.9182352941176137
5.799000000000005,-11.94600000000008,1.5620000000000185,1.1820000000002495,-1.018750000000074,0.5131249999999972,1.7499999999999545
5.819000000000004,-11.257999999999704,1.6640000000000137,1.8060000000000325,-1.2852941176471155,0.5276470588235348,1.5323529411764192
5.839000000000005,-9.60363636363594,1.5699999999999499,0.8727272727269678,-1.5017647058823826,0.5735294117647147,1.2976470588234728
5.859000000000005,-7.42999999999934,1.0759999999998184,-0.24400000000020927,-1.6047058823529563,0.6029411764705912,1.08294117647054
5.879000000000005,-4.108888888887779,-0.07111111111151114,0.14555555555585037,-1.64,0.6250000000000091,0.9099999999999633
5.8990000000000045,3.8920000000022807,-1.8200000000003693,2.8520000000007344,-1.6329411764705855,0.6823529411764869,0.8076470588235131
5.919000000000005,12.280000000001575,-2.05272727272711,3.9963636363634505,-1.6123529411764652,0.7617647058823723,0.772352941176465
5.939000000000005,16.874000000000816,-1.0339999999996587,0.5079999999989042,-1.539411764705855,0.7876470588235234,0.7611764705882383
5.959000000000005,16.707999999999508,0.3460000000002473,-2.585000000000747,-1.4305882352940875,0.7552941176470438,0.7729411764705912
5.9790000000000045,13.489999999999261,-0.1420000000002032,-4.342000000000157,-1.3049999999999695,0.6549999999999638,0.78
5.999000000000005,11.767272727272575,-1.3590909090912957,-3.7690909090906133,-1.1652941176470215,0.46999999999994724,0.7517647058823406
6.0190000000000055,11.203999999999851,-2.614000000000237,-2.125999999999543,-1.032941176470552,0.3052941176470161,0.6694117647058561
6.039000000000005,10.785999999999841,-3.156000000000106,-0.727999999999717,-0.9105882352940938,0.28294117647062106,0.5211764705881876
6.059000000000005,10.119999999999907,-3.524000000000083,0.5660000000004017,-0.8105882352940912,0.4182352941176814,0.33294117647054594
6.079000000000005,9.313999999999655,-3.245999999999842,1.109999999999808,-0.6694117647058366,0.5476470588235538,0.15882352941172515
6.0990000000000055,7.607999999999538,-2.239999999999697,-0.7340000000004846,-0.46624999999993877,0.6175000000000136,-0.006250000000047606
6.119000000000005,6.549999999999808,-1.1539999999997508,-1.5240000000000864,-0.26882352941172044,0.612352941176465,-0.17352941176474462
6.139000000000005,6.009999999999931,-0.213999999999806,-1.5959999999999863,-0.11941176470585553,0.5182352941176173,-0.2935294117647148
6.159000000000005,5.009999999999588,0.40200000000013214,-1.6080000000000056,-0.00470588235290504,0.40058823529408755,-0.3111764705882263
6.179000000000006,3.6559999999996258,0.6260000000000385,-1.5219999999999945,0.2150000000000899,0.21999999999992673,-0.22499999999995668
6.199000000000005,1.7619999999994163,0.706000000000011,-1.8120000000001322,0.3762500000000107,0.07999999999998779,-0.14499999999999388
6.219000000000005,0.21799999999972747,0.6239999999999677,-2.3800000000001384,0.4200000000000117,0.03,-0.12000000000001168
6.239000000000005,-0.6440000000002093,0.45799999999995045,-2.9340000000001267,0.47,0.03625000000003018,-0.17750000000003624
6.259000000000006,-1.212000000000132,0.27799999999995045,-2.9859999999999562,0.4543749999999809,0.16125000000003817,-0.34156250000006294
6.279000000000005,-1.6900000000001376,0.1919999999999945,-2.3319999999997467,0.3918749999999823,0.2862500000000354,-0.5478125000000584
6.299000000000005,-2.376000000000194,0.1919999999999954,-0.39599999999933955,0.30117647058820907,0.375882352941194,-0.7270588235294526
6.319000000000005,-3.436000000000314,0.2080000000000055,3.0960000000008367,0.20999999999999372,0.4299999999999969,-0.8400000000000125
6.339000000000006,-4.30200000000016,0.27200000000002206,2.825999999999433,0.19,0.4129411764705752,-0.8747058823529315
6.359000000000005,-4.3039999999999345,0.3180000000000055,0.23199999999936127,0.18624999999999653,0.34624999999996875,-0.8162499999999687
6.379000000000005,-4.216000000000009,0.3780000000000277,-0.972000000000157,0.16823529411764127,0.2664705882352826,-0.6952941176470271
6.399000000000005,-4.333999999999989,0.5440000000000441,-0.6319999999997468,0.16764705882353273,0.33411764705886005,-0.6041176470588036
6.419000000000006,-4.125999999999955,0.6560000000000398,0.9800000000005116,0.22000000000002926,0.620000000000117,-0.6200000000000475
6.439000000000005,-3.7233333333331657,0.7766666666666835,2.126666666666835,0.30882352941178054,0.9717647058824099,-0.7870588235294782
6.459000000000005,-2.835999999999771,0.5829999999999353,1.4379999999997115,0.36875000000001457,1.12,-1.046250000000067
6.479000000000005,-2.0109999999997923,0.22699999999991394,0.21299999999973174,0.46470588235297633,1.0023529411764067,-1.2841176470588747
6.499000000000006,-1.2219999999997537,-0.008000000000070354,-0.022999999999982413,0.628695652173966,0.7221739130433901,-1.366956521739138
6.5190000000000055,0.10100000000046316,-0.3590000000001231,0.6580000000002462,0.9283333333334474,0.21166666666647044,-1.2716666666666072
6.539000000000005,1.307000000000214,-0.8910000000001443,0.9529999999999851,1.2062500000000775,-0.12687500000008056,-0.9406249999999075
6.5590000000000055,1.4149999999999707,-1.4270000000001348,-0.012000000000340072,1.5147058823530108,-0.5476470588237098,-0.635294117647043
6.579000000000006,1.1569999999999003,-1.6910000000000527,-0.8300000000001759,1.5099999999998788,-1.2323529411766845,-0.6705882352941711
6.5990000000000055,0.6869999999998417,-1.6839999999999764,-0.8509999999999355,0.7937499999997348,-1.7768750000001121,-0.9287500000000883
6.619000000000005,0.24299999999993532,-1.4269999999999154,-0.4049999999998757,-0.005882352941350755,-1.9329411764706048,-1.3452941176471638
6.639000000000006,-0.1460000000001407,-0.8619999999998125,-0.1849999999999707,-0.39882352941182075,-1.977647058823463,-1.741764705882388
6.659000000000006,-0.2950000000000293,-0.2119999999998124,0.10300000000009966,-0.5311764705882247,-1.6511764705880445,-1.7711764705881645
6.679000000000006,-0.3319999999999883,0.3340000000001524,0.3880000000000704,-0.28499999999985015,-1.0049999999998236,-1.4749999999998966
6.699000000000005,-0.04899999999990551,0.6660000000000696,0.3019999999999403,0.33529411764723266,-0.471764705882235,-1.1435294117646284
6.719000000000006,0.2870000000000762,0.7770000000000176,-0.21000000000017588,0.6941176470588959,0.03705882352955969,-0.9023529411764082
6.739000000000006,0.4690000000000645,0.8019999999999883,-0.626000000000082,0.8368750000000964,0.19499999999991424,-0.8475000000000429
6.759000000000006,0.4079999999999531,0.7429999999999825,-0.5989999999999472,1.1488235294118354,-0.12705882352952838,-1.1835294117649744
6.779000000000005,0.2929999999999848,0.7390000000000051,-0.17399999999987847,1.1449999999999034,-0.4025000000000283,-1.72
6.799000000000006,0.17799999999995314,0.7680000000000118,0.07500000000002931,0.7824999999998954,-0.5087500000000307,-1.72
6.819000000000006,0.22700000000007736,0.8550000000000297,0.012999999999982147,0.1400000000000439,-0.8000000000000659,-1.2299999999995428
6.839000000000006,0.7350000000001465,1.0480000000000704,0.009000000000005863,0.3000000000000732,-0.9572727272726856,0.0600000000000732
6.859000000000005,0.9550000000000253,1.3070000000000659,0.04800000000001013,0.5666666666667384,-0.805757575757535,0.32666666666673844
6.879000000000006,0.8329999999999238,1.5560000000000822,0.1750000000000293,0.8764705882353965,-0.30647058823504847,0.6247058823530367
6.899000000000006,0.6329999999999821,1.7720000000000475,0.4510000000001131,0.8241176470587352,0.2500000000001306,0.6176470588234679
6.919000000000006,0.7350000000000293,1.7249999999999708,0.7040000000000352,0.5809090909090193,0.727575757575908,0.19696969696955197
6.939000000000005,0.5519999999999393,1.5299999999999494,0.47599999999991904,0.38529411764706833,1.1905882352941903,-0.2894117647060248
6.959000000000006,0.5009999999999941,1.2439999999999178,0.16699999999990034,0.4325000000000208,1.3462499999999686,-0.780000000000111
6.979000000000006,0.4229999999999821,1.0949999999999702,0.15900000000006548,0.47588235294118014,1.0782352941175133,-1.0682352941177027
6.999000000000006,0.3819999999999883,0.9759999999999648,0.7560000000001994,0.42222222222219435,0.590555555555392,-1.1011111111110972
7.0190000000000055,0.3990000000000059,0.93,0.9829999999999824,0.29411764705878407,0.08058823529397624,-0.9223529411764082
7.039000000000006,0.4870000000000176,0.9960000000000234,0.5259999999998476,0.1868749999999823,-0.2531250000000177,-0.6012499999998938
7.059000000000006,0.43399999999997296,1.0860000000000272,0.17099999999992577,0.13117647058822424,-0.26470588235289694,-0.24941176470579385
7.079000000000006,0.13799999999989448,1.1209999999999942,0.09,0.05499999999995726,-0.08499999999992616,-0.019999999999953375
7.0990000000000055,-0.18600000000008207,1.016999999999959,0.23100000000005275,-0.12000000000005538,0.14411764705888544,0.05411764705883004
7.119000000000006,-0.32300000000004103,0.7269999999999003,0.3290000000000059,-0.3288235294118239,0.34117647058828793,-0.0017647058823759554
7.1390000000000065,-0.39099999999999324,0.3769999999998852,0.09399999999990549,-0.5193750000000614,0.3612499999999427,-0.1525000000000819
7.159000000000006,-0.3899999999999887,0.10999999999995479,-0.27000000000005653,-0.7070588235294684,0.21823529411763293,-0.416470588235386
7.179000000000006,-0.4100000000000339,0.010000000000009689,-0.43000000000001454,-0.890588235294167,0.22294117647061126,-0.722352941176556
7.199000000000006,-0.5100000000000435,0.07000000000003731,-0.4199999999999751,-1.0525000000000475,0.3218750000000356,-0.9768750000000672
7.2190000000000065,-0.7500000000001181,0.21000000000004973,-0.3499999999999751,-1.0635294117646945,0.18235294117639816,-0.8623529411763982
7.239000000000006,-1.150000000000205,0.3400000000000684,-0.26999999999998137,-0.6543749999997963,-0.46125000000023586,-0.28562499999980345
7.259000000000006,-1.86000000000024,0.6200000000001119,-0.15999999999996803,0.024117647058996716,-1.1858823529413038,0.37411764705899675
7.279000000000006,-2.8100000000002736,1.0900000000001617,9.325873406851514e-14,0.5300000000001212,-1.4541176470588342,0.8752941176471765
7.299000000000007,-3.5300000000001615,1.5500000000000684,0.33,0.7443750000000198,-1.2912499999998972,1.1600000000000632
7.319000000000006,-4.21000000000028,1.6499999999999626,0.10999999999978861,0.6982352941176208,-0.8394117647057249,1.2276470588235369
7.339000000000006,-5.130000000000224,1.5399999999999734,-0.5800000000001545,0.6712500000000637,-0.08187499999978412,1.1212499999999503
7.359000000000006,-6.000000000000311,1.4799999999999938,-1.0600000000000747,0.9223529411765695,0.5635294117647942,0.9576470588234905
7.379000000000007,-6.870000000000128,1.4399999999999502,-1.1699999999998436,1.162352941176505,0.7023529411764401,0.7999999999999352
7.399000000000006,-7.049999999999994,1.35,-0.6399999999998632,0.8937499999998181,0.22687499999975086,0.42812499999983783
7.419000000000006,-6.9099999999996955,1.410000000000062,-0.32,0.5294117647058001,-0.19058823529419985,0.16764705882348008
7.439000000000006,-5.439999999998962,1.5900000000000063,-0.42000000000001864,0.3987499999999663,-0.2368750000000056,0.09937499999998314
7.459000000000007,-1.5499999999981242,1.519999999999858,-0.39,0.26749999999994367,-0.07749999999981488,0.0750000000000161
7.479000000000006,3.7300000000013367,1.1299999999998942,-0.5200000000001554,0.18,0.4688235294119284,0.08823529411763963
7.499000000000006,7.520000000001156,0.73999999999977,-1.069999999999969,0.18684210526316106,0.9168421052632817,0.06631578947367786
7.519000000000006,11.050000000000287,-0.22000000000059686,-0.6699999999998011,0.19,1.2500000000000966,0.06
7.539000000000007,11.560000000000356,-2.6300000000012718,-0.13000000000002132,0.2090476190476128,1.3380952380952258,0.0709523809523872
7.559000000000006,12.880000000000829,-6.010000000000646,-0.6100000000001741,0.18999999999998446,1.2999999999999328,0.09000000000001036
7.579000000000006,16.190000000001692,-7.650000000000168,-0.5699999999994093,0.1270588235293868,1.0711764705881603,0.11941176470588949
7.599000000000006,21.30000000000058,-8.080000000000181,1.0199999999995275,-0.033750000000071195,0.7193749999998615,0.13687500000000397
7.619000000000007,22.759999999999902,-8.87000000000027,-1.220000000000746,-0.3268421052632635,0.18368421052612577,0.09263157894734732
7.6390000000000065,21.289999999999196,-9.11999999999975,-2.4899999999995712,-0.6688235294118223,-0.3900000000000653,-0.015294117647093399
7.659000000000006,18.78999999999875,-8.149999999999503,-0.6799999999994094,-0.8275000000000253,-0.55,-0.11500000000002165
7.6790000000000065,14.399999999998638,-6.539999999999546,0.9500000000003419,-0.88,-0.526470588235275,-0.1976470588235599
7.699000000000007,9.989999999998217,-5.089999999999382,2.1000000000003483,-0.9075000000000181,-0.43124999999995495,-0.2468750000000045
7.7190000000000065,4.6299999999980415,-3.1599999999992603,2.689999999999863,-0.937647058823537,-0.29411764705877785,-0.26764705882353707
7.739000000000006,-1.9200000000025303,-0.6499999999991483,2.01999999999949,-0.9187499999999929,-0.2074999999999857,-0.2993749999999964
7.759000000000007,-11.250000000003862,1.9500000000005595,-0.22000000000113154,-0.8941176470588155,-0.14352941176466938,-0.27529411764703854
7.779000000000007,-22.140000000000228,3.129999999999531,-2.9999999999991687,-0.8705882352941094,-0.004705882352875779,-0.21647058823527368
7.799000000000007,-19.645454545453273,1.3990909090907722,3.0890909090942387,-0.8324999999999841,0.19687500000006725,-0.15562499999998025
7.819000000000006,-16.0681818181805,2.1863636363642667,10.036363636362173,-0.7670588235293893,0.36470588235298995,-0.09588235294115773
7.839000000000007,-10.724999999998456,3.6370000000000458,3.835999999998265,-0.653124999999955,0.4612500000000082,-0.048749999999991814
7.859000000000007,-7.804000000000177,3.646999999999978,-0.31700000000086254,-0.5176470588234848,0.4623529411764462,-0.024117647058815417
7.879000000000007,-7.934999999999639,3.2699999999996714,-1.955999999999908,-0.3976470588234951,0.39647058823527503,-0.01
7.899000000000006,-6.711999999999754,2.2259999999996496,-1.3899999999998054,-0.29499999999996834,0.34937499999998817,-0.030625000000011865
7.919000000000007,-6.320000000000132,1.0759999999995793,-0.8389999999997305,-0.2082352941176204,0.32235294117646296,-0.08411764705884259
7.939000000000007,-7.273000000000759,-0.21600000000048653,0.28700000000056763,-0.14812499999998605,0.3518750000000139,-0.15062500000000464
7.959000000000007,-9.669000000000848,-1.3830000000001512,1.586000000000105,-0.10529411764703854,0.36235294117644623,-0.13941176470585395
7.979000000000006,-11.658000000000182,-1.44299999999976,1.5489999999998638,-0.01823529411760784,0.2964705882352763,-0.04294117647055259
7.999000000000007,-11.758999999999727,-0.48499999999956706,1.39400000000016,0.27941176470601536,0.28941176470589314,0.08117647058827485
8.019000000000007,-10.817999999999724,0.7300000000003286,1.9820000000002103,0.48677419354842544,0.3090322580645206,0.11548387096773968
8.039000000000007,-10.133999999999896,1.559000000000125,2.495000000000033,0.5994117647059276,0.31117647058821474,0.09941176470585765
8.059000000000006,-10.05600000000017,1.7399999999999343,2.3449999999997697,0.6299999999999445,0.15749999999989592,-0.03625000000007979
8.079000000000006,-10.612000000000078,1.4129999999998224,1.6049999999998357,0.47999999999997284,-0.07117647058825767,-0.2241176470588475
8.099000000000007,-10.674999999999901,0.8549999999998357,1.342000000000079,0.3799999999999629,-0.15352941176473645,-0.31235294117650336
8.119000000000007,-10.176999999999651,0.4589999999999277,1.7760000000002365,0.11999999999996656,-0.18999999999994985,-0.6200000000000543
8.139000000000006,-9.014999999999572,0.24399999999989486,2.212999999999823,0.02323529411760706,-0.036470588235214124,-0.7720588235294644
8.159000000000006,-7.645999999999383,-0.21400000000022346,1.3049999999996387,-0.08852941176474122,0.18705882352948244,-0.91911764705887
8.179000000000007,-5.204999999998587,-1.0100000000003286,0.6810000000002695,-0.18937500000003255,0.4168750000000883,-1.0450000000000372
8.199000000000007,0.8610000000031615,-1.976000000000171,2.3140000000007492,-0.27352941176473644,0.6070588235294728,-1.1182352941176688
8.219000000000007,9.706000000002208,-2.0619999999997503,3.598999999999599,-0.3600000000000374,0.6699999999999702,-1.1400000000000037
8.239000000000006,16.728000000001632,-1.1599999999995398,2.0589999999992705,-0.4658823529412146,0.5794117647058137,-1.148823529411757
8.259000000000007,19.54700000000014,0.026999999999893776,-0.6770000000012012,-0.5675000000000125,0.37249999999993755,-1.117499999999979
8.279000000000007,18.610999999997972,-0.464000000000092,-3.579000000001111,-0.5664705882352751,0.2223529411764401,-1.03294117647055
8.299000000000007,11.907999999998212,-0.9400000000003286,-6.3490000000001245,-0.48176470588231757,0.16058823529410585,-0.9152941176470195
8.319000000000006,7.837999999999461,-1.8760000000001709,-5.739999999999276,-0.3712499999999638,0.12374999999998793,-0.7662499999999477
8.339000000000008,7.047000000000548,-2.1950000000000407,-3.2059999999987414,-0.3087499999999896,0.06687499999997398,-0.6218749999999323
8.359000000000007,8.697000000000505,-2.317000000000046,-0.3399999999993427,-0.28411764705881465,0.008235294117629357,-0.46470588235288807
8.379000000000007,9.977000000000046,-2.374999999999967,1.3790000000003222,-0.25117647058822007,-0.04352941176472494,-0.31882352941171516
8.399000000000006,9.311999999999356,-2.235999999999974,1.4399999999993427,-0.21058823529410586,-0.10882352941178831,-0.17235294117642339
8.419000000000008,7.3679999999990855,-2.127999999999902,-0.6310000000007436,-0.18249999999998973,-0.1825000000000308,-0.024999999999938377
8.439000000000007,5.15199999999929,-1.880999999999875,-2.1610000000002696,-0.16058823529412153,-0.25117647058824305,0.09470588235297216
8.459000000000007,3.065999999999448,-1.4189999999997962,-2.6469999999999803,-0.1775000000000125,-0.2574999999999792,0.1775000000000125
8.479000000000006,1.552999999999494,-0.7449999999997042,-2.614000000000026,-0.22352941176472493,-0.14941176470582518,0.195294117647055
8.499000000000008,0.03599999999963266,0.20200000000032045,-2.5159999999997886,-0.2758823529411937,0.09823529411775894,0.1576470588235079
8.519000000000007,-0.7440000000002892,0.9360000000002189,-1.8599999999997263,-0.3250000000000161,0.45250000000012075,0.06124999999996378
8.539000000000007,-1.6200000000002417,1.4180000000000845,-1.1979999999998128,-0.3929411764706076,0.8405882352942531,-0.06705882352945823
8.559000000000008,-2.3660000000002577,1.6020000000000079,-0.625999999999789,-0.4500000000000211,1.2500000000001688,-0.207500000000058
8.579000000000008,-2.854000000000094,1.5319999999999296,-0.041999999999656104,-0.48470588235294604,1.6076470588236509,-0.4217647058824888
8.599000000000007,-2.931999999999969,1.2719999999998515,1.132000000000555,-0.48645161290322325,1.7222580645161163,-0.5912903225806604
8.619000000000007,-2.9580000000000544,0.9319999999999155,2.0459999999998972,-0.47999999999984294,1.6899999999999251,-0.6300000000000412
8.639000000000006,-2.983999999999891,0.6859999999999274,1.1559999999995652,-0.034705882352774664,1.4799999999999343,-0.7376470588235139
8.659000000000008,-2.657999999999914,0.5099999999999609,-0.08000000000031264,0.44096774193563226,1.2412903225804806,-0.6974193548387042
8.679000000000007,-2.403999999999977,0.40399999999997654,-0.6140000000000156,0.7958064516130374,0.8477419354837221,-0.6845161290322532
8.699000000000007,-2.4340000000000153,0.37,-0.44599999999979856,1.8223529411769857,-0.6052941176478095,-1.0241176470590199
8.719000000000008,-2.447999999999953,0.36799999999999217,0.2240000000003283,2.3499999999999295,-1.4200000000000756,-1.480000000000188
8.739000000000008,-2.337999999999914,0.30199999999996874,0.9160000000001016,2.1911764705881716,-1.5905882352941862,-1.9035294117648764
8.759000000000007,-1.8159999999997107,0.1999999999999609,0.85599999999975,1.884999999999762,-1.6424999999999175,-2.263750000000078
8.779000000000007,-1.0879999999997314,0.049999999999925396,0.20599999999979857,1.2178947368418718,-1.3299999999998635,-2.2436842105262294
8.799000000000007,-0.439999999999849,-0.04199999999997585,-0.1440000000000121,0.6964705882351643,-0.910588235293972,-1.774117647058607
8.819000000000008,0.09200000000020322,0.038000000000031266,-0.10599999999994529,0.6325000000000308,-0.648749999999923,-1.0724999999997022
8.839000000000008,0.5600000000002345,0.10200000000000782,0.032000000000046894,0.39588235294097734,-0.3929411764704474,-0.27941176470562984
8.859000000000007,1.0239999999999776,0.09799999999999254,-0.020000000000111914,-0.027500000000062454,-0.0849999999999417,0.29250000000013743
8.879000000000008,0.9079999999999141,0.04399999999993747,-0.2540000000000547,-0.07882352941170159,0.1376470588236508,0.6388235294118667
8.899000000000008,0.6959999999998672,-0.1780000000001094,-0.3540000000000547,0.1711764705883747,0.4252941176471783,0.7823529411764956
8.919000000000008,0.21599999999982805,-0.41800000000007037,-0.5140000000000157,0.30500000000002053,0.44874999999996407,0.7912499999999949
8.939000000000007,-0.14800000000007035,-0.5660000000000235,-0.4219999999998906,0.08235294117642024,-0.01941176470601014,0.7352941176470278
8.959000000000007,-0.3100000000000604,-0.5819999999999759,-0.20399999999998186,-0.004999999999941711,-0.31999999999998335,0.6249999999999417
8.979000000000008,-0.40200000000000785,-0.45799999999991403,-0.21200000000008598,0.2647058823531111,-0.2005882352940254,0.4164705882351873
8.999000000000008,-0.3959999999999062,-0.1539999999998593,-0.422000000000086,0.6635294117648478,0.0617647058824605,0.1447058823528379
9.019000000000007,-0.1999999999999609,0.20600000000014068,-0.6560000000001016,0.9112500000000604,0.3162500000000765,-0.11500000000008051
9.039000000000009,-0.05399999999993748,0.47800000000007037,-0.8220000000000077,0.8029411764704456,0.3241176470587744,-0.2517647058823677
9.059000000000008,0.07000000000003907,0.6440000000000548,-0.8119999999999687,0.46249999999985764,0.24500000000003164,-0.26749999999997365
9.079000000000008,0.06399999999997656,0.7640000000000157,-0.6899999999998827,0.19411764705875556,0.3841176470589206,-0.2017647058823238
9.099000000000007,0.08,0.7859999999999844,-0.2799999999998046,0.06823529411761264,0.5935294117647747,-0.13117647058820947
9.119000000000007,0.015555555555541521,0.7188888888888538,0.24000000000018948,-0.030000000000032202,0.6937500000000201,-0.06624999999997988
9.139000000000008,0.018000000000031262,0.6119999999999687,0.7000000000000782,-0.13588235294122564,0.5776470588234262,-0.02882352941175487
9.159000000000008,0.06399999999997656,0.5459999999999844,0.6579999999998358,-0.257500000000058,0.324999999999884,-0.015000000000010547
9.179000000000007,-0.08200000000002913,0.53,0.1829999999998616,-0.40117647058829203,0.06588235294108918,-0.039411764705891084
9.199000000000009,-0.11666666666669825,0.5466666666666983,-0.12444444444456024,-0.5605882352941873,-0.11117647058829006,-0.05
9.219000000000008,-0.19600000000001705,0.6340000000000682,-0.2189999999999403,-0.7325000000000719,-0.15875000000000514,-0.04124999999999487
9.239000000000008,-0.15999999999992717,0.791000000000051,0.01200000000010197,-0.9938709677419676,-0.1912903225806559,-0.05161290322581986
9.259000000000007,-0.003000000000007283,0.9060000000000146,0.21800000000004371,-1.0712903225806742,-0.21709677419355808,-0.08387096774194759
9.279000000000007,0.03400000000005826,0.848999999999949,0.28,-1.1650000000000391,-0.20499999999998225,-0.15500000000003908
9.299000000000008,0.12100000000006342,0.7419999999999456,0.23199999999994564,-1.1949999999999783,-0.14874999999997293,-0.27250000000005414
9.319000000000008,0.22799999999997086,0.6149999999999636,0.07999999999992717,-1.1362499999999742,0.05375000000010785,-0.42375000000006674
9.339000000000008,0.14399999999998542,0.5579999999999709,-0.0039999999999854345,-1.089411764705795,0.355882352941225,-0.37941176470579496
9.359000000000009,0.08599999999992752,0.4559999999999275,0.09400000000007247,-0.8149999999997786,0.3549999999997996,-0.17249999999992088
9.379000000000008,-0.07400000000007248,0.31799999999996376,0.27400000000007246,-0.18941176470556187,-0.22647058823560007,0.08588235294132698
9.399000000000008,-0.20900000000002186,0.29,0.4560000000000874,0.761764705882816,-0.7411764705883747,0.5088235294119638
9.419000000000008,-0.22600000000001458,0.29600000000001453,0.6680000000000437,1.7812500000004055,-0.5599999999998357,0.9212500000001591
9.439000000000007,-0.23200000000002913,0.4100000000000728,0.6429999999999345,2.188823529411757,0.050000000000197484,1.1941176470588506
9.459000000000009,-0.3420000000000363,0.6110000000000634,0.4619999999999456,2.1399999999999366,0.5900000000001266,1.2399999999999578
9.479000000000008,-0.421000000000051,0.751000000000051,0.38099999999997813,1.9935294117646476,0.7088235294117016,1.1141176470587555
9.499000000000008,-0.662000000000102,0.861000000000051,0.27799999999989805,1.8135294117646283,0.3682352941174663,0.9299999999999269
9.519000000000009,-1.13600000000029,1.0040000000000724,-0.07500000000013589,1.4787499999998408,-0.13000000000020542,0.7474999999999281
9.539000000000009,-1.795000000000317,1.1810000000000633,-0.2009999999999728,1.0929411764704458,-0.4035294117647354,0.6270588235293871
9.559000000000008,-2.6120000000004606,1.3250000000000428,-0.18700000000007674,0.7588235294116337,-0.45294117647057314,0.5776470588235243
9.579000000000008,-3.974000000000641,1.369000000000022,-0.4260000000000874,0.4637499999998825,-0.39937499999996257,0.5743750000000053
9.599000000000007,-5.661000000000561,1.4580000000000437,-0.5860000000000145,0.17823529411753952,-0.2629411764705237,0.5994117647058952
9.619000000000009,-7.143000000000553,1.5520000000000362,-0.6609999999999728,-0.10764705882365183,-0.045294117646956816,0.6347058823529564
9.639000000000008,-7.972000000000034,1.6030000000000086,-0.4409999999998039,-0.37176470588245125,0.1752941176471031,0.6388235294117549
9.659000000000008,-7.5599999999996355,1.5809999999999782,-0.0009999999999053197,-0.6023529411765569,0.2623529411764754,0.6011764705881969
9.67900000000001,-6.488999999999393,1.6070000000000815,0.06599999999992752,-0.7925000000000642,0.25249999999997863,0.4874999999999359
9.699000000000009,-4.709999999998822,1.7810000000000634,-0.10800000000005436,-0.8988235294117946,0.2170588235294018,0.33588235294111174
9.719000000000008,-0.9919999999975614,1.762999999999838,0.022000000000204634,-0.9112499999999949,0.22750000000001028,0.2112499999999538
9.739000000000008,5.989000000002935,1.0549999999996722,0.18599999999986888,-0.8782352941176325,0.2582352941176325,0.12470588235289748
9.759000000000007,12.489000000001333,0.5209999999999781,-0.9630000000007355,-0.8476470588235254,0.20882352941172877,0.01882352941172875
9.779000000000009,15.092000000000308,-0.1590000000010237,-2.7290000000006613,-0.8356249999999946,0.10499999999995727,-0.0806250000000374
9.799000000000008,14.904000000000163,-3.8560000000025547,-2.7499999999985505,-0.7911764705882054,0.034117647058803616,-0.1329411764705982
9.819000000000008,16.615000000001057,-9.025000000001128,0.41900000000024035,-0.613529411764609,-0.08705882352947808,-0.11529411764704352
9.83900000000001,19.150000000000997,-9.875999999999564,-1.4750000000014947,-0.5470967741935294,-0.1264516129032353,-0.08806451612901962
9.859000000000009,20.53999999999991,-9.047999999999693,-3.681000000000426,-0.49749999999996586,-0.13624999999999432,-0.04749999999996586
9.879000000000008,20.292999999999648,-8.241999999999402,-3.833999999999529,-0.3776470588234554,-0.041764705882273656,0.06647058823536284
9.899000000000008,18.12099999999852,-6.64699999999941,-2.0909999999990316,-0.2924242424242248,0.05545454545456807,0.1357575757575858
9.919000000000008,13.867999999998368,-5.174999999999526,0.7860000000010341,-0.2499999999999624,0.1100000000000627,0.16
9.939000000000009,9.07090909090711,-3.9072727272723067,2.8881818181820322,-0.15117647058820857,0.27764705882358287,0.15470588235292515
9.959000000000009,3.947999999997971,-2.967999999999591,2.2779999999993774,-0.08272727272723236,0.39090909090913667,0.11363636363633942
9.979000000000008,-1.476000000003189,-1.697999999999292,0.6459999999991388,0.008181818181853151,0.49393939393943365,0.0590909090908881
9.99900000000001,-10.143333333338495,0.02666666666754497,-1.2033333333340537,0.09352941176474375,0.5605882352941393,0.00941176470586072
10.019000000000009,-19.570000000002004,1.6740000000004773,0.26600000000297563,0.17000000000003135,0.5900000000000365,-0.009999999999984327
10.039000000000009,-20.97599999999897,1.599999999999659,7.736000000001483,0.24411764705886485,0.6723529411765068,0.03588235294122294
10.059000000000008,-15.363999999997237,1.6260000000002899,6.173999999997408,0.3625000000000641,0.7412500000000137,0.15875000000005954
10.079000000000008,-9.711999999998108,1.8499999999999217,1.2119999999989681,0.5205882352941685,0.7482352941176386,0.3105882352941685
10.099000000000009,-6.429999999999531,2.066000000000247,-0.086000000000162,0.6311764705882785,0.6482352941175822,0.42117647058827856
10.119000000000009,-6.436000000000204,2.3139999999998806,-0.16999999999982945,0.6699999999999792,0.3699999999998537,0.48
10.139000000000008,-6.385999999999863,1.6019999999994288,1.0580000000009122,0.6194117647058514,0.0494117647057636,0.47470588235292566
10.15900000000001,-6.500000000000361,-0.1320000000010097,3.2740000000007834,0.5437499999999601,-0.18125000000006258,0.42374999999996016
10.17900000000001,-7.742000000000793,-1.7200000000003837,2.8999999999988915,0.45789473684206905,-0.26052631578948277,0.33263157894732764
10.199000000000009,-9.640000000000683,-1.9139999999999657,0.18599999999918143,0.355294117647009,-0.22470588235290634,0.21882352941170993
10.219000000000008,-10.866000000000374,-1.7439999999997955,-0.3759999999995651,0.22117647058817408,-0.12588235294113057,0.07294117647052191
10.239000000000008,-11.504000000000094,-0.6239999999993264,1.4800000000010658,0.041176470588162456,-0.014705882352897475,-0.07529411764710253
10.25900000000001,-11.363999999999796,0.8340000000005201,3.3960000000003325,-0.13058823529418317,0.08647058823532941,-0.16941176470590252
10.279000000000009,-10.92599999999982,1.610000000000128,3.051999999999386,-0.27375000000005345,0.15312500000001605,-0.19562499999999466
10.299000000000008,-10.588000000000017,1.6219999999998977,1.511999999999386,-0.3752941176470937,0.17,-0.15117647058820544
10.31900000000001,-10.99200000000034,1.345999999999835,0.43399999999975275,-0.4262500000000187,0.16124999999999376,-0.0512499999999438
10.33900000000001,-11.64800000000023,1.001999999999855,0.7060000000005031,-0.44,0.1376470588235058,0.07588235294123548
10.359000000000009,-11.879999999999871,0.7199999999999147,2.160000000000597,-0.44,0.0835294117646706,0.18882352941180502
10.379000000000008,-10.52199999999896,0.6280000000000171,2.613999999999582,-0.4312499999999893,-0.0006250000000374047,0.2675000000000214
10.399000000000008,-8.429999999999403,0.6559999999999915,0.94999999999919,-0.38764705882350453,-0.13058823529418734,0.30941176470589726
10.41900000000001,-6.053999999997756,0.4079999999997314,-0.08599999999984652,-0.3745161290322612,-0.18903225806452242,0.3109677419354776
10.439000000000009,1.9480000000052184,-0.6300000000007246,1.3840000000011168,-0.37823529411764173,-0.19117647058820855,0.29647058823528344
10.459000000000009,15.816000000005406,-2.264000000000435,3.9400000000006394,-0.3624999999999886,-0.11249999999994309,0.27249999999998864
10.47900000000001,21.929999999999794,-2.4679999999997113,2.541999999997558,-0.3323529411764534,0.00294117647063967,0.24823529411763562
10.49900000000001,21.20799999999906,-2.1880000000000193,-2.4940000000023597,-0.3352941176470697,0.02470588235293036,0.22470588235293035
10.519000000000009,16.573999999997024,-2.1279999999999317,-6.81200000000139,-0.4000000000000418,-0.06,0.22000000000003134
10.539000000000009,11.337999999998994,-2.418000000000273,-8.459999999999916,-0.4790909090909064,-0.0563636363636256,0.2827272727272808
10.559000000000008,9.82499999999956,-2.659999999999856,-7.264999999999144,-0.4730303030303007,-0.032121212121202794,0.3009090909090979
10.57900000000001,9.605000000000302,-2.0299999999996095,-5.259999999999101,-0.4170588235293642,-0.13764705882363512,0.3394117647059088
10.599000000000009,10.17800000000006,-1.3479999999997185,-3.7739999999993263,-0.32647058823525626,-0.3347058823530223,0.3676470588235348
10.619000000000009,9.539999999999488,-0.7549999999998321,-1.8149999999991926,-0.2227272727272228,-0.4233333333333638,0.3409090909090743
10.63900000000001,7.51999999999869,-0.590000000000039,-0.22499999999948217,-0.1229411764705634,-0.47470588235292255,0.2888235294116902
10.65900000000001,4.779999999998729,-0.7900000000001173,0.37500000000010747,-0.10875000000002845,-0.40499999999993175,0.13374999999991466
10.67900000000001,2.604999999999072,-0.8749999999999902,0.2799999999998046,-0.21058823529418108,-0.20058823529400135,-0.02470588235299933
10.699000000000009,0.6049999999992086,-0.814999999999944,-0.06500000000011992,-0.31352941176474375,0.13470588235311426,-0.11588235294120892
10.719000000000008,-1.2650000000007435,-0.49499999999980016,-0.27,-0.2829411764705655,0.5111764705883809,-0.18647058823532142
10.73900000000001,-2.9150000000006546,0.06500000000028332,-0.18999999999998046,-0.18823529411752907,0.7811764705882471,-0.23176470588237066
10.75900000000001,-3.825000000000225,0.6050000000002247,-0.43000000000025407,0.14352941176501333,0.6305882352937549,-0.3517647058825495
10.779000000000009,-4.020000000000017,0.9850000000001333,-0.9200000000002132,0.8593750000003045,-0.4056250000005931,-0.96937500000039
10.79900000000001,-4.140000000000059,1.2500000000000977,-1.295000000000088,1.4452941176473058,-1.211176470588404,-1.7811764705886088
10.81900000000001,-4.159999999999902,1.3700000000000587,-1.1149999999997167,1.5982352941176532,-0.9888235294115251,-2.214117647058983
10.83900000000001,-3.689999999999707,1.3849999999999512,-0.25999999999949197,0.7929411764701162,-0.91,-2.0970588235287804
10.859000000000009,-3.1049999999997246,1.2199999999999112,0.6950000000003109,0.016470588235243715,-0.9641176470589394,-0.8547058823524373
10.879000000000008,-2.4349999999997363,0.9349999999998482,0.9049999999998801,-0.016249999999946564,-1.2581250000001443,0.05437500000017631
10.89900000000001,-1.8249999999996775,0.624999999999873,0.41499999999973625,-0.011764705882401125,-1.2676470588233968,0.14941176470579803
10.91900000000001,-1.099999999999668,0.3699999999999023,0.08999999999992184,-0.1470588235294805,-0.9347058823527773,-0.20470588235313672
10.939000000000009,-0.5849999999998312,0.23499999999997334,-0.05500000000004441,-0.1499999999998279,-0.5299999999998612,-0.6800000000001888
10.95900000000001,-0.41000000000001957,0.23000000000003906,-0.12,0.24000000000020688,-0.25882352941170994,-1.0788235294119168
10.97900000000001,-0.5400000000000782,0.3500000000000586,0.08500000000022472,0.5087500000000129,-0.2643750000001097,-1.3006250000000452
10.99900000000001,-0.40999999999982417,0.41,0.7200000000003517,0.4488235294117059,-0.5541176470589839,-1.171764705882214
11.019000000000009,-0.20499999999993163,0.41,1.1500000000000585,0.41,-0.6929411764706086,-0.6435294117644356
11.039000000000009,0.09500000000013589,0.359999999999952,1.0149999999998642,0.8700000000001332,0.1700000000001832,0.7000000000002164
11.05900000000001,0.3700000000001563,0.27499999999997066,0.5749999999997948,1.1151612903225938,0.49225806451610943,1.1209677419355624
11.07900000000001,0.5700000000000196,0.2299999999999609,0.25999999999992185,1.1409677419354958,0.4535483870967561,1.2758064516129757
11.099000000000009,0.4949999999999316,0.15499999999995115,0.19500000000002932,0.9664705882351643,0.2488235294116295,1.375882352941209
11.11900000000001,0.29999999999988275,0.034999999999931614,0.2750000000000684,0.2099999999999467,0.4900000000001505,1.1399999999999404
11.13900000000001,0.10499999999995116,-0.10000000000005863,0.43000000000005867,0.10999999999995089,0.7723529411766092,1.028235294117592
11.15900000000001,0.06,-0.16500000000000978,0.4599999999999609,0.03249999999998862,1.078750000000165,0.7849999999997497
11.17900000000001,0.017777777777735673,-0.1222222222221696,0.2255555555553766,-0.010000000000026644,0.9699999999997424,0.4049999999999067
11.199000000000009,-0.02500000000003997,0.02000000000006395,-0.09500000000013589,0.0037500000000378897,0.2924999999996644,0.21874999999992964
11.21900000000001,-0.16600000000005968,0.1880000000000796,-0.4440000000001393,0.17823529411775768,-0.19529411764724935,0.12882352941173397
11.23900000000001,-0.254000000000037,0.3740000000000831,-0.604000000000037,0.33823529411762937,-0.2841176470587645,0.10882352941175291
11.25900000000001,-0.31400000000003697,0.5400000000000462,-0.6520000000000185,0.2699999999999143,-0.1476470588234387,0.08764705882352437
11.27900000000001,-0.38000000000005507,0.6500000000000551,-0.7020000000000219,0.06176470588223501,0.06823529411776501,0.0676470588235108
11.29900000000001,-0.3939999999999901,0.6960000000000099,-0.6439999999999403,-0.16250000000011738,0.24875000000007175,0.031249999999980432
11.31900000000001,-0.31818181818178354,0.6227272727272294,-0.45090909090901293,-0.3864705882354109,0.34764705882357244,-0.0047058823529596144
11.33900000000001,-0.28799999999998155,0.45999999999990765,-0.2439999999998984,-0.6300000000000888,0.4500000000000777,-0.04000000000000555
11.359000000000009,-0.3200000000000462,0.25999999999990764,-0.015999999999916865,-0.808823529411805,0.6488235294118907,-0.061764705882378146
11.37900000000001,-0.34199999999996694,0.04799999999986783,0.1360000000000661,-0.8831250000000194,0.9931250000002259,-0.10437500000000646
11.39900000000001,-0.2259999999998707,-0.21000000000013858,0.23400000000003696,-0.8352941176469986,1.241764705882401,-0.03235294117639831
11.41900000000001,0.19600000000024018,-0.4640000000000831,0.24399999999999075,-0.6188235294116484,0.9241176470586014,0.059411764705914076
11.43900000000001,0.9080000000004737,-0.5980000000000331,0.23,-0.25999999999964696,0.08999999999950706,0.17000000000018653
11.45900000000001,1.432000000000077,-0.6019999999999669,0.0739999999998238,0.385294117647357,-0.7017647058824869,0.4829411764706734
11.47900000000001,1.2959999999998706,-0.45999999999990765,-0.3700000000002309,0.9370588235296602,-0.8205882352940483,0.5858823529411706
11.49900000000001,0.7639999999996674,-0.25999999999990764,-0.8800000000002309,1.3400000000001298,-0.5062499999997889,0.5925000000000108
11.519000000000009,-0.004000000000360243,-0.05399999999989839,-1.3220000000002032,1.4711764705882608,0.07647058823556452,0.6247058823529564
11.53900000000001,-0.5740000000002092,0.17800000000014318,-1.8120000000002974,1.3999999999999733,0.7200000000002664,0.6899999999999866
11.55900000000001,-0.7620000000000646,0.35000000000004616,-2.1380000000000736,1.3223529411763733,1.1882352941178236,0.6605882352940934
11.57900000000001,-0.8,0.444000000000037,-2.115999999999917,1.027058823529169,1.3194117647057553,0.6052941176470241
11.59900000000001,-0.9680000000000881,0.5760000000000661,-1.8079999999997576,0.35499999999955645,0.5774999999993607,0.5137499999999413
11.61900000000001,-1.0820000000000771,0.6540000000000441,-1.2899999999996696,-0.20470588235316858,-0.30882352941215196,0.4058823529411212
11.63900000000001,-1.1399999999999504,0.6399999999999503,-0.581999999999622,-0.23999999999999289,-0.2399999999999609,0.3499999999999751
11.65900000000001,-0.8619999999998338,0.4859999999999169,0.12000000000027711,-0.22666666666666035,-0.16666666666663194,0.30333333333331125
11.67900000000001,-0.6079999999999354,0.31799999999993533,0.48400000000008314,-0.2729411764706358,-0.16529411764709054,0.20941176470581893
11.69900000000001,-0.32399999999965856,0.0899999999998348,0.6320000000000771,-0.4400000000001097,-0.3505882352942532,0.014705882352818556
11.71900000000001,0.7680000000006267,-0.31000000000019895,0.7319999999999701,-0.6300000000000564,-0.5700000000000187,-0.22000000000009404
11.73900000000001,1.4320000000000646,-0.5980000000000739,0.34799999999970443,-0.7350000000000453,-0.5774999999999321,-0.40300000000009967
11.759000000000011,0.9459999999995155,-0.692000000000022,-0.40400000000042957,-0.8300000000000364,-0.4442857142856935,-0.601428571428613
11.77900000000001,-0.10400000000059476,-0.675999999999956,-0.9520000000001873,-0.9050000000000844,-0.4066666666666479,-0.6733333333333521
11.79900000000001,-0.8820000000002188,-0.5699999999999503,-0.9579999999998806,-1.0175000000000392,-0.3649999999999739,-0.6524999999999609
11.81900000000001,-1.0199999999999538,-0.4319999999999261,-0.4919999999996951,-1.04,-0.3252941176470404,-0.5147058823528551
11.83900000000001,-0.7059999999997782,-0.22799999999988912,0.2660000000003787,-1.0099999999999723,-0.3400000000000389,-0.2999999999998723
11.85900000000001,0.010000000000432774,0.0681818181819854,1.150000000000433,-0.9388235294117099,-0.42411764705886,-0.006470588235129832
11.87900000000001,0.9266666666671404,0.5033333333336056,2.1533333333339253,-0.8164705882352135,-0.46588235294117025,0.2988235294119137
11.89900000000001,1.4000000000001342,0.9300000000002013,2.5099999999998994,-0.6517647058822672,-0.43647058823527124,0.5282352941177327
11.919000000000011,1.2145454545451988,1.1609090909091695,1.7072727272721666,-0.4843749999999143,-0.40374999999998684,0.6062500000000132
11.93900000000001,0.7059999999997695,1.274000000000021,0.7139999999996017,-0.3699999999999334,-0.3699999999999467,0.5399999999999068
11.95900000000001,0.20399999999970655,1.231999999999958,0.11799999999972749,-0.2535294117646633,-0.26647058823523323,0.36235294117637323
11.97900000000001,-0.21000000000020963,1.0809999999999267,-0.29500000000015725,-0.17941176470585346,-0.15294117647053623,0.16999999999990179
11.99900000000001,-0.4070000000000087,0.9579999999999478,-0.36499999999995647,-0.13124999999998377,-0.06874999999997294,-0.030000000000086596
12.01900000000001,-0.4129999999999895,0.9340000000000209,-0.1549999999998428,-0.08705882352938718,-0.03352941176469359,-0.17235294117653205
12.03900000000001,-0.34599999999997905,1.0290000000000734,0.2920000000002725,-0.01999999999994671,-0.029999999999993338,-0.1999999999999667
12.05900000000001,-0.4130000000000943,1.1930000000000942,0.7740000000002305,0.07882352941181339,-0.024705882352953346,-0.1241176470587566
12.079000000000011,-0.5890000000000771,1.393000000000099,1.1930000000002092,0.1647058823529821,-0.05235294117649106,0.021764705882455278
12.09900000000001,-0.8540000000002306,1.5830000000000943,1.3770000000000104,0.21875000000001957,-0.08875000000001958,0.2162500000001109
12.11900000000001,-1.6510000000005554,1.678000000000042,1.170999999999822,0.2382352941176532,-0.0917647058823468,0.4117647058824513
12.13900000000001,-3.3240000000010688,1.7650000000000525,0.5609999999996123,0.23999999999999333,-0.08000000000001999,0.5500000000000134
12.15900000000001,-5.486000000000906,1.8029999999999908,-0.07400000000020325,0.2205882352940943,-0.1288235294118114,0.5605882352940943
12.179000000000011,-6.796000000000503,1.6809999999999266,-0.2570000000000105,0.18588235294117025,-0.2352941176471271,0.5011764705881918
12.19900000000001,-7.466000000000293,1.61,-0.2270000000000105,0.16749999999998696,-0.34375000000004563,0.3974999999999348
12.21900000000001,-7.713999999999916,1.6650000000000524,-0.08999999999989519,0.019999999999895518,-0.2629411764705083,0.23647058823520192
12.239000000000011,-6.8549999999992846,1.754000000000022,0.28200000000028635,-0.053870967741965356,-0.14129032258057794,0.1880645161290173
12.259000000000011,-4.9689999999988155,1.7079999999999371,1.0160000000003981,-0.11625000000004759,1.0880185641326534e-13,0.1587499999999796
12.27900000000001,-1.565999999997778,1.360999999999717,1.5250000000001571,-0.1952941176470968,0.17647058823537642,0.1341176470588172
12.29900000000001,4.037000000003155,0.5269999999994864,1.3439999999997065,-0.25058823529414026,0.30647058823535067,0.11470588235292986
12.31900000000001,8.581000000001918,-0.4650000000005765,0.008999999999025343,-0.2799999999999844,0.3800000000000052,0.11000000000000522
12.339000000000011,11.419000000001017,-2.0000000000009432,-1.8970000000010585,-0.23687499999995287,0.3674999999999192,0.13312500000004712
12.35900000000001,12.178000000000251,-4.232000000001321,-4.06800000000109,-0.17588235294117027,0.2617647058823405,0.20647058823531894
12.37900000000001,14.237000000002002,-6.766000000001342,-4.20899999999913,-0.1641176470588172,0.23823529411763442,0.2535294117647312
12.399000000000012,19.70800000000311,-9.548000000001641,0.35900000000363996,-0.17529411764707223,0.3752941176471861,0.3923529411765778
12.419000000000011,20.86399999999981,-10.68400000000065,0.81399999999782,-0.23000000000007212,0.5400000000000126,0.41999999999993415
12.43900000000001,20.228999999999445,-12.081000000000556,-3.4420000000016353,-0.3652941176471324,0.5635294117647187,0.296470588235227
12.45900000000001,17.464999999998167,-11.209999999999056,-5.109000000000387,-0.49000000000005445,0.5912500000000204,0.1574999999999048
12.47900000000001,14.117999999998366,-9.73199999999912,-4.627999999999308,-0.5517647058823644,0.674705882353004,-0.0005882352941862373
12.499000000000011,9.806999999997077,-7.154999999998271,-3.196999999999277,-0.4758823529411055,0.8041176470588944,-0.1341176470588945
12.51900000000001,2.6889999999957768,-3.293999999997925,-1.515999999999036,-0.2799999999998872,0.9199999999999938,-0.26999999999999375
12.53900000000001,-7.1754545454596945,0.4972727272743902,0.06636363636420006,-0.0024999999996500044,0.8518749999997913,-0.26937500000003367
12.559000000000012,-20.182222222230617,3.9055555555577133,1.0755555555571215,0.8358823529418655,0.31999999999953604,-0.4376470588237409
12.579000000000011,-23.23599999999844,5.346000000000023,11.90600000000694,1.8650000000004634,-0.3900000000003304,-0.8750000000002718
12.59900000000001,-15.761111111106022,4.601111111110451,8.237777777772152,2.481250000000189,-0.975000000000287,-1.405000000000287
12.61900000000001,-7.503999999996051,3.185999999999473,1.7559999999983287,2.4747058823528554,-1.2141176470588788,-1.6605882352941852
12.63900000000001,-3.0479999999992637,3.4180000000002586,0.7839999999996816,1.5799999999991663,-1.1200000000002195,-1.219999999999649
12.659000000000011,-4.718000000001068,2.9719999999994022,0.04599999999978896,0.10187499999946828,-1.5225000000001885,-0.569999999999677
12.679000000000011,-5.432000000000633,1.5719999999991674,0.952000000000809,-0.5894117647059569,-1.6841176470587242,0.01764705882382739
12.69900000000001,-8.24800000000175,0.08199999999929375,3.6200000000016415,-0.6482352941176344,-1.4958823529410752,0.44705882352957005
12.719000000000012,-11.490000000001642,-0.4179999999999531,5.067999999999894,-0.40437499999977666,-1.1212499999997074,0.468749999999923
12.739000000000011,-12.882000000000339,0.4960000000006682,2.2079999999979014,0.16000000000027587,-0.6599999999999122,0.019999999999673987
12.759000000000011,-12.015999999999085,1.5400000000005862,0.3559999999994959,0.6862500000003096,-0.4956249999999125,-0.5918750000003298
12.77900000000001,-10.273999999999234,2.2660000000002682,0.400000000000199,1.088823529411808,-0.19647058823500235,-1.14647058823553
12.79900000000001,-9.281999999999643,2.714000000000179,1.4020000000006365,0.8436363636360676,-0.36090909090954654,-1.3381818181817853
12.819000000000011,-9.006000000000023,2.5279999999997185,2.3060000000003162,0.6728000000002471,-0.973200000000119,-1.1527999999997895
12.839000000000011,-9.724000000000505,1.933999999999625,1.9479999999996014,1.14588235294156,-1.0688235294114705,-0.7482352941173146
12.85900000000001,-10.17200000000014,1.2079999999996618,1.2979999999997116,1.6324999999999863,-0.38249999999944234,-0.18124999999974842
12.879000000000012,-10.255999999999965,0.7179999999997773,1.0279999999998946,1.0964705882346377,0.44764705882392775,0.17941176470604464
12.899000000000012,-9.733999999999508,0.5019999999999296,0.9539999999999765,0.05705882352882219,0.6776470588235362,0.3158823529412167
12.919000000000011,-9.021999999999696,0.6460000000001407,1.1380000000001875,-0.4199999999999122,0.710000000000094,0.3299999999999749
12.93900000000001,-8.12999999999928,0.6759999999999176,1.5840000000002368,-0.2818181818181884,0.8581818181818116,0.27909090909086975
12.95900000000001,-2.7339999999960507,-0.3560000000007163,2.646000000000666,-0.29393939393940044,0.8460606060605995,0.2063636363635974
12.979000000000012,7.294000000005838,-1.1880000000000703,2.371999999998992,-0.3882352941177485,0.8517647058823664,-0.03000000000022987
12.999000000000011,17.320000000005802,-1.8440000000005627,1.4419999999997537,-0.5952941176471814,0.806470588235249,-0.24647058823535867
13.01900000000001,22.606000000001153,-2.482000000000247,-0.6480000000016587,-0.8145454545455737,0.6348484848483789,-0.24575757575755922
13.039000000000012,22.18399999999945,-3.31400000000068,-3.7460000000014304,-1.008823529411801,0.44529411764695725,-0.20411764705875826
13.059000000000012,18.33799999999702,-3.8820000000001054,-5.620000000000938,-1.0612500000000205,0.2812499999999116,-0.0962499999999388
13.079000000000011,13.711999999997467,-3.93,-5.987999999999894,-1.0749999999999948,0.13499999999993073,-0.004999999999962694
13.09900000000001,9.91799999999831,-3.54399999999967,-5.1399999999993815,-1.0288235294117205,-0.006470588235376412,0.035882352941182805
13.11900000000001,7.103999999998588,-2.603999999999433,-3.8439999999993835,-0.8781249999999011,-0.10875000000003954,-0.0006250000000329603
13.139000000000012,5.037999999999191,-1.5439999999993903,-2.5479999999992495,-0.6699999999998679,-0.1299999999999767,-0.11000000000009326
13.159000000000011,3.9299999999991204,-0.46999999999935516,-1.9959999999998477,-0.46235294117636044,-0.06941176470579286,-0.25823529411772966
13.179000000000011,2.331999999999285,0.3880000000004221,-1.9280000000000117,-0.2576470588234053,0.16176470588255157,-0.38294117647063786
13.199000000000012,1.0339999999992733,1.028000000000305,-2.0060000000000233,0.09529411764735385,0.4500000000001254,-0.35352941176461
13.219000000000012,0.13399999999950757,1.3020000000001055,-1.7179999999997186,0.8206250000005314,0.21124999999970734,-0.08062499999979203
13.239000000000011,-0.6490000000004588,1.4220000000000894,-1.1099999999996644,1.5100000000002696,-0.6800000000004891,0.17000000000013168
13.259000000000011,-1.6620000000005373,1.6210000000001006,-0.4829999999996307,1.9568750000000605,-1.424374999999872,0.428750000000175
13.27900000000001,-2.567777777778355,1.7800000000001106,0.014444444444726923,1.572941176469899,-0.532941176469477,0.7635294117648921
13.299000000000012,-3.176000000000159,1.907000000000034,0.41100000000021597,0.40235294117582154,0.5082352941176324,0.975294117647103
13.319000000000011,-3.4490909090910886,1.889090909090856,0.9600000000004651,-0.10625000000013865,-0.044375000000516085,0.837499999999846
13.339000000000011,-3.300999999999765,1.625999999999821,2.8340000000010743,0.15000000000023825,-0.3999999999998746,0.3699999999997429
13.359000000000012,-2.846999999999909,1.2179999999997666,3.244999999999676,0.5937500000002666,-0.10062499999958444,-0.08875000000020386
13.379000000000012,-3.0390000000000112,0.9909999999998749,1.4839999999989313,0.9770588235296003,0.4864705882355697,-0.35764705882363096
13.399000000000012,-2.589999999999664,0.8339999999999552,0.35199999999952997,1.029999999999885,0.557058823529236,-0.5047058823530156
13.419000000000011,-2.190999999999765,0.8709999999999888,0.2640000000001791,0.5374999999996573,-0.14312500000048117,-0.6393750000000725
13.43900000000001,-1.1769999999993623,0.5329999999997426,1.5240000000008505,0.04999999999986207,-0.5899999999999687,-0.6799999999999373
13.459000000000012,-0.2359999999995907,0.11799999999979535,2.660000000000455,-0.1760000000000249,-0.5480000000000332,-0.572999999999971
13.479000000000012,0.16900000000023502,-0.07600000000004477,2.5309999999997648,-0.2160000000000225,-0.6013333333333634,-0.5263333333333071
13.499000000000011,0.7680000000003582,0.027000000000033574,1.9579999999996867,-0.2682352941176793,-0.6505882352941434,-0.4335294117646413
13.519000000000013,1.2700000000002594,-0.07600000000005187,1.352999999999572,-0.2900000000000073,-0.5999999999998903,-0.3199999999999415
13.539000000000012,1.2499999999998703,-0.2410000000001167,0.9069999999997795,-0.3052941176470806,-0.4164705882351563,-0.23294117647055923
13.559000000000012,0.8919999999997539,-0.4870000000001455,0.8940000000000672,-0.35250000000004084,-0.1962499999998844,-0.1924999999999864
13.579000000000011,0.29999999999966426,-0.655000000000056,1.0980000000001344,-0.39500000000000535,0.025000000000122577,-0.06999999999988275
13.59900000000001,-0.5500000000005596,-0.6439999999999553,1.1239999999999553,-0.3352941176469892,0.1458823529411828,0.16941176470602165
13.619000000000012,-1.4030000000004796,-0.41099999999985737,0.8809999999998573,-0.12749999999984596,0.08499999999993839,0.4468750000001771
13.639000000000012,-1.8310000000001008,-0.1899999999998881,1.0220000000002014,0.1800000000002048,-0.030000000000014626,0.6900000000001096
13.659000000000011,-0.5019999999988585,-0.19500000000005596,1.7300000000004476,0.5106250000001817,-0.02374999999990577,0.8512500000000404
13.679000000000013,1.3960000000009596,-0.299000000000013,1.7419999999997147,0.8205882352942772,0.17235294117661565,0.8835294117646769
13.699000000000012,2.0230000000002204,-0.16099999999985737,0.7539999999992997,1.02647058823539,0.3958823529413092,0.7717647058822423
13.719000000000012,2.0880000000000223,0.07200000000008953,-0.019000000000346906,1.1206250000000384,0.5350000000000616,0.5312499999998306
13.739000000000011,1.471999999999418,0.18400000000006717,-0.19499999999994405,1.1199999999999688,0.5499999999999875,0.23999999999984953
13.759000000000011,-0.2290000000010184,0.14699999999992167,0.4800000000004476,1.054117647058766,0.53,-0.033529411764827335
13.779000000000012,-1.8150000000009725,0.06399999999994813,-0.7810000000016729,0.9237499999998813,0.5600000000000633,-0.22000000000006328
13.799000000000012,-2.422999999999852,-0.5490000000005798,-16.640000000013075,0.6947058823527715,0.6805882352942061,-0.25235294117644846
13.819000000000011,-1.7230000000001902,-0.42899999999956356,-6.422999999988106,0.3323529411762361,0.8752941176471861,-0.1099999999998861
13.839000000000013,-2.6250000000001945,0.16600000000031123,-0.9389999999987162,-0.15000000000011868,1.029999999999921,0.1700000000001074
13.859000000000012,-1.8619999999994554,0.5250000000001945,-0.41099999999985737,-0.3409090909092034,0.9027272727271978,0.3427272727273745
13.879000000000012,-1.090999999999534,0.6760000000000456,-0.23699999999992044,-0.31124999999989716,0.6024999999998576,0.4775000000000158
13.899000000000012,-0.17299999999951876,0.6909999999999887,0.006000000000156658,-0.12999999999988507,0.3664705882351521,0.4605882352940838
13.919000000000011,0.09800000000002239,0.7340000000000672,0.4180000000002462,0.05470588235303797,0.0888235294116034,0.3558823529411055
13.939000000000012,-0.07000000000003731,0.8699999999999751,0.9500000000003481,0.19000000000002196,-0.20000000000008047,0.1799999999998976
13.959000000000012,-0.05999999999997739,0.7699999999998757,1.49000000000026,0.21470588235291943,-0.301176470588199,0.02235294117639806
13.979000000000012,-0.0600000000000373,0.5299999999998259,1.8500000000000996,0.1599999999999456,-0.21499999999991842,-0.0750000000000272
13.999000000000013,-0.1500000000001119,0.24999999999983835,1.97,0.06294117647052923,-0.09294117647052924,-0.09411764705881616
14.019000000000013,-0.2900000000001119,-0.030000000000174082,1.929999999999801,-0.010625000000038513,-0.06,-0.0656249999999769
14.039000000000012,-0.5400000000002612,-0.31000000000012434,1.4699999999994404,0.030000000000024868,-0.05,0.040000000000012435
14.059000000000012,-0.9000000000001617,-0.47000000000002484,0.4799999999991793,0.07000000000002249,-0.05,0.06000000000001125
14.079000000000011,-1.1199999999999894,-0.4599999999999787,-1.0100000000021743,0.1376190476190996,-0.05476190476190996,0.06523809523809004
14.099000000000013,-0.8999999999994529,-0.46999999999987563,-7.380000000003407,0.2181250000000399,-0.07125000000001595,0.04312499999997606
14.119000000000012,-0.3000000000004352,-0.15999999999993783,-7.359999999994902,0.24433333333333754,-0.09300000000001261,0.021333333333324926
14.139000000000012,-0.8499999999998756,-0.19000000000006217,-1.1499999999989803,0.25,-0.1135294117647204,0.011764705882360194
14.159000000000013,-0.7199999999999627,-0.23999999999997512,-0.09999999999977618,0.22374999999994463,-0.11874999999997628,0.03125000000002373
14.179000000000013,-0.6799999999999503,-0.23,0.21000000000009947,0.15878787878785253,-0.09090909090907966,0.06212121212122713
14.199000000000012,-0.5999999999999005,-0.21999999999998757,0.3900000000001741,0.11636363636361033,-0.07272727272726158,0.08636363636365124
14.219000000000012,-0.46,-0.1799999999999627,0.6200000000000746,-0.0300000000000512,0.05000000000002926,0.2000000000000439
14.239000000000011,-0.5000000000000959,-0.0999999999999254,0.6599999999999467,-0.10909090909094188,0.08818181818181162,0.2690909090909419
14.259000000000013,-0.6299999999999627,0.040000000000124346,0.4999999999997513,-0.16969696969700754,0.0760606060605985,0.3296969696970075
14.279000000000012,-0.5899999999999254,0.2500000000001368,0.06999999999978862,-0.22941176470591923,0.07,0.3717647058823677
14.299000000000012,-0.28999999999955234,0.35999999999995025,-0.18000000000006217,-0.318823529411825,0.06235294117646389,0.39529411764707223
14.319000000000013,0.450000000000286,0.24999999999993783,-0.38000000000041034,-0.4700000000001024,0.07,0.4100000000000073
14.339000000000013,0.7299999999999129,0.14999999999998756,-1.2000000000007833,-0.6381250000001176,0.07,0.4218750000000078
14.359000000000012,0.5499999999997638,0.1800000000001119,-2.6400000000008705,-0.8135294117648002,0.06176470588233844,0.4423529411764924
14.379000000000012,0.19999999999983836,0.2999999999999627,-3.399999999999453,-0.9605882352942061,0.05,0.4835294117647354
14.399000000000012,0.04000000000018652,0.25,-2.569999999999751,-1.0941176470588974,0.04235294117646389,0.5229411764706083
14.419000000000013,0.2599999999998259,0.29000000000009946,-2.1499999999996393,-1.1399999999999413,-0.030000000000095086,0.5199999999999635
14.439000000000012,-0.02000000000013678,0.4600000000000995,-1.429999999999403,-1.0449999999999373,-0.16562500000002353,0.4624999999999686
14.459000000000012,-0.23000000000007462,0.6900000000001989,-0.45999999999939073,-0.98,-0.15999999999994924,0.4199999999999831
14.479000000000013,-0.32999999999992896,0.9800000000000426,0.53000000000108,-1.0100000000000633,-0.054999999999905076,0.3962499999999921
14.499000000000013,-0.15999999999990053,0.8599999999997016,3.2800000000028597,-1.101176470588287,0.1200000000001254,0.39
14.519000000000013,-0.14999999999993782,0.5500000000000871,6.3199999999984335,-1.1070588235293892,0.3352941176472013,0.35941176470585234
14.539000000000012,0.3200000000006093,0.6199999999999378,2.9299999999978117,-0.9999999999999268,0.5600000000001024,0.2499999999998976
14.559000000000012,1.130000000000087,0.6000000000001616,0.06999999999919176,-0.8841176470587583,0.7211764705883222,0.08705882352931747
14.579000000000013,1.0599999999998508,0.7700000000000249,-0.9600000000001492,-0.7799999999999367,0.861250000000087,-0.0575000000000791
14.599000000000013,0.8489999999998691,0.7759999999999524,-0.9219999999995477,-0.6711764705881615,0.9947058823530224,-0.15529411764710307
14.619000000000012,0.5699999999997619,0.7049999999999405,0.20000000000130916,-0.5152941176469463,1.0858823529412216,-0.20294117647061072
14.639000000000014,0.17399999999978116,0.6179999999999727,2.5960000000013133,-0.23999999999972413,1.08999999999995,-0.23000000000001672
14.659000000000013,-0.08799999999997264,0.6510000000001505,3.507999999999152,0.1641176470591359,1.0017647058822339,-0.264117647058883
14.679000000000013,0.21600000000030944,0.8940000000001667,1.9749999999991072,1.0350000000011073,0.2999999999987977,-0.5362500000004351
14.699000000000012,0.6210000000000119,1.1640000000001665,0.7589999999996311,2.056666666666849,-1.0366666666671476,-1.0933333333335986
14.719000000000012,0.4939999999998096,1.4230000000001546,0.3730000000001547,2.349999999998881,-1.809999999999488,-1.519999999999839
14.739000000000013,0.1909999999998769,1.61,0.9240000000007386,0.3906249999982043,-1.098749999999953,-1.2343749999997256
14.759000000000013,0.028999999999851495,1.5149999999997974,1.9050000000003373,-1.490588235294154,-1.334117647059324,-0.9170588235293538
14.779000000000012,-0.11,1.1919999999997857,2.0539999999996907,-0.7552941176461,-2.0223529411768246,-0.7464705882351392
14.799000000000014,-0.005999999999808511,0.8259999999998084,1.5479999999996992,0.2923529411769896,-2.472352941176726,-0.30058823529375367
14.819000000000013,0.12799999999983588,0.6630000000000411,1.0679999999996992,0.10000000000008778,-1.9199999999998243,0.6399999999999562
14.839000000000013,-0.15100000000028352,0.7910000000001485,0.763999999999919,0.24117647058832456,-1.637647058823351,0.5694117647058378
14.859000000000012,-0.7780000000006903,1.0440000000001666,0.6069999999998452,0.12999999999955703,-0.9262499999989163,0.11499999999914567
14.879000000000012,-2.0520000000008567,1.2920000000001428,0.3089999999997501,-0.60235294117695,0.37117647058878844,-0.8600000000003762
14.899000000000013,-3.5760000000011765,1.5340000000001914,-0.13600000000035561,-0.8030303030302328,0.5263636363634754,-1.3496969696972627
14.919000000000013,-5.265000000001013,1.8560000000002161,-0.5840000000001889,-0.6999999999996928,0.28999999999957576,-1.7799999999997953
14.939000000000012,-6.540000000000476,2.163000000000155,-0.7189999999998691,-0.17764705882309806,-0.355294117647334,-1.388823529411296
14.959000000000014,-7.2070000000002326,2.3379999999999725,-0.47799999999983583,0.5280000000005333,-0.6479999999999719,-0.6329999999994457
14.979000000000013,-7.198999999999576,2.2459999999999454,-0.32600000000008206,1.360000000000633,-0.49999999999974687,0.15625000000049832
14.999000000000013,-6.388999999998892,2.2159999999999456,-0.4129999999999042,1.824705882352897,0.31176470588312005,0.7617647058826185
15.019000000000013,-4.331999999998358,1.9549999999995835,-0.2249999999999405,0.9435294117638661,1.1988235294122147,0.9635294117647584
15.039000000000012,-1.497999999998072,1.2359999999994764,-0.24000000000011903,-0.06352941176530791,0.7941176470583815,0.8388235294116504
15.059000000000013,2.3060000000036385,0.1339999999988237,-0.3249999999999316,-0.10764705882333025,0.5994117647059736,0.6635294117645814
15.079000000000013,7.983000000003597,-1.8770000000018738,-0.44900000000080703,0.09375000000000791,0.69,0.43499999999977856
15.099000000000013,12.29100000000132,-4.632000000001214,-2.353000000001821,-0.04117647058841231,0.6723529411764485,0.08941176470566845
15.119000000000014,14.306000000002408,-5.911000000000561,-4.655999999999398,-0.300588235294297,0.6752941176470759,-0.1447058823530693
15.139000000000014,19.303000000004555,-7.148000000001203,-2.0209999999961834,-0.46000000000001673,0.5799999999998328,-0.1399999999998746
15.159000000000013,24.574000000000602,-8.842000000000985,2.0969999999983178,-0.47470588235291883,0.35529411764695473,0.03823529411776606
15.179000000000013,24.074999999998393,-9.728000000000332,-2.421000000002987,-0.45,0.16124999999983386,0.2037500000000712
15.199000000000012,20.768999999997607,-10.493000000000274,-6.0320000000005,-0.49117647058828695,-0.11705882352959615,0.21882352941171307
15.219000000000014,17.016999999997495,-10.61499999999966,-5.791999999998112,-0.52,-0.19705882352938853,0.0829411764704798
15.239000000000013,12.558999999995745,-9.81099999999851,-2.251999999996471,-0.3599999999997732,0.040000000000073144,-0.08000000000007315
15.259000000000013,5.882727272723479,-7.0054545454526425,2.216363636364259,0.06294117647106422,0.058823529411422604,-0.19235294117652263
15.279000000000014,-0.657777777783195,-3.9599999999979576,2.015555555554814,0.6280000000000899,-0.33600000000003793,-0.23999999999997632
15.299000000000014,-7.903333333339507,-1.264444444442326,1.6955555555560398,0.7546666666667492,-0.38933333333336806,-0.20666666666664496
15.319000000000013,-16.654000000004498,1.6720000000017219,2.6680000000015642,0.970000000000234,-0.3000000000001097,-0.05999999999981714
15.339000000000013,-20.341999999998766,3.566000000000105,6.124000000002458,1.3605882352944152,-0.5276470588238567,0.22529411764720758
15.359000000000012,-16.947999999996984,3.343999999999706,7.8459999999985675,1.7837500000001978,-1.017500000000269,0.45750000000014235
15.379000000000014,-12.339999999997305,2.8319999999996845,4.939999999998029,1.9517647058823697,-1.1652941176469662,0.6641176470589583
15.399000000000013,-8.721999999998305,2.535999999999974,2.4839999999990403,1.5394117647054564,-0.3629411764698215,0.7147058823529256
15.419000000000013,-6.827999999999593,2.5660000000000394,1.658000000000184,0.7199999999997586,1.1100000000003878,0.489999999999861
15.439000000000014,-6.537999999999985,2.279999999999329,2.4740000000012237,0.41625000000012535,1.2706249999982364,0.18749999999946293
15.459000000000014,-6.526000000000039,1.3019999999992244,4.0260000000005,0.5366666666666796,-0.5333333333337289,-0.3866666666668353
15.479000000000013,-6.884000000000749,0.12399999999930332,3.899999999999014,0.4547058823527371,-0.7670588235290413,-0.5564705882352866
15.499000000000013,-8.24000000000092,-0.7400000000003286,2.249999999999014,0.17874999999985638,-0.10687499999951328,-0.49374999999992025
15.519000000000013,-9.332000000000539,-1.0379999999999212,1.2560000000001053,0.03882352941170472,0.3817647058825704,-0.3811764705881678
15.539000000000014,-10.080000000000394,-0.5559999999993165,1.9780000000010385,-0.14000000000018392,0.3599999999997074,-0.2899999999999749
15.559000000000013,-10.676000000000434,0.5380000000007098,3.454000000000552,-0.3705882352941674,-0.011176470588334866,-0.2547058823529163
15.579000000000013,-11.388000000000448,1.5600000000005916,3.6099999999993426,-0.3811764705881521,-0.06764705882343869,-0.2123529411764328
15.599000000000014,-11.795999999999822,2.312000000000388,2.609999999999478,-0.2143749999998455,0.1281250000001909,-0.15749999999996364
15.619000000000014,-11.393999999999764,2.6880000000001183,2.3100000000003282,-0.06352941176462046,0.3423529411766073,-0.12470588235292408
15.639000000000014,-11.202000000000012,2.729999999999803,2.9200000000003943,-0.07000000000012539,0.3499999999998913,-0.15000000000007524
15.659000000000013,-10.935999999999185,2.241999999999487,3.3059999999999077,-0.25529411764720755,0.2111764705881981,-0.2558823529412434
15.679000000000013,-8.873999999998055,1.5039999999995664,2.65199999999883,-0.48375000000013446,0.19625000000005538,-0.34500000000003167
15.699000000000014,-6.287999999998164,0.9359999999996067,0.6679999999988929,-0.6782352941177734,0.25764705882355465,-0.38764705882355466
15.719000000000014,-2.167999999994663,-0.004000000001340792,0.4880000000014985,-0.8088235294118344,0.1858823529410913,-0.42294117647061147
15.739000000000013,7.912000000007703,-2.5020000000017877,2.712000000000276,-0.8199999999999049,-0.020000000000073143,-0.4199999999999488
15.759000000000015,17.442000000003745,-4.23599999999982,1.0479999999970007,-0.6547058823527715,-0.1270588235294457,-0.3341176470587472
15.779000000000014,19.48399999999952,-3.4779999999993296,-2.868000000002316,-0.42624999999984664,-0.17125000000002708,-0.22624999999991882
15.799000000000014,21.11800000000143,-3.114000000000026,-4.201999999999159,-0.2611764705881511,-0.20764705882355466,-0.11705882352933598
15.819000000000013,20.54199999999837,-2.7839999999998946,-3.2879999999996583,-0.1358823529410913,-0.21235294117646283,-0.03411764705877707
15.839000000000013,18.033999999997462,-2.815999999999842,-2.7599999999998683,0.010000000000080458,-0.14999999999992686,0.020000000000007314
15.859000000000014,13.769999999996504,-2.233999999999301,-2.7800000000001455,0.1270588235294457,-0.027058823529301498,0.03
15.879000000000014,9.103999999997331,-1.247999999999461,-2.74199999999975,0.15249999999998196,0.12500000000010825,0.02624999999999098
15.899000000000013,5.7339999999983835,-0.6019999999997503,-2.0919999999992904,0.08117647058815725,0.2529411764706585,0.02
15.919000000000015,3.425999999998627,-0.24799999999983588,-1.079999999999403,-0.22764705882382838,0.4047058823530693,0.15000000000014524
15.939000000000014,1.2759999999976575,-0.04799999999968665,-0.4619999999998657,-0.38724137931041375,0.43448275862068475,0.26724137931041375
15.959000000000014,-1.7360000000015512,0.4060000000002366,-0.2939999999998291,-0.4299999999999611,0.40999999999996106,0.37333333333341767
15.979000000000013,-3.869000000001047,0.7000000000001262,-0.2250000000001892,-0.3441176470587253,0.3629411764705731,0.45294117647057314
15.999000000000013,-5.494545454546169,0.9254545454546905,-0.6018181818183939,-0.22275862068959992,0.33137931034479995,0.4275862068965333
16.019000000000013,-6.177999999999945,1.192000000000194,-0.7809999999999585,-0.13999999999993315,0.2899999999999331,0.39999999999994984
16.039000000000012,-6.332000000000159,1.5340000000002045,-0.7449999999999432,-0.075882352941234,0.20294117647056267,0.324117647058766
16.05900000000001,-6.195999999999567,1.7169999999999885,-0.5189999999998067,-0.19363636363644585,0.17,0.24818181818181476
16.079000000000015,-5.26099999999906,1.6979999999999402,-0.2949999999999254,-0.3390909090910242,0.17,0.24212121212120732
16.099000000000014,-3.5319999999982543,1.5549999999997923,-0.23600000000002772,-0.8258823529416319,0.047647058823401575,0.2476470588235374
16.119000000000014,-1.2719999999989469,1.351999999999917,-0.402000000000194,-1.0999999999999792,-0.09000000000014628,0.2499999999999373
16.139000000000014,0.22500000000117773,1.1259999999997505,-0.5119999999999169,-1.0705882352940965,-0.2958823529413249,0.16176470588228933
16.159000000000013,1.7600000000005542,0.7999999999998614,-0.5070000000001247,-1.0049999999998969,-0.5187500000001807,0.05499999999989675
16.179000000000013,2.1130000000000138,0.6139999999998338,-0.6980000000000832,-0.8652941176469777,-0.7735294117648608,-0.043529411764735376
16.199000000000012,2.0469999999997612,0.25699999999976125,-0.7530000000000113,-0.7588235294117047,-1.0052941176472014,-0.014117647058778542
16.219000000000012,1.3779999999996133,-0.10200000000015916,-0.7379999999999545,-0.6499999999999436,-1.0799999999998873,0.14000000000010032
16.239000000000015,0.9759999999998806,-0.3970000000002835,-0.6770000000001343,-0.5405882352940243,-0.8488235294115187,0.3282352941177828
16.259000000000015,0.5849999999996269,-0.6180000000000895,-0.9980000000002387,-0.4162499999999151,-0.5124999999997546,0.5050000000001132
16.279000000000014,0.35800000000008314,-0.7440000000001108,-1.1290000000000415,-0.3247058823528918,-0.22647058823512117,0.6388235294118471
16.299000000000014,0.2639999999996952,-0.7729999999998753,-1.1779999999999444,-0.26176470588231543,-0.00235294117633561,0.7258823529412215
16.319000000000013,-0.013999999999972288,-0.5119999999997784,-0.8809999999995428,-0.16199999999992967,0.16000000000009593,0.7239999999999872
16.339000000000013,0.09699999999998615,-0.17299999999973675,-0.19599999999961204,0.020000000000158828,0.2299999999998746,0.6099999999998328
16.359000000000012,-0.2180000000002956,0.15000000000011368,0.2380000000001819,0.247058823529546,0.02352941176450133,0.36058823529393863
16.379000000000012,-0.48300000000001136,0.2869999999999886,0.5200000000001137,0.4875000000001299,-0.34500000000020203,0.024999999999797934
16.399000000000015,-0.47699999999998505,0.1349999999997762,0.48399999999967175,0.688235294117789,-0.5611764705883016,-0.2500000000001609
16.419000000000015,-0.5780000000000896,-0.1910000000002537,-0.048000000000387955,0.803529411764773,-0.482941176470454,-0.365882352941234
16.439000000000014,-0.49399999999983374,-0.42900000000004157,-0.35900000000004156,0.7599999999998496,-0.2699999999999248,-0.34999999999992476
16.459000000000014,-0.2159999999997506,-0.4079999999999446,-0.25999999999986145,0.5394117647056872,-0.18,-0.2370588235293015
16.479000000000013,0.03100000000009699,-0.2859999999998892,-0.1239999999999723,0.2974999999998795,-0.1649999999999656,-0.08499999999989674
16.499000000000013,0.08599999999988915,-0.14499999999993074,-0.20000000000013857,0.13941176470579386,-0.0047058823527715565,0.10764705882367694
16.519000000000013,-0.06500000000006928,-0.060999999999958435,-0.3850000000000693,0.06399999999997631,0.1333333333333728,0.20733333333334913
16.539000000000016,-0.10699999999998508,-0.003999999999970158,-0.43,0.012352941176385763,0.2041176470588914,0.2370588235294457
16.559000000000015,-0.02299999999986571,0.013999999999970158,-0.42600000000002985,-0.09625000000006606,0.30375000000008495,0.2775000000000189
16.579000000000015,0.008999999999895546,0.0030000000000149213,-0.5640000000001194,-0.1576470588235578,0.44235294117660307,0.2958823529411859
16.599000000000014,-0.13700000000012472,0.01600000000002771,-0.6630000000000139,-0.17,0.6223529411765985,0.3
16.619000000000014,-0.27900000000004155,0.04300000000001386,-0.6039999999998338,-0.15999999999986625,0.7900000000001254,0.27999999999994984
16.639000000000014,-0.3745454545454992,0.06,-0.37636363636350245,0.022941176470696108,0.932941176470555,0.21294117647055505
16.659000000000013,-0.46000000000006397,0.06800000000002558,-0.19399999999994885,0.17588235294126997,0.8858823529411477,0.16588235294114773
16.679000000000016,-0.527999999999951,0.1500000000000817,-0.10999999999991829,0.6312500000006411,0.7699999999998446,-0.01750000000027202
16.699000000000016,-0.48599999999998367,0.2500000000000817,-0.09600000000006537,1.118823529412014,0.745882352941234,-0.231764705882468
16.719000000000015,-0.4139999999999403,0.3840000000000895,-0.21200000000011937,1.3012121212122378,0.7745454545454685,-0.34242424242432173
16.739000000000015,-0.1939999999997165,0.4720000000000448,-0.25799999999995527,1.4194117647058315,0.768823529411663,-0.4335294117647228
16.759000000000015,0.09600000000013428,0.5520000000000448,-0.18799999999995526,1.3062499999998396,0.636249999999915,-0.4537500000000094
16.779000000000014,0.3680000000002537,0.5840000000000148,-0.14199999999997015,1.0294117647056436,0.5858823529411846,-0.4482352941176306
16.799000000000014,0.7420000000002303,0.6040000000000127,-0.07199999999997442,0.6012499999996731,0.6875000000001033,-0.39124999999994836
16.819000000000013,1.096000000000179,0.61,-0.05800000000002559,0.23047619047596096,0.8071428571429315,-0.3152380952380456
16.839000000000013,1.0959999999997314,0.5859999999999872,-0.10600000000011511,-0.0800000000000418,0.8499999999999498,-0.17999999999990804
16.859000000000016,0.29199999999915016,0.6160000000000654,-0.3080000000001144,-0.10882352941166293,0.7794117647058315,-0.05588235294110862
16.879000000000016,-0.6220000000006416,0.7040000000000896,-0.2959999999999105,0.0800000000002265,0.7037499999999339,0.043750000000084936
16.899000000000015,-1.5420000000006417,0.8700000000001492,-0.1699999999999254,0.39470588235320625,0.38941176470544697,0.15294117647067343
16.919000000000015,-2.3980000000007013,1.1420000000002686,-0.09199999999997016,0.708823529412014,-0.595294117648056,0.182352941176461
16.939000000000014,-3.324000000000761,1.532000000000343,-0.15800000000017905,1.270000000000577,-1.650000000000234,-0.04000000000029258
16.959000000000014,-4.542000000001164,2.032000000000418,-0.33200000000004476,2.0129411764708425,-1.938823529411807,-0.4747058823533483
16.979000000000013,-6.078000000000984,2.5980000000003454,-0.1159999999996035,2.0649999999995523,-1.874999999999759,-0.9787500000002495
16.999000000000017,-7.726000000001373,3.0540000000002614,0.6560000000008008,-0.49636363636732006,-1.7727272727273926,-0.26909090908944155
17.019000000000016,-9.094000000000834,3.183999999999935,1.4780000000002778,-3.0455999999997276,-2.068000000000421,0.9216000000002462
17.039000000000016,-9.501999999999523,2.9719999999997464,1.2319999999993732,-2.5305882352930147,-2.518823529411807,1.2152941176472285
17.059000000000015,-8.07199999999833,2.573999999999642,0.39599999999946284,-1.1449999999992073,-2.312499999999377,1.3875000000000188
17.079000000000015,-5.115999999996852,1.9999999999994778,-0.054000000000014925,-0.45529411764679384,-1.1235294117634564,1.1470588235290047
17.099000000000014,0.7900000000056702,0.9779999999989107,0.29800000000055205,-0.05705882352911612,0.07000000000067919,0.3735294117640826
17.119000000000014,7.996000000004089,-0.6540000000012831,0.5299999999993286,0.1499999999990721,1.2200000000008024,-0.4300000000001254
17.139000000000014,11.778000000002072,-2.404000000001228,-0.9540000000009081,-1.085294117647661,2.0141176470580264,-0.6488235294120954
17.159000000000013,15.60800000000252,-4.498000000001432,-1.5880000000000256,-1.3962499999993718,0.861249999999131,-1.0787500000002495
17.179000000000016,18.230000000001308,-6.684000000001732,-2.0020000000005393,-0.3576470588225923,-0.19941176470657332,-1.2011764705881407
17.199000000000016,20.038000000001503,-8.606000000001373,-2.0839999999995262,0.6106250000006224,-0.8250000000003608,-0.8918749999997022
17.219000000000015,21.660000000000895,-10.01600000000058,-1.125999999999239,0.6999999999994566,0.13000000000042633,-0.44999999999962387
17.239000000000015,22.211999999999446,-10.165999999999611,-1.1180000000009997,0.0005882352938801419,0.43705882352843634,0.04058823529431274
17.259000000000015,19.95599999999715,-9.117999999998837,-2.404000000000388,-0.046249999999537605,-0.43124999999980185,0.2637500000000849
17.279000000000014,15.47399999999621,-7.555999999998791,-1.8199999999986571,0.3364705882354012,-0.2117647058822294,0.2435294117645988
17.299000000000014,10.113999999996496,-5.711999999998568,0.5680000000016243,0.18515151515130648,-0.019999999999867596,-0.04636363636387711
17.319000000000017,4.80111111110692,-3.1822222222201524,1.902222222221846,-0.13000000000025078,0.18000000000005223,-0.41000000000022985
17.339000000000016,-0.57500000000478,-0.9849999999981615,0.38499999999851314,-0.38411764705890517,0.1982352941174634,-0.6458823529412683
17.359000000000016,-7.15000000000582,1.5600000000021104,-0.41999999999980814,-0.4349999999999636,-0.016000000000160233,-0.698999999999949
17.379000000000016,-15.190000000006426,4.025000000001679,0.9550000000022222,-0.3774999999999434,-0.230000000000151,-0.5937499999998584
17.399000000000015,-19.144999999999214,4.7849999999995365,5.245000000003853,-0.3694117647059297,-0.35352941176474373,-0.39411764705865315
17.419000000000015,-15.159999999996476,3.73499999999919,6.3749999999977405,-0.497058823529546,-0.324117647058766,-0.235882352941071
17.439000000000014,-11.944999999998139,2.8749999999994458,1.9699999999971294,-0.5799999999999164,-0.24999999999993314,-0.1900000000000836
17.459000000000014,-8.949999999998152,2.3049999999999287,-0.10000000000036949,-0.44823529411749435,-0.16647058823527716,-0.3217647058825056
17.479000000000013,-7.75,2.585000000000311,0.08000000000047251,-0.24374999999987093,-0.16875000000004303,-0.5375000000001549
17.499000000000017,-7.5749999999996005,2.789999999999904,1.5550000000017106,-0.10882352941169846,-0.21176470588237187,-0.7088235294118593
17.519000000000016,-7.284999999999888,2.3249999999994087,3.3000000000007352,-0.034117647058766,-0.07470588235275899,-0.742352941176461
17.539000000000016,-7.22000000000016,1.3799999999991686,2.854999999998705,0.12000000000017554,0.3300000000002257,-0.689999999999908
17.559000000000015,-7.84500000000072,0.4449999999993765,1.184999999998833,0.3918750000003023,0.5681249999998442,-0.5237499999997252
17.579000000000015,-9.060000000001052,-0.09000000000017053,0.21499999999970154,0.8576470588239778,0.2076470588230249,-0.15235294117618098
17.599000000000014,-10.475000000000838,-0.2300000000000284,0.6650000000008953,1.4164705882356812,-0.3394117647062036,0.15941176470606355
17.619000000000014,-11.405000000000499,0.16500000000055423,2.1350000000009803,1.9431250000003528,-0.5975000000001033,0.3718750000001291
17.639000000000017,-12.025000000000409,0.9850000000006928,2.7799999999999288,1.9099999999989445,0.16000000000177636,0.4800000000002821
17.659000000000017,-11.974999999999632,1.5800000000003518,2.159999999999169,0.697499999998816,1.8356249999998575,0.751875000000011
17.679000000000016,-11.664999999999793,1.9550000000002397,1.1149999999992806,-0.37764705882397787,0.9723529411747515,0.632352941176181
17.699000000000016,-11.254999999999633,2.140000000000064,0.695000000000048,-0.6011764705881407,-0.6982352941185936,0.3676470588233969
17.719000000000015,-10.55999999999917,2.0149999999997283,1.2100000000007354,-0.40705882352921996,-0.95705882352922,0.279411764705844
17.739000000000015,-9.349999999999149,1.5049999999995594,1.7999999999999148,0.3900000000001421,0.1400000000001192,0.19999999999998627
17.759000000000015,-7.914999999998593,0.7599999999993463,1.069999999999261,0.5900000000001455,0.3077419354839931,0.1806451612903085
17.779000000000014,-3.714999999994898,-0.37500000000100897,0.8000000000005969,0.6381249999999068,0.27062499999980527,0.14187499999995767
17.799000000000014,5.920000000007986,-2.06500000000135,2.1700000000009094,0.2688235294114498,-0.2658823529416039,0.06647058823524163
17.819000000000017,15.840000000005276,-3.5350000000005597,2.2799999999988168,-0.13117647058854606,-0.5223529411765968,-0.00647058823535239
17.839000000000016,18.090000000000735,-3.594999999999824,-0.6650000000025099,-0.30882352941181573,-0.2358823529409214,0.04764705882363145
17.859000000000016,20.495000000001614,-3.545000000000016,-2.5000000000009592,-0.3770000000000655,-0.011999999999956299,0.1960000000001602
17.879000000000016,19.334999999996946,-3.264999999999568,-4.130000000001599,-0.42874999999997165,0.05250000000005662,0.3800000000000755
17.899000000000015,15.389999999996963,-2.9399999999999045,-5.530000000000576,-0.3511764705881406,0.14882352941185936,0.4535294117647437
17.919000000000015,11.669999999997328,-2.6599999999996586,-5.674999999999616,-0.24499999999992783,0.23875000000005414,0.45374999999998195
17.939000000000014,8.67499999999862,-2.244999999999787,-4.844999999999134,-0.20000000000003346,0.22999999999992476,0.3699999999998913
17.959000000000017,7.163333333332118,-1.9499999999996684,-3.29333333333162,-0.2523529411765446,0.1258823529410919,0.21705882352927433
17.979000000000017,5.759999999998657,-1.4899999999994884,-1.5499999999987528,-0.3250000000000433,0.04124999999994587,0.07624999999990259
17.999000000000017,3.8199999999984016,-0.7199999999993605,-0.2649999999991527,-0.35,-0.013529411764743744,0.014117647058814065
18.019000000000016,1.9359999999987652,0.138000000000594,0.49200000000034383,-0.3174999999999567,-0.07062500000005412,0.06687500000007578
18.039000000000016,0.8419999999992496,0.5760000000001719,0.7079999999999687,-0.20999999999988297,-0.12000000000000835,0.22000000000011702
18.059000000000015,-0.044000000000609635,0.7320000000001095,0.495999999999703,-0.047058823529301505,-0.12647058823527715,0.3776470588236142
18.079000000000015,-0.8020000000006565,0.8960000000000938,0.06399999999959358,0.08250000000005661,-0.08749999999994337,0.4862500000000661
18.099000000000014,-1.858000000000783,0.9980000000000405,-0.480000000000405,0.1376470588235541,0.008823529411847067,0.5535294117647388
18.119000000000014,-3.340000000001148,0.9919999999999595,-0.9100000000001349,0.16529411764707383,0.1264705882353691,0.5623529411764632
18.139000000000017,-4.714000000000921,0.8939999999998977,-1.0760000000001877,0.16999999999996868,0.24000000000007313,0.49999999999988504
18.159000000000017,-5.2180000000000515,0.7299999999998295,-1.3640000000002388,0.12941176470581894,0.3188235294118176,0.37058823529400137
18.179000000000016,-4.7659999999992495,0.4799999999997442,-1.69200000000029,0.061249999999945876,0.3712500000000325,0.24999999999991343
18.199000000000016,-3.7799999999991405,0.25599999999985934,-1.890000000000078,0.024117647058814064,0.40176470588237184,0.1823529411764422
18.219000000000015,-2.683999999999203,0.16799999999996873,-1.735999999999703,0.028125000000009018,0.41,0.18625000000001804
18.239000000000015,-1.647999999999187,0.15399999999998437,-1.1739999999995154,0.04000000000003344,0.3499999999998913,0.21
18.259000000000015,-0.611999999999352,0.1560000000000135,-0.4899999999995275,0.08705882352944569,0.18647058823513296,0.2029411764705543
18.279000000000018,-0.09799999999988063,0.21000000000008526,0.14800000000047753,0.1350000000000433,-0.037500000000194836,0.14749999999993507
18.299000000000017,-0.1040000000000682,0.26600000000001706,0.6200000000003411,0.13647058823525626,-0.20882352941185936,0.08647058823525626
18.319000000000017,-0.2520000000002046,0.2359999999999318,1.0040000000002387,0.028235294117531992,-0.25,0.07
