time,ax,ay,az,aT
0.0240,0.9280,1.4340,1.2520,2.118
0.0250,0.9950,1.2750,0.0220,1.617
0.0250,0.8120,1.1630,-0.5740,1.530
0.0330,0.3570,1.1790,-0.8540,1.499
0.0400,-0.6680,1.3010,-0.5700,1.570
0.0480,-1.4960,1.3060,-0.6390,2.086
0.0580,-1.8440,1.2390,-0.5120,2.280
0.0690,-2.1080,1.2010,-0.1680,2.432
0.0790,-2.2860,1.2450,-0.3270,2.623
0.0880,-2.2000,0.9750,-1.3070,2.738
0.1140,-1.8640,0.9040,-1.3430,2.469
0.1150,-1.1580,0.8660,-1.0730,1.801
0.1190,-0.5160,0.8270,-0.9210,1.341
0.1290,-0.4780,0.8090,-0.4950,1.062
0.1380,-0.7350,0.3410,0.0050,0.810
0.1490,-1.1980,-0.6020,0.1480,1.349
0.1590,-1.6210,-0.8380,-0.2030,1.836
0.1700,-2.2600,-0.3440,0.2060,2.295
0.1780,-2.8560,0.2270,0.7340,2.958
0.1880,-3.0720,0.4170,0.8710,3.220
0.1990,-2.7370,0.4190,0.7100,2.858
0.2130,-2.2630,0.3310,0.6100,2.367
0.2190,-1.8570,0.3940,0.5960,1.990
0.2280,-1.4380,0.4750,0.5130,1.599
0.2390,-0.8160,0.2870,0.0290,0.865
0.2480,-0.4290,-0.1360,-0.4920,0.667
0.2580,-0.4080,-0.5150,-0.6590,0.931
0.2680,-0.4770,-0.7330,-0.8810,1.241
0.2780,-0.5890,-0.8300,-1.1140,1.509
0.2890,-0.4690,-0.8300,-1.0650,1.429
0.2990,-0.1690,-0.5420,-0.9960,1.146
0.3120,0.1930,-0.4570,-1.1260,1.230
0.3190,0.4570,-0.6870,-1.4350,1.655
0.3280,0.5710,-0.6990,-1.7380,1.958
0.3390,0.6950,-0.7000,-1.7400,2.000
0.3490,0.8870,-0.5690,-1.5820,1.901
0.3590,0.8370,-0.3660,-1.5080,1.763
0.3680,0.2090,0.5040,-1.1190,1.245
0.3780,1.2030,0.1380,-1.2840,1.765
0.3960,1.3880,0.3100,-1.5150,2.078
0.3990,1.1560,0.2650,-1.5230,1.930
0.4130,1.1400,0.3220,-1.4150,1.845
0.4190,1.2010,0.5590,-1.3200,1.870
0.4280,1.1050,0.7760,-1.3310,1.896
0.4390,1.2540,0.5960,-0.9690,1.693
0.4480,1.2260,0.6400,-0.3210,1.420
0.4590,0.6200,0.7250,-0.3510,1.016
0.4690,-0.0380,0.9270,-0.4130,1.016
0.4790,-0.0120,1.6390,-0.6120,1.750
0.4940,-0.0800,1.9970,-0.6850,2.113
0.5010,-0.1540,2.2230,-0.7550,2.353
0.5090,0.1140,2.1640,-0.9960,2.385
0.5180,0.1810,1.7940,-0.7010,1.935
0.5280,0.2190,1.3570,-0.2420,1.396
0.5390,0.4210,0.7100,0.4740,0.952
0.5510,0.3440,0.0810,0.7590,0.837
0.5580,0.3180,-0.0900,0.9530,1.009
0.5680,0.2530,0.0530,1.4960,1.518
0.5790,0.2070,0.3620,1.6470,1.699
0.5880,0.3510,0.5350,1.3350,1.480
0.5980,0.8530,0.5160,0.7700,1.260
0.6120,1.0890,0.3010,0.3610,1.186
0.6180,1.0810,0.0620,0.3540,1.139
0.6280,0.8010,-0.1450,0.5130,0.962
0.6390,0.0310,-0.2240,0.6320,0.671
0.6490,-1.0890,-0.3100,1.0410,1.538
0.6590,-1.8650,-0.4660,1.5290,2.456
0.6680,-2.0250,-0.5840,1.9660,2.882
0.6780,-2.0980,-0.6590,2.0860,3.031
0.6910,-1.6540,-0.6110,1.5410,2.342
0.6980,-0.5790,-0.4230,0.4690,0.857
0.7110,-0.1220,0.0600,-0.4220,0.443
0.7180,0.0300,0.3360,-0.9850,1.041
0.7280,0.6740,0.1190,-1.7170,1.848
0.7390,1.3440,-0.4670,-2.7630,3.108
0.7490,1.4340,-0.7510,-3.4400,3.802
0.7580,1.1900,-0.5410,-3.3790,3.623
0.7680,0.6810,-0.2710,-2.9330,3.023
0.7780,0.1270,-0.2810,-2.5830,2.601
0.7880,0.0990,-0.1620,-2.7010,2.708
0.7980,3.3310,-1.7670,-3.3890,5.070
0.8130,0.1080,-2.1030,-3.4900,4.076
0.8190,-2.2440,-0.5880,-2.4590,3.381
0.8280,-2.1800,0.0770,-2.0760,3.011
0.8380,-1.0210,-1.1460,-1.7510,2.328
0.8490,-0.5400,-2.5460,-1.9630,3.260
0.8580,1.3600,-1.9300,-0.7460,2.476
0.8690,-2.5350,-0.5630,-0.5510,2.655
0.8780,-5.5190,-0.2950,-0.7520,5.578
0.8880,-4.4340,-2.1290,-1.3040,5.089
0.8980,-4.5300,-2.6810,-2.0970,5.666
0.9080,-3.8560,-1.3800,-2.4000,4.747
0.9180,-2.9530,-0.5620,-2.5750,3.958
0.9280,-0.6190,-0.4310,-2.7410,2.843
0.9400,0.0820,-0.4250,-3.7200,3.745
0.9480,0.3170,-0.1040,-3.8700,3.884
0.9590,0.9890,0.3490,-3.1040,3.276
0.9680,1.2980,0.3390,-2.7520,3.062
0.9780,1.1270,0.0450,-2.5330,2.773
0.9870,1.1050,0.0620,-1.8840,2.185
0.9980,0.9260,0.3910,-0.9860,1.408
1.0080,0.6560,0.5090,0.0630,0.833
1.0180,0.3120,0.4790,1.4480,1.557
1.0280,0.3080,0.7160,2.6680,2.780
1.0380,-0.1760,0.8610,3.3060,3.421
1.0510,-1.1530,0.4950,3.4140,3.637
1.0580,-2.0800,0.2360,3.9810,4.498
1.0680,-2.3580,0.4820,5.1450,5.680
1.0770,-1.7810,1.0280,5.7470,6.104
1.0900,-0.9950,1.4470,5.3370,5.618
1.0980,-1.0930,1.4440,4.3820,4.741
1.1110,-1.6330,1.2530,3.2700,3.864
1.1170,-1.3790,1.2740,2.2370,2.920
1.1290,-0.0500,1.6170,1.1480,1.984
1.1380,1.7540,2.1390,-0.0170,2.766
1.1500,2.6430,2.3510,-1.4630,3.828
1.1580,1.9680,2.1140,-2.5450,3.850
1.1680,0.3190,1.8950,-2.3650,3.047
1.1780,-0.4480,1.5300,-1.2550,2.029
1.1870,-0.4580,0.8020,0.2520,0.957
1.2030,-0.5600,0.2750,1.6350,1.750
1.2080,-1.1230,0.2120,2.5120,2.760
1.2190,-1.6720,0.0980,2.9920,3.429
1.2280,-1.7580,-0.5170,3.0290,3.540
1.2380,-2.0800,-0.8510,2.9210,3.685
1.2470,-1.7510,-2.3040,0.4620,2.931
1.2580,-3.7290,-1.3690,-1.7190,4.328
1.2680,-6.1860,0.9020,-1.0720,6.343
1.2780,-6.1200,0.7240,-1.8590,6.437
1.2870,-4.1590,-0.7680,-2.7050,5.020
1.3040,-2.5940,-1.7280,-3.2370,4.494
1.3070,-2.0060,-2.0710,-3.7370,4.720
1.3180,-2.0680,-1.9340,-4.0660,4.955
1.3280,-2.3360,-1.5840,-4.2340,5.088
1.3380,-2.6810,-1.3730,-4.3220,5.268
1.3480,-3.0300,-1.4100,-4.3910,5.518
1.3580,-3.2530,-1.5950,-4.4750,5.758
1.3680,-3.3320,-1.9430,-4.4100,5.859
1.3770,-3.2590,-2.4330,-4.1580,5.816
1.3870,-2.9510,-2.9430,-3.6850,5.563
1.4040,-2.5830,-3.2310,-2.8840,5.043
1.4080,-2.4600,-3.2820,-1.8860,4.514
1.4170,-2.6070,-3.2340,-1.0710,4.290
1.4270,-2.6660,-3.2220,-0.4420,4.205
1.4390,-2.4720,-3.2720,-0.0050,4.101
1.4480,-2.2350,-3.3230,0.2140,4.010
1.4590,-2.0930,-3.3960,0.2770,3.999
1.4680,-1.8710,-3.3740,0.2500,3.866
1.4780,-1.5840,-3.3530,0.2530,3.717
1.4920,-1.3300,-3.3710,0.4240,3.649
1.5160,-1.1420,-3.3400,0.5620,3.574
1.5210,-0.9650,-3.2580,0.6280,3.455
1.5210,-1.0410,-3.2460,0.5300,3.450
1.5360,-1.1040,-3.3090,0.2640,3.498
1.5400,-0.8860,-3.3740,0.0330,3.489
1.5470,-0.5710,-3.5540,-0.1270,3.602
1.5600,-0.2510,-3.7940,-0.2660,3.812
1.5690,0.1150,-3.9500,-0.4710,3.980
1.5860,0.5470,-4.1370,-0.7560,4.241
1.5890,0.8690,-4.2680,-1.0220,4.474
1.6100,1.0650,-4.2760,-1.3680,4.614
1.6100,0.9820,-4.0640,-1.7420,4.529
1.6190,0.6380,-4.1110,-2.1890,4.701
1.6280,0.5650,-4.3880,-2.4270,5.046
1.6370,1.4600,-5.0890,-2.1840,5.727
1.6940,2.2210,-5.5960,-1.9430,6.326
1.6970,2.0610,-5.7410,-1.0170,6.184
1.6980,1.5180,-5.7990,0.0060,5.994
1.6980,1.4390,-6.0290,1.1100,6.297
1.6990,1.4050,-6.2460,2.2930,6.800
1.7000,1.4060,-6.1310,3.7890,7.343
1.7120,1.3770,-5.7860,5.1230,7.850
1.7170,1.4450,-5.4160,6.0670,8.260
1.7270,1.9520,-5.8360,6.4570,8.920
1.7360,2.8340,-6.7670,6.2700,9.651
1.7470,3.1500,-6.9360,6.1450,9.787
1.7570,2.9630,-6.6440,5.5440,9.146
1.7670,2.7420,-6.4780,4.5270,8.365
1.7770,2.6500,-6.4490,3.3530,7.737
1.7870,2.3220,-6.1990,2.2270,6.984
1.7970,1.4600,-5.4060,1.3240,5.754
1.8070,0.2140,-4.1550,0.7250,4.223
1.8170,-0.9470,-2.8210,0.3390,2.995
1.8270,-1.8510,-1.3960,0.2240,2.329
1.8360,-2.4630,0.1240,0.4200,2.502
1.8470,-2.7470,1.5070,0.7530,3.222
1.8610,-2.6640,2.4890,1.1180,3.813
1.8740,-2.2210,2.9100,1.4360,3.932
1.8860,-1.3990,2.8100,1.6810,3.561
1.8870,-0.2370,2.4620,1.8610,3.095
1.9030,1.1500,1.9640,1.9280,2.983
1.9120,2.5190,1.4970,1.9630,3.527
1.9320,3.7090,1.1010,2.0160,4.363
1.9340,4.5500,0.8290,2.0070,5.042
1.9360,5.0130,0.6500,1.9050,5.402
1.9470,5.2250,0.5360,1.7020,5.521
1.9580,5.2920,0.3830,1.4390,5.498
1.9750,5.1360,0.2310,1.0920,5.256
1.9900,4.7180,0.1470,0.7480,4.779
1.9940,4.0300,0.1460,0.4720,4.060
2.0130,3.1210,0.3230,0.2610,3.149
2.0140,2.3200,0.5850,0.1620,2.398
2.0200,1.6400,0.9100,0.2240,1.889
2.0270,1.0220,1.0990,0.3150,1.533
2.0380,0.5090,1.1880,0.4060,1.355
2.0810,0.1970,1.3460,0.6180,1.494
2.0840,0.0380,1.5860,0.9800,1.865
2.0850,-0.0320,1.7470,1.4910,2.297
2.0880,0.0010,1.8490,2.0770,2.781
2.0900,0.2660,1.8570,2.5840,3.193
2.0960,0.5770,1.8810,2.9820,3.573
2.1080,0.8200,1.9360,3.2650,3.883
2.1190,1.0280,1.9310,3.4400,4.077
2.1270,1.2620,2.0600,3.5910,4.328
2.1400,1.5080,2.2460,3.6960,4.580
2.1470,1.7620,2.3670,3.6880,4.723
2.1570,2.0700,2.3440,3.6100,4.776
2.1710,2.3800,2.1570,3.3970,4.675
2.1760,2.5990,1.9660,3.1640,4.542
2.1860,2.7520,1.8240,2.9830,4.450
2.1960,2.9070,1.7400,2.8580,4.432
2.2060,2.9810,1.6360,2.8110,4.412
2.2160,3.0030,1.5290,2.8020,4.383
2.2260,3.0120,1.3820,2.8320,4.359
2.2360,3.1720,1.1870,2.9600,4.498
2.2460,3.3350,0.8910,2.9920,4.568
2.2580,3.6030,0.5720,3.0670,4.766
2.2690,3.9710,0.2700,3.3270,5.188
2.2760,4.2250,0.0930,3.6760,5.601
2.2860,4.3490,0.0730,3.9980,5.908
2.2960,4.4130,0.0960,4.3670,6.209
2.3060,4.5580,0.0290,4.7570,6.588
2.3160,4.7850,-0.1910,5.0220,6.939
2.3270,5.0560,-0.7460,5.0720,7.200
2.3370,5.2130,-1.3330,4.9780,7.330
2.3460,5.2180,-1.7580,4.8200,7.318
2.3560,5.1390,-1.8530,4.6590,7.180
2.3660,5.1190,-1.7610,4.4220,6.990
2.3760,5.2070,-1.6140,4.0870,6.813
2.3880,5.4700,-1.5660,3.6630,6.767
2.3960,5.8200,-1.4900,3.2410,6.826
2.4070,6.1250,-1.1050,2.9190,6.874
2.4180,6.3730,-0.7430,2.6410,6.938
2.4270,6.4950,-0.5830,2.4050,6.950
2.4370,6.4940,-0.6560,2.2630,6.908
2.4470,6.3890,-1.0000,2.2240,6.839
2.4570,6.1440,-1.6150,2.2900,6.753
2.4670,5.7550,-2.4450,2.4360,6.711
2.4770,5.2780,-3.4650,2.5580,6.812
2.4870,4.7200,-4.4140,2.7040,7.005
2.4960,3.9670,-5.1730,2.8120,7.100
2.5070,3.0400,-5.7500,2.8970,7.120
2.5170,2.3030,-6.3530,2.9290,7.365
2.5260,1.4510,-6.8860,2.9300,7.623
2.5370,0.5230,-7.0180,2.9300,7.623
2.5460,-0.3210,-6.8370,2.9030,7.435
2.5580,-0.9240,-6.5680,2.7470,7.179
2.5670,-1.4730,-6.3550,2.4990,6.986
2.5770,-2.0400,-6.1710,2.2170,6.867
2.5860,-2.6350,-6.0230,2.0140,6.876
2.5970,-3.2060,-5.8080,1.8790,6.895
2.6070,-3.6710,-5.5730,1.7100,6.889
2.6170,-3.9660,-5.3600,1.4890,6.832
2.6260,-4.1790,-5.2240,1.2930,6.814
2.6360,-4.3510,-5.0610,1.0880,6.762
2.6470,-4.4290,-4.9510,0.8830,6.701
2.6570,-4.4400,-4.9580,0.6420,6.686
2.6660,-4.4630,-4.8980,0.4090,6.639
2.6770,-4.4610,-4.7780,0.2590,6.542
2.6860,-4.4590,-4.6340,0.1090,6.432
2.6960,-4.4710,-4.4430,-0.0390,6.303
2.7060,-4.4620,-4.3130,-0.2250,6.210
2.7160,-4.5110,-4.2170,-0.4450,6.191
2.7260,-4.6660,-4.0740,-0.6660,6.230
2.7360,-4.9210,-3.7890,-0.8100,6.263
2.7460,-5.2600,-3.4330,-0.8460,6.338
2.7560,-5.5760,-3.2010,-0.7850,6.477
2.7660,-5.9510,-3.0790,-0.7660,6.744
2.7770,-6.4120,-2.9230,-0.7360,7.085
2.7870,-6.7380,-2.9050,-0.7510,7.376
2.7960,-6.8240,-3.1390,-0.8630,7.561
2.8060,-6.8580,-3.5610,-1.0610,7.800
2.8160,-6.9770,-4.0150,-1.3110,8.156
2.8260,-7.2010,-4.3990,-1.5830,8.586
2.8360,-7.4940,-4.7760,-1.8080,9.069
2.8460,-7.7470,-4.9800,-1.8940,9.402
2.8570,-7.8870,-5.0790,-1.7860,9.549
2.8660,-7.7810,-5.1490,-1.5320,9.455
2.8760,-7.2940,-5.2340,-1.2050,9.058
2.8860,-6.4500,-5.3590,-0.9160,8.436
2.8960,-5.5730,-5.5520,-0.8010,7.907
2.9060,-4.9400,-5.7210,-0.7500,7.596
2.9160,-4.5670,-5.8400,-0.6710,7.444
2.9260,-4.3700,-6.0330,-0.5270,7.468
2.9360,-4.2700,-6.2520,-0.3400,7.579
2.9460,-4.2500,-6.3630,-0.1890,7.654
2.9560,-4.2950,-6.1300,-0.1320,7.486
2.9660,-4.3150,-5.6000,-0.2370,7.074
2.9760,-4.1630,-4.9780,-0.4260,6.503
2.9860,-3.8000,-4.3960,-0.6550,5.848
2.9960,-3.2170,-3.9170,-0.8450,5.139
3.0060,-2.4900,-3.6710,-0.9420,4.535
3.0160,-1.6700,-3.6750,-0.9270,4.142
3.0260,-0.8630,-3.6590,-0.8730,3.859
3.0370,-0.0910,-3.5040,-0.9220,3.624
3.0460,0.6910,-3.3790,-1.0490,3.605
3.0560,1.4910,-3.4100,-1.1210,3.887
3.0660,2.1750,-3.5290,-1.0320,4.272
3.0780,2.6970,-3.5680,-0.7240,4.531
3.0870,3.0150,-3.4650,-0.1910,4.597
3.0970,3.2550,-3.2290,0.4570,4.608
3.1060,3.4840,-2.9220,1.1500,4.690
3.1160,3.7830,-2.5660,1.8100,4.916
3.1260,4.1140,-2.1860,2.3160,5.203
3.1360,4.3250,-1.7490,2.7230,5.402
3.1460,4.3950,-1.2670,2.9710,5.454
3.1560,4.3680,-0.8910,3.0570,5.405
3.1660,4.3370,-0.6160,3.0780,5.354
3.1760,4.2920,-0.4620,3.0660,5.295
3.1860,4.2270,-0.3640,3.0730,5.239
3.1960,4.1880,-0.2740,3.0710,5.201
3.2060,4.1220,-0.1830,3.0340,5.121
3.2160,4.1440,-0.1400,2.9550,5.092
3.2260,4.2680,-0.1060,2.9000,5.161
3.2360,4.4360,-0.0480,2.8660,5.282
3.2460,4.6010,0.0340,2.8890,5.433
3.2560,4.7960,0.1460,2.9280,5.621
3.2660,5.0330,0.2370,2.9780,5.853
3.2760,5.3350,0.3170,3.0300,6.144
3.2860,5.7170,0.4240,3.0200,6.480
3.2960,6.0710,0.5300,3.0110,6.797
3.3060,6.3130,0.6890,3.0440,7.042
3.3160,6.4340,0.9450,3.1060,7.207
3.3260,6.5250,1.2420,3.1770,7.363
3.3360,6.6220,1.5320,3.2860,7.550
3.3460,6.7580,1.7920,3.4440,7.794
3.3560,6.9170,1.9650,3.5970,8.040
3.3650,7.0780,2.1400,3.7860,8.307
3.3750,7.2860,2.3440,3.8880,8.585
3.3850,7.6030,2.3450,3.9200,8.870
3.3960,7.9370,2.1080,3.9360,9.107
3.4060,8.2680,1.7990,3.9860,9.353
3.4160,8.4640,1.5760,4.1320,9.550
3.4260,8.6150,1.4640,4.2690,9.726
3.4360,8.7230,1.3190,4.3510,9.837
3.4450,8.8740,1.0160,4.3410,9.931
3.4560,9.1050,0.4300,4.2720,10.067
3.4660,9.3300,-0.3850,4.1850,10.233
3.4760,9.4220,-1.1930,4.1990,10.384
3.4860,9.2620,-1.7040,4.2990,10.352
3.4960,9.0690,-1.9680,4.3770,10.261
3.5060,8.7680,-2.1120,4.4540,10.059
3.5160,8.2790,-1.8800,4.6210,9.666
3.5260,7.6990,-1.2380,4.8030,9.158
3.5390,7.2520,-0.4920,4.9750,8.808
3.5460,7.0440,0.1110,5.0030,8.641
3.5560,7.0310,0.5590,4.8110,8.538
3.5660,7.1550,0.7520,4.4910,8.481
3.5760,7.3880,0.7080,4.1480,8.502
3.5860,7.5460,0.4790,3.8650,8.492
3.5960,7.4890,0.1610,3.6580,8.336
3.6050,7.1850,-0.2890,3.4760,7.987
3.6160,6.7680,-0.9160,3.2870,7.580
3.6260,6.3440,-1.6680,3.1140,7.261
3.6370,5.8160,-2.3780,3.0660,6.992
3.6460,5.2220,-2.9650,3.0840,6.751
3.6550,4.5550,-3.3480,3.1620,6.477
3.6650,3.9270,-3.6660,3.2300,6.268
3.6760,3.3120,-3.8540,3.2360,6.024
3.6860,2.6440,-3.7890,3.2440,5.645
3.6960,1.9790,-3.6120,3.2280,5.233
3.7050,1.3470,-3.3820,3.1070,4.786
3.7150,0.7330,-3.1520,2.9340,4.368
3.7250,0.1550,-2.9070,2.7740,4.021
3.7350,-0.3380,-2.7060,2.5890,3.760
3.7450,-0.7530,-2.6480,2.4400,3.679
3.7560,-1.1470,-2.5630,2.2880,3.622
3.7660,-1.4680,-2.4830,2.1930,3.623
3.7760,-1.7340,-2.4990,2.1070,3.700
3.7860,-1.8760,-2.5450,1.9420,3.710
3.7950,-1.9020,-2.6240,1.7170,3.668
3.8060,-1.8810,-2.7080,1.5050,3.624
3.8160,-1.8150,-2.8840,1.2720,3.637
3.8260,-1.7770,-3.1590,1.0820,3.783
3.8360,-1.9810,-3.3830,0.9330,4.030
3.8460,-2.2770,-3.4590,0.7910,4.216
3.8560,-2.4050,-3.4500,0.6080,4.249
3.8660,-2.3840,-3.4020,0.4870,4.183
3.8760,-2.3570,-3.3780,0.4220,4.141
3.8870,-2.3520,-3.5130,0.3540,4.242
3.8950,-2.6500,-3.6420,0.3920,4.521
3.9060,-3.3080,-3.6630,0.4540,4.956
3.9160,-4.0800,-3.5920,0.5080,5.460
3.9270,-4.8730,-3.5430,0.4840,6.044
3.9350,-5.5810,-3.5380,0.3490,6.617
3.9460,-6.1510,-3.5940,0.1970,7.127
3.9560,-6.6040,-3.7470,0.0260,7.593
3.9780,-7.1230,-3.8040,-0.2190,8.078
3.9800,-7.5690,-3.4690,-0.3430,8.333
3.9850,-7.5920,-3.3000,-0.1780,8.280
3.9950,-7.3530,-3.2880,0.2220,8.058
4.0060,-7.0650,-3.2650,0.7050,7.815
4.0150,-6.6890,-3.3440,1.1450,7.565
4.0260,-6.1910,-3.4850,1.4550,7.252
4.0350,-5.5900,-3.7420,1.5440,6.902
4.0450,-4.8820,-4.1750,1.3190,6.558
4.0550,-4.3960,-4.6750,0.7520,6.461
4.0650,-4.2920,-5.1210,0.0150,6.682
5.1040,-4.4220,-5.4080,-0.6450,7.015
5.1060,-4.6080,-5.5590,-1.1320,7.309
5.1140,-4.8700,-5.4410,-1.4100,7.437
5.1150,-8.6700,-1.8440,-2.7820,9.290
5.1170,-8.8200,-1.8760,-3.0600,9.522
5.1170,-8.8130,-2.0450,-3.2580,9.616
5.1240,-8.5750,-2.4030,-3.3430,9.512
5.1340,-8.1880,-2.7950,-3.2450,9.240
5.1440,-7.6830,-3.1400,-2.9770,8.818
5.1540,-7.0520,-3.3880,-2.5360,8.224
5.1640,-6.4130,-3.4800,-1.9310,7.548
5.1820,-5.7140,-3.5580,-1.2720,6.850
5.1990,-4.9270,-3.6400,-0.6260,6.158
5.2000,-4.0600,-3.7220,-0.0640,5.508
5.2050,-3.0350,-4.0320,0.3010,5.056
5.2140,-2.0340,-4.5650,0.3680,5.011
5.2240,-1.4410,-5.0880,0.1710,5.291
5.2340,-1.3380,-5.4180,-0.1420,5.583
5.2440,-1.3610,-5.5930,-0.4020,5.770
5.2540,-1.3310,-5.8000,-0.5160,5.973
5.2640,-1.5270,-5.6780,-0.5050,5.901
5.2740,-1.9160,-5.1000,-0.3770,5.461
5.2900,-2.1950,-4.2910,-0.0140,4.820
5.2950,-2.1780,-3.4280,0.4390,4.085
5.3040,-1.7440,-2.6910,0.9130,3.334
5.3140,-0.9170,-2.1810,1.2530,2.677
5.3240,0.0920,-1.6960,1.2390,2.102
5.3340,1.0650,-1.2890,0.8980,1.898
5.3440,1.9210,-1.1190,0.2930,2.242
5.3540,2.7070,-1.1180,-0.2870,2.943
5.3640,3.3920,-1.1500,-0.6820,3.646
5.3740,3.9560,-1.2160,-0.8640,4.228
5.3840,4.4140,-1.3280,-0.7760,4.674
5.3940,4.8150,-1.4140,-0.4560,5.039
5.4040,5.1970,-1.4600,-0.0040,5.398
5.4140,5.5280,-1.4170,0.5380,5.732
5.4240,5.7800,-1.2880,1.0510,6.014
5.4340,5.8770,-1.0680,1.4330,6.143
5.4440,5.7880,-0.6370,1.7520,6.081
5.4540,5.5170,-0.0750,1.9520,5.853
5.4630,5.2070,0.4330,2.0530,5.614
5.4740,4.8550,0.8250,2.0890,5.349
5.4840,4.3650,1.1480,2.0490,4.957
5.4940,3.8800,1.3360,1.9530,4.545
5.5030,3.5570,1.3970,1.8580,4.249
5.5140,3.4400,1.4010,1.7990,4.127
5.5240,3.4310,1.3960,1.8590,4.144
5.5340,3.4520,1.3840,1.9670,4.207
5.5430,3.5500,1.3400,2.0330,4.305
5.5530,3.6860,1.2970,2.0510,4.413
5.5640,3.8190,1.2070,1.9920,4.473
5.5730,3.9750,1.0930,1.9010,4.540
5.5830,4.0900,1.0100,1.8250,4.591
5.5930,4.1630,0.9160,1.7890,4.623
5.6030,4.2180,0.8010,1.8190,4.663
5.6130,4.2360,0.7270,1.9270,4.710
5.6230,4.3180,0.6790,2.0780,4.840
5.6330,4.4110,0.7350,2.3130,5.035
5.6440,4.5960,0.8350,2.5140,5.305
5.6530,4.8900,0.8730,2.6430,5.627
5.6630,5.2960,0.9130,2.6890,6.009
5.6730,5.7560,1.0980,2.6970,6.451
5.6830,6.1880,1.4050,2.6910,6.893
5.6930,6.5700,1.7140,2.6360,7.284
5.7030,6.9300,1.9400,2.5140,7.623
5.7130,7.3540,2.0280,2.3950,7.996
5.7230,7.7770,2.0130,2.3170,8.361
5.7330,8.0970,1.9880,2.3220,8.655
5.7430,8.2840,1.9290,2.3890,8.835
5.7530,8.4810,1.8120,2.4690,9.017
5.7630,8.7300,1.6320,2.5850,9.250
5.7740,8.9640,1.3880,2.7290,9.472
5.7830,9.0540,1.0550,2.8030,9.536
5.7930,9.1080,0.5830,2.8980,9.576
5.8030,9.2110,-0.0530,3.0320,9.697
5.8130,9.2530,-0.6750,3.2770,9.839
5.8230,9.0530,-1.0540,3.6320,9.811
5.8330,8.5900,-0.9540,4.1880,9.604
5.8440,7.9730,-0.4340,4.7380,9.285
5.8530,7.3580,0.2240,5.2690,9.053
5.8630,6.8460,0.8950,5.7360,8.976
5.8730,6.5240,1.4800,6.0520,9.021
5.8830,6.4850,1.8420,6.2960,9.224
5.8930,6.6970,2.0220,6.4700,9.529
5.9030,6.9750,2.1170,6.5300,9.786
5.9130,7.2450,2.0200,6.4750,9.925
5.9270,7.5200,1.7560,6.3200,9.979
5.9340,7.7720,1.3940,6.1010,9.978
5.9430,7.9750,0.9170,5.7870,9.896
5.9530,8.0760,0.2880,5.4100,9.725
5.9630,8.0030,-0.4970,5.0460,9.474
5.9730,7.7300,-1.3140,4.6860,9.134
5.9830,7.3140,-2.1780,4.3860,8.802
5.9930,6.8280,-2.9390,4.1490,8.513
6.0030,6.3900,-3.6690,3.9850,8.377
6.0130,5.9110,-4.2100,3.9370,8.256
6.0250,5.3030,-4.4840,3.9620,7.995
6.0330,4.6430,-4.5550,4.0210,7.647
6.0430,3.9770,-4.5370,4.0670,7.276
6.0530,3.2900,-4.3890,4.1140,6.857
6.0630,2.6660,-4.2040,4.1260,6.466
6.0730,2.1220,-4.1080,4.0850,6.170
6.0830,1.7130,-4.2300,3.9770,6.053
6.0970,1.2600,-4.3110,3.8020,5.885
6.1030,0.8990,-4.3700,3.5500,5.702
6.1130,0.6040,-4.1750,3.1210,5.247
6.1230,0.3080,-4.0020,2.5410,4.751
6.1330,0.1230,-3.8750,1.9190,4.326
6.1430,-0.0320,-3.8720,1.3180,4.090
6.1530,-0.1590,-4.0570,0.7580,4.130
6.1630,-0.3160,-4.3860,0.2350,4.404
6.1730,-0.6680,-4.6460,-0.3670,4.708
6.1830,-1.3500,-4.8700,-0.9050,5.134
6.1930,-2.5000,-4.9120,-1.3830,5.682
6.2030,-3.9360,-4.7120,-1.7520,6.385
6.2240,-5.3040,-4.5770,-2.1400,7.325
6.2280,-6.4780,-4.4240,-2.5860,8.260
6.2340,-7.3870,-4.1900,-3.1280,9.050
6.2440,-8.0120,-3.9320,-3.6610,9.647
6.2530,-8.4220,-3.6280,-4.1330,10.059
6.2630,-8.5640,-3.4780,-4.4470,10.257
6.2730,-8.4980,-3.4770,-4.6170,10.277
6.2830,-8.2590,-3.5450,-4.5750,10.085
6.2930,-7.8170,-3.5510,-4.2480,9.579
6.3030,-7.2630,-3.6070,-3.7670,8.942
6.3140,-6.6250,-3.6610,-3.1820,8.211
6.3240,-6.1420,-3.6790,-2.5890,7.613
6.3340,-5.9620,-3.6380,-2.1480,7.307
6.3430,-5.9370,-3.6100,-1.9900,7.228
6.3530,-5.9370,-3.6530,-2.1020,7.281
6.3630,-5.9140,-3.7780,-2.4860,7.445
6.3730,-5.7570,-4.2030,-2.9260,7.705
6.3830,-5.5160,-4.8050,-3.3150,8.031
6.3930,-5.3660,-5.3390,-3.6400,8.399
6.4030,-5.2110,-5.9100,-3.7770,8.738
6.4130,-5.0160,-6.2740,-3.7250,8.854
6.4230,-4.6690,-6.3840,-3.5380,8.664
6.4330,-4.3070,-6.1840,-3.3790,8.259
6.4430,-3.9920,-5.6150,-3.2860,7.633
6.4530,-3.5620,-4.8770,-2.9960,6.742
6.4630,-2.9060,-4.1460,-2.4260,5.614
6.4730,-2.1720,-3.5070,-1.7260,4.472
6.4830,-1.5220,-2.9260,-1.1150,3.482
6.4930,-0.8820,-2.4970,-0.7090,2.741
6.5030,-0.2030,-2.1460,-0.4040,2.193
6.5120,0.4650,-1.8420,-0.1430,1.905
6.5230,1.1370,-1.5550,0.1010,1.929
6.5330,1.7790,-1.3290,0.3710,2.251
6.5430,2.3920,-1.2190,0.6080,2.753
6.5530,3.0010,-1.3020,0.8340,3.376
6.5630,3.5420,-1.5280,1.0090,3.987
6.5730,3.9660,-1.7490,1.1750,4.491
6.5830,4.2590,-1.8750,1.2980,4.831
6.5930,4.4110,-1.9280,1.3480,4.999
6.6030,4.3810,-1.8620,1.2790,4.929
7.8900,4.2880,-1.6730,1.1230,4.738
7.8940,4.1120,-1.3730,0.8590,4.419
7.8950,4.0070,-1.1690,0.6700,4.227
7.8970,3.9780,-1.0630,0.5740,4.157
7.9000,5.1850,-0.8260,2.9250,6.010
7.9050,5.5160,-1.0990,2.9890,6.369
7.9070,5.9210,-1.3510,3.0720,6.806
7.9120,6.3730,-1.5520,3.1940,7.296
7.9220,6.8410,-1.6760,3.3610,7.804
7.9310,7.3200,-1.7580,3.5010,8.302
7.9410,7.9000,-1.7370,3.6630,8.879
7.9530,8.5140,-1.6230,3.8970,9.503
7.9620,9.1410,-1.4520,4.2120,10.169
7.9720,9.8580,-1.2750,4.5560,10.934
7.9820,10.7720,-1.2120,4.8300,11.867
7.9920,11.7390,-1.1740,5.0920,12.850
8.0030,12.4590,-0.9210,5.3190,13.578
8.0120,13.0180,-0.4310,5.4630,14.124
8.0220,13.4130,0.1850,5.5530,14.518
8.0320,13.5720,0.7810,5.6330,14.715
8.0420,13.4690,1.2070,5.7250,14.685
8.0510,13.2520,1.3630,5.8670,14.557
8.0610,12.7630,1.3590,5.9780,14.159
8.0710,12.0500,1.2080,5.9150,13.478
8.0820,11.5430,0.8560,5.7940,12.944
8.0910,11.4380,0.2460,5.5990,12.737
8.1010,11.4140,-0.3550,5.2990,12.589
8.1120,11.2420,-0.7650,4.9180,12.294
8.1220,11.0090,-1.1830,4.5160,11.958
8.1310,10.5820,-1.3590,4.1020,11.430
8.1410,9.9100,-1.1380,3.7680,10.663
8.1510,9.1030,-0.5180,3.5920,9.800
8.1620,8.4200,0.2550,3.6090,9.164
8.1720,8.0600,1.0020,3.6750,8.915
8.1810,8.1000,1.6320,3.7480,9.073
8.1910,8.5690,2.0610,3.8520,9.618
8.2010,9.1250,2.3000,4.0380,10.240
8.2120,9.5690,2.4010,4.1140,10.689
8.2220,9.9830,2.3840,4.0770,11.044
8.2310,10.4430,2.2080,3.9460,11.380
8.2410,10.8060,1.8590,3.7220,11.579
8.2520,11.0280,1.3560,3.5100,11.652
8.2610,11.0520,0.7020,3.4110,11.588
8.2710,10.9660,-0.0400,3.4260,11.489
8.2810,10.7710,-0.8000,3.5440,11.367
8.2910,10.3970,-1.5130,3.7260,11.148
8.3020,9.9340,-2.1290,3.8730,10.873
8.3110,9.4440,-2.6090,3.9650,10.570
8.3210,8.8740,-2.9170,4.1200,10.209
8.3320,8.2780,-3.0230,4.2180,9.770
8.3420,7.6060,-3.0650,4.2610,9.241
8.3520,6.8890,-3.0040,4.2270,8.623
8.3610,6.1160,-2.8860,4.1900,7.956
8.3710,5.3380,-2.7200,4.1600,7.294
8.3820,4.7980,-2.8070,4.1770,6.953
8.3910,4.1980,-2.9530,4.1800,6.619
8.4020,3.3400,-2.9860,4.0720,6.054
8.4110,2.6220,-3.0630,3.7850,5.530
8.4220,2.0510,-3.2110,3.3450,5.070
8.4310,1.5150,-3.3820,2.7890,4.638
8.4410,1.0440,-3.5420,2.2700,4.335
8.4510,0.5610,-3.6730,1.8220,4.138
8.4620,0.0020,-3.7210,1.4340,3.988
8.4720,-0.5140,-3.7910,1.1040,3.982
8.4820,-1.0910,-3.8720,0.8150,4.104
8.4920,-1.8280,-3.8620,0.6080,4.316
8.5020,-2.6180,-3.7360,0.3880,4.578
8.5120,-3.4520,-3.6360,0.0880,5.014
8.5220,-4.2480,-3.4760,-0.2450,5.494
8.5320,-4.8700,-3.2390,-0.6000,5.879
8.5430,-5.2730,-2.9540,-0.8610,6.105
8.5520,-5.5240,-2.5520,-0.9460,6.158
8.5620,-5.7140,-2.0690,-0.8070,6.130
8.5710,-5.6970,-1.8560,-0.4640,6.010
8.5820,-5.5160,-2.0710,0.0400,5.892
8.5910,-5.3820,-2.4100,0.4230,5.912
8.6020,-5.3000,-2.6820,0.6030,5.970
8.6110,-5.2760,-2.7540,0.6110,5.983
8.6210,-5.3000,-2.6600,0.5670,5.957
8.6310,-5.2660,-2.5100,0.4410,5.850
8.6420,-5.2150,-2.4450,0.2740,5.766
8.6510,-5.1050,-2.5430,0.1020,5.704
8.6620,-4.8970,-2.8550,-0.0550,5.669
8.6710,-4.6120,-3.3560,-0.2200,5.708
8.6810,-4.3060,-3.9630,-0.4020,5.866
8.6910,-4.1390,-4.3140,-0.5920,6.008
8.7010,-4.1130,-4.4010,-0.7400,6.069
8.7110,-4.0330,-4.3240,-0.8720,5.977
8.7220,-3.8750,-4.1840,-0.9380,5.779
8.7310,-3.7190,-3.9040,-0.9310,5.472
8.7410,-3.6320,-3.2740,-0.6750,4.936
8.7510,-3.5550,-2.4740,-0.1980,4.336
8.7620,-3.3120,-1.7380,0.3440,3.756
8.7720,-2.7820,-1.2370,0.8350,3.157
8.7830,-2.0830,-1.0150,1.1670,2.594
8.7910,-1.3300,-0.9770,1.3490,2.131
8.8010,-0.6820,-0.8760,1.4510,1.827
8.8110,-0.1370,-0.6850,1.4310,1.592
8.8210,0.3880,-0.5140,1.3070,1.457
8.8310,0.9660,-0.5100,1.0410,1.509
8.8420,1.4360,-0.6420,0.6900,1.718
8.8510,1.6960,-0.7650,0.3430,1.892
8.8610,1.7890,-0.7750,0.0640,1.951
8.8710,1.8220,-0.7370,-0.1310,1.970
8.8820,1.8760,-0.6860,-0.2820,2.017
8.8910,1.8970,-0.6340,-0.4240,2.045
8.9010,1.8920,-0.5170,-0.4810,2.019
8.9110,1.7900,-0.3330,-0.4590,1.878
8.9220,1.6720,-0.1150,-0.3160,1.705
8.9310,1.6420,0.0420,-0.1200,1.647
8.9410,1.6840,0.1590,0.1400,1.697
8.9510,1.7700,0.2570,0.4000,1.833
8.9610,1.8890,0.3280,0.7340,2.053
8.9710,2.1000,0.2650,1.0810,2.377
8.9810,2.4070,0.1020,1.4330,2.803
8.9910,2.7650,-0.1140,1.7630,3.281
9.0020,3.1880,-0.3560,2.0740,3.820
9.0110,3.5940,-0.5560,2.3100,4.308
9.0210,3.9980,-0.8100,2.5020,4.785
9.0310,4.3640,-1.1320,2.7010,5.256
9.0420,4.6910,-1.4770,2.8590,5.689
9.0510,5.0450,-1.7940,3.0040,6.140
9.0610,5.6030,-2.0550,3.2450,6.793
9.0710,6.2520,-2.1930,3.4700,7.479
9.0810,6.8530,-2.1910,3.6810,8.082
9.0910,7.5440,-2.0340,3.9000,8.733
9.1020,8.2960,-1.6920,4.1630,9.435
9.1110,9.0430,-1.2190,4.5200,10.183
9.1210,9.6540,-0.6580,4.8340,10.817
9.1310,10.3430,-0.1180,4.9190,11.454
9.1410,11.2730,0.2920,4.8270,12.266
9.1510,12.2780,0.6500,4.5480,13.109
9.1610,13.3950,0.9970,4.2970,14.103
9.1710,14.4670,1.3800,4.0990,15.100
9.1810,15.1710,1.8470,3.9900,15.795
9.1910,15.4740,2.2220,4.0230,16.142
9.2010,15.3500,2.3310,4.0900,16.056
9.2110,14.8620,2.1130,4.1540,15.576
9.2210,14.3610,1.5940,4.1130,15.023
9.2310,14.0560,0.8460,3.8770,14.605
9.2410,13.9110,0.1710,3.5590,14.360
9.2510,13.7160,-0.1480,3.2400,14.094
9.2600,13.3900,-0.1870,3.0430,13.733
9.2710,12.8620,0.1460,2.9850,13.205
9.2800,12.2520,0.7170,3.0910,12.656
9.2910,11.6550,1.4050,3.2230,12.174
9.3010,11.1500,1.9880,3.2850,11.793
9.3100,10.7360,2.4180,3.2580,11.477
9.3200,10.4350,2.7160,3.1140,11.223
9.3320,10.2110,2.7670,2.9720,10.989
9.3400,10.0290,2.5800,2.8100,10.730
9.3500,9.8000,2.2330,2.7250,10.414
9.3600,9.4870,1.8310,2.7160,10.037
9.3720,9.1100,1.4150,2.7810,9.630
9.3800,8.7860,0.7960,2.8550,9.272
9.3900,8.4850,0.0160,2.9690,8.989
9.4000,8.0860,-0.7070,3.1210,8.696
9.4110,7.5960,-1.2990,3.2940,8.381
9.4200,7.1390,-1.8750,3.4040,8.128
9.4300,6.6800,-2.2960,3.6140,7.934
9.4410,6.2220,-2.6130,3.8600,7.774
18.7340,5.7000,-2.6390,4.0210,7.458
18.7360,5.2220,-2.4750,4.0440,7.053
18.7370,4.8040,-2.2780,3.9230,6.607
18.7390,4.9610,-1.6040,3.7680,6.433
18.7400,4.5030,-1.2370,3.8940,6.080
18.7440,3.9210,-0.8800,3.9800,5.656
18.7540,3.3390,-0.6080,4.0560,5.289
18.7640,2.7240,-0.4360,4.0390,4.891
18.7730,2.1440,-0.3200,3.9550,4.510
18.7830,1.6610,-0.3160,3.7580,4.121
18.7930,1.2960,-0.4010,3.4300,3.689
18.8040,1.0270,-0.4980,3.0330,3.241
18.8130,0.8080,-0.5760,2.6160,2.798
18.8230,0.6470,-0.7570,2.2170,2.430
18.8330,0.4560,-0.9430,1.8200,2.100
18.8430,0.2270,-1.0980,1.4330,1.820
18.8530,0.0060,-1.2910,1.0400,1.658
18.8630,-0.2410,-1.5070,0.6700,1.667
18.8730,-0.5740,-1.5920,0.3030,1.719
18.8830,-1.0340,-1.5520,0.0240,1.865
18.8930,-1.4520,-1.5290,-0.1880,2.117
18.9030,-1.8140,-1.6010,-0.3200,2.441
18.9130,-2.1580,-1.6360,-0.3780,2.734
18.9240,-2.5410,-1.7030,-0.4300,3.089
18.9330,-2.9020,-1.8390,-0.4790,3.469
18.9430,-3.2900,-1.9950,-0.5350,3.885
18.9530,-3.6930,-2.1400,-0.6540,4.318
18.9630,-4.0950,-2.3370,-0.8250,4.787
18.9730,-4.4720,-2.4480,-0.9220,5.181
18.9830,-4.8790,-2.3700,-0.9340,5.504
18.9930,-5.3260,-2.0050,-0.9390,5.768
19.0030,-5.6400,-1.6510,-1.0050,5.962
19.0130,-5.5620,-1.5660,-1.0380,5.871
19.0230,-5.2340,-1.6800,-1.0050,5.588
19.0330,-4.8120,-2.0260,-0.8640,5.292
19.0430,-4.2520,-2.5740,-0.6270,5.010
19.0530,-3.6020,-3.0880,-0.3670,4.759
19.0630,-3.0720,-3.3620,-0.1790,4.558
19.0730,-2.7370,-3.4590,-0.0010,4.411
19.0830,-2.4910,-3.5810,0.1330,4.364
19.0930,-2.2840,-3.5920,0.2370,4.263
19.1030,-2.2080,-3.2470,0.3040,3.938
19.1130,-2.2050,-2.4700,0.3420,3.329
19.1230,-2.1680,-1.5040,0.3900,2.667
19.1330,-1.8760,-0.5180,0.4380,1.995
19.1480,-1.3630,0.3100,0.4960,1.483
19.1530,-0.7350,0.8280,0.4980,1.214
19.1640,0.0270,1.0300,0.4300,1.116
19.1740,0.8800,0.9710,0.2490,1.334
19.1840,1.7460,0.8130,0.0160,1.926
19.1940,2.5380,0.6420,-0.2710,2.632
19.2050,3.1920,0.5560,-0.5940,3.294
19.2130,3.6460,0.3340,-0.9890,3.792
19.2230,3.8380,-0.0530,-1.3610,4.073
19.2330,3.7520,-0.4980,-1.6510,4.129
19.2430,3.4840,-0.9070,-1.8250,4.036
19.2530,3.1090,-1.0640,-1.8340,3.763
19.2630,2.7430,-1.0180,-1.6940,3.381
19.2730,2.5290,-0.7710,-1.3170,2.954
19.2830,2.4160,-0.3900,-0.8040,2.576
19.2930,2.5080,0.0600,-0.2640,2.523
19.3030,2.6480,0.4630,0.2260,2.698
19.3130,2.7510,0.8750,0.5980,2.948
19.3230,2.7600,1.2240,0.8770,3.144
19.3350,2.7590,1.5130,1.1380,3.346
19.3430,2.7390,1.6710,1.2890,3.458
19.3530,2.8230,1.6700,1.3320,3.540
19.3630,3.0050,1.5820,1.3610,3.659
19.3730,3.2450,1.4650,1.3920,3.823
19.3830,3.4450,1.4090,1.4860,4.008
19.3930,3.6320,1.3750,1.5910,4.197
19.4030,3.8450,1.3130,1.6700,4.393
19.4130,4.0610,1.2400,1.7490,4.592
19.4230,4.3000,1.1670,1.7880,4.801
19.4330,4.6260,0.9930,1.8670,5.086
19.4430,5.0570,0.7720,1.9370,5.470
19.4530,5.4840,0.6910,2.0680,5.902
19.4630,5.8040,0.7280,2.2680,6.274
19.4730,6.0590,0.8380,2.4460,6.588
19.4830,6.3910,0.9230,2.6430,6.977
19.4940,6.8180,1.0400,2.8200,7.451
19.5030,7.1460,1.2400,2.9760,7.840
19.5130,7.4230,1.4280,3.1180,8.177
19.5230,7.6550,1.5390,3.2140,8.444
19.5330,7.8710,1.5950,3.3030,8.684
19.5430,8.0870,1.4970,3.3310,8.873
19.5530,8.3080,1.3130,3.2690,9.024
19.5630,8.5030,1.0860,3.1000,9.115
19.5730,8.6750,0.8850,2.8920,9.187
19.5830,8.7900,0.6480,2.6630,9.207
19.5930,8.9700,0.4730,2.4890,9.321
19.6030,9.2360,0.2270,2.3420,9.531
19.6130,9.6120,-0.2350,2.2490,9.874
19.6230,10.1150,-0.9280,2.2330,10.400
19.6330,10.4960,-1.5750,2.3540,10.871
19.6430,10.5680,-1.8130,2.6060,11.035
19.6520,10.6000,-1.6230,2.9270,11.116
19.6630,10.7140,-1.1970,3.1620,11.235
19.6720,10.7230,-0.5930,3.3100,11.238
19.6830,10.5680,0.3260,3.4920,11.135
19.6920,10.4110,1.3410,3.6650,11.118
19.7020,10.3450,2.3020,3.8130,11.263
19.7120,10.3220,3.0870,3.9170,11.464
19.7230,10.3840,3.6450,4.0760,11.736
19.7320,10.4530,3.8890,4.2700,11.942
19.7420,10.4550,3.7930,4.4670,11.985
19.7520,10.2870,3.3790,4.6180,11.771
19.7630,9.7230,2.8020,4.5550,11.097
19.7730,9.0540,2.0870,4.2480,10.216
19.7830,8.6370,1.2760,3.8640,9.548
19.7930,8.2630,0.3070,3.4840,8.973
19.8030,7.7700,-0.6900,3.2090,8.435
19.8130,7.1070,-1.5020,3.0550,7.880
19.8240,6.4660,-2.1610,2.9600,7.432
19.8330,5.8550,-2.5600,2.9140,7.023
19.8440,5.3170,-2.6610,2.8980,6.614
19.8530,4.8680,-2.5250,2.9860,6.244
19.8630,4.4300,-2.2420,3.0850,5.845
19.8730,4.0190,-1.9000,3.1010,5.420
19.8870,3.6860,-1.6430,3.1200,5.101
19.8960,3.3900,-1.4120,3.0780,4.792
19.9030,2.9770,-1.1760,3.0400,4.414
19.9130,2.5560,-1.0090,2.9840,4.057
19.9230,2.2040,-0.9500,2.9070,3.770
19.9330,1.9120,-1.0020,2.7150,3.469
19.9430,1.6120,-1.1000,2.4480,3.131
19.9530,1.2710,-1.1550,2.2230,2.809
19.9630,0.8760,-1.1520,2.0150,2.481
19.9720,0.4370,-1.0780,1.8420,2.179
19.9820,-0.0580,-0.9850,1.6280,1.904
19.9920,-0.5050,-0.9160,1.3850,1.736
20.0020,-0.9710,-0.8680,1.1600,1.744
20.0120,-1.4800,-0.7360,0.9070,1.885
20.0220,-1.8770,-0.6180,0.6450,2.079
20.0320,-2.2270,-0.5920,0.3860,2.336
20.0430,-2.5420,-0.5150,0.1430,2.598
20.0520,-2.8430,-0.4420,-0.0780,2.878
20.0620,-3.1780,-0.4110,-0.3480,3.223
20.0720,-3.5130,-0.4260,-0.5720,3.585
20.0820,-3.8100,-0.5050,-0.7990,3.925
20.0920,-4.0430,-0.6050,-1.0260,4.215
20.1020,-4.1150,-0.7520,-1.2100,4.355
20.1120,-4.0070,-1.0110,-1.3700,4.354
20.1230,-3.9010,-1.3400,-1.4140,4.360
20.1320,-3.9600,-1.5500,-1.3750,4.469
20.1420,-4.1720,-1.6630,-1.2570,4.664
20.1520,-4.2980,-1.7480,-1.1280,4.775
20.1620,-4.2400,-1.7510,-1.0350,4.703
20.1720,-4.0810,-1.6080,-0.9780,4.494
20.1820,-3.6980,-1.5420,-0.9150,4.110
20.1920,-3.1590,-1.8200,-0.8680,3.748
20.2020,-2.5830,-2.3130,-0.8470,3.569
20.2120,-2.0100,-2.8590,-0.8860,3.605
20.2220,-1.4820,-3.3110,-0.9950,3.762
20.2320,-1.1160,-3.6330,-1.1270,3.964
20.2420,-0.9370,-3.7010,-1.2860,4.029
20.2520,-0.7540,-3.7050,-1.3730,4.023
20.2620,-0.7720,-3.5440,-1.3630,3.875
20.2720,-1.2150,-3.0080,-1.3070,3.498
20.2820,-1.7230,-2.1730,-1.1010,2.984
20.2920,-1.9940,-1.2700,-0.7710,2.487
20.3020,-1.9690,-0.4580,-0.3570,2.053
20.3120,-1.4430,0.1280,0.0770,1.451
20.3220,-0.6610,0.4280,0.3910,0.879
20.3320,0.1100,0.4470,0.4970,0.677
20.3420,0.8700,0.2850,0.3980,0.998
20.3520,1.6620,0.1010,0.2010,1.677
20.3620,2.3750,-0.0200,-0.0010,2.375
20.3720,2.9400,-0.2630,-0.2380,2.961
20.3820,3.3490,-0.5850,-0.5140,3.438
20.3920,3.5320,-0.9300,-0.7820,3.735
20.4020,3.4480,-1.1810,-0.9740,3.773
20.4120,3.1990,-1.2990,-1.0040,3.596
20.4220,2.9210,-1.2770,-0.9020,3.313
20.4320,2.6800,-1.0250,-0.6570,2.944
20.4420,2.5790,-0.5990,-0.3020,2.665
20.4520,2.6050,-0.0120,0.1290,2.608
20.4620,2.7400,0.6200,0.5910,2.871
20.4720,2.9140,1.1870,0.9460,3.286
20.4830,3.1230,1.6430,1.2540,3.745
20.4930,3.3860,2.0350,1.4740,4.217
20.5030,3.7240,2.2890,1.6440,4.670
20.5130,4.1040,2.4450,1.7350,5.082
20.5230,4.4450,2.5470,1.7540,5.415
20.5330,4.7420,2.5670,1.7260,5.662
20.5420,4.9630,2.4460,1.6670,5.779
20.5520,5.1420,2.2020,1.6200,5.824
20.5640,5.2330,1.9100,1.6330,5.805
20.5740,5.3030,1.6580,1.7310,5.820
20.5820,5.4140,1.3440,1.8540,5.878
20.5940,5.6250,0.9800,2.0500,6.067
20.6040,5.8160,0.6840,2.2630,6.278
20.6130,6.0340,0.5580,2.4330,6.530
20.6260,6.3070,0.4080,2.6000,6.834
20.6340,6.6400,0.2570,2.8030,7.212
20.6430,6.9500,0.1910,3.0480,7.591
20.6550,7.2060,0.2930,3.3050,7.933
20.6650,7.3020,0.5480,3.5460,8.136
20.6750,7.3940,0.7880,3.6940,8.303
20.6850,7.6290,0.9430,3.7910,8.571
20.6920,7.9660,1.0750,3.8760,8.924
20.7030,8.3370,1.1460,3.9780,9.308
20.7120,8.7460,1.1840,4.0490,9.710
20.7240,9.1460,1.2250,4.1150,10.104
20.7340,9.5280,1.1580,4.1240,10.447
20.7440,9.7910,1.0770,4.0440,10.648
20.7550,9.9570,0.9650,3.9000,10.737
20.7650,10.0730,0.7690,3.7040,10.760
20.7730,10.2090,0.4370,3.4470,10.784
20.7830,10.3660,-0.1360,3.1880,10.846
20.7920,10.4450,-0.6920,3.0420,10.901
20.8020,10.4420,-0.9590,3.0610,10.924
20.8120,10.4110,-0.9680,3.1700,10.926
20.8240,10.4360,-0.7870,3.3060,10.975
20.8340,10.3250,-0.4730,3.4180,10.886
20.8440,10.0000,0.0490,3.5250,10.603
20.8540,9.6050,0.7450,3.6460,10.301
20.8640,9.2020,1.3790,3.8060,10.053
20.8750,8.8280,1.8740,3.9390,9.847
20.8860,8.4130,2.1560,4.0270,9.573
20.9170,8.0190,2.2020,4.0250,9.239
20.9190,7.7090,2.0380,3.9650,8.905
20.9210,7.4270,1.7000,3.8220,8.524
20.9230,7.2190,1.2510,3.6610,8.190
20.9320,7.0440,0.7420,3.4900,7.896
20.9420,6.7860,0.2160,3.3150,7.556
20.9520,6.4760,-0.3540,3.1760,7.222
20.9650,6.0840,-0.9040,3.0950,6.886
20.9730,5.6010,-1.2900,3.1360,6.548
20.9830,5.0450,-1.4750,3.2430,6.176
20.9920,4.5500,-1.5260,3.3120,5.831
21.0030,4.1700,-1.4000,3.3440,5.526
21.0120,3.9130,-1.2340,3.3640,5.306
21.0230,3.7470,-0.8570,3.3870,5.123
21.0320,3.6730,-0.3930,3.3710,5.001
21.0420,3.6560,0.0220,3.3060,4.929
21.0520,3.5030,0.3800,3.1970,4.758
21.0640,3.1780,0.6670,3.0590,4.461
21.0720,2.8280,0.8120,2.8800,4.117
21.0820,2.4910,0.8120,2.7180,3.775
21.0920,2.0950,0.7510,2.5380,3.376
21.1020,1.7380,0.6890,2.3220,2.981
21.1140,1.4650,0.5240,2.0780,2.596
21.1240,1.1980,0.3370,1.8010,2.189
21.1340,0.8610,0.1340,1.5020,1.736
21.1450,0.5310,-0.1280,1.2160,1.333
21.1540,0.1700,-0.3270,0.9720,1.040
21.1620,-0.2100,-0.3650,0.8540,0.952
21.1730,-0.5570,-0.4300,0.7960,1.062
21.1830,-0.9020,-0.5250,0.7310,1.274
21.1930,-1.2640,-0.6340,0.6920,1.574
21.2040,-1.5440,-0.7520,0.7540,1.876
21.2120,-1.7660,-0.9020,0.8670,2.164
21.2210,-2.1140,-1.0100,0.9370,2.523
21.2320,-2.6680,-1.0090,0.9430,3.004
21.2420,-3.1950,-1.0360,0.8370,3.461
21.2540,-3.6500,-1.1510,0.6210,3.877
21.2640,-4.0870,-1.2450,0.3410,4.286
21.2740,-4.2470,-1.4690,0.0940,4.495
21.2840,-4.0310,-1.8840,-0.1160,4.451
21.2940,-3.6750,-2.1530,-0.2690,4.268
21.3040,-3.3180,-2.1880,-0.3940,3.994
21.3130,-2.9850,-2.0670,-0.4260,3.656
21.3980,-2.6620,-1.8640,-0.3120,3.265
21.4070,-2.2910,-1.8090,0.0430,2.919
21.4100,-1.8680,-2.1020,0.5000,2.856
21.4150,-1.2670,-2.8300,0.8050,3.203
21.4160,-0.7800,-3.7660,0.7120,3.911
21.4170,-1.4120,-4.5540,-0.0190,4.768
21.4180,-1.8780,-4.7260,-0.1700,5.088
21.4190,-2.6320,-4.5740,-0.2180,5.282
21.4220,-3.6390,-3.8260,-0.1350,5.282
21.4230,-4.3290,-2.7880,0.0990,5.150
21.4320,-4.4590,-1.8220,0.4550,4.838
21.4420,-4.0340,-1.1200,0.9350,4.290
21.4520,-3.0560,-0.8760,1.4360,3.488
21.4650,-1.7210,-0.8010,1.8020,2.617
21.4710,-0.5690,-0.7880,1.9120,2.145
21.4810,0.5730,-0.7980,1.7490,2.006
21.4910,1.6980,-0.7940,1.4130,2.347
21.5020,2.7570,-0.7380,0.9630,3.012
21.5120,3.6030,-0.6070,0.4490,3.681
21.5220,4.1850,-0.5370,-0.0940,4.220
21.5310,4.4270,-0.4150,-0.6870,4.499
21.5420,4.2910,-0.2470,-1.2090,4.465
21.5510,3.8650,0.0630,-1.5970,4.182
21.5610,3.4740,0.5010,-1.8480,3.967
21.5730,3.2570,0.9210,-2.0620,3.963
21.5840,3.2250,1.3350,-2.1420,4.095
21.5940,3.3270,1.7430,-2.0790,4.293
21.6030,3.5100,2.1010,-1.9020,4.511
21.6130,3.7040,2.4360,-1.6190,4.720
21.6240,3.8420,2.6850,-1.3100,4.867
21.6350,3.9570,2.8020,-1.0430,4.960
21.6440,4.1110,2.8170,-0.8060,5.048
21.6540,4.1500,2.7370,-0.5810,5.005
21.6640,4.0860,2.6140,-0.4220,4.869
21.6740,3.9880,2.3580,-0.2760,4.641
21.6840,3.9570,2.0790,-0.1090,4.471
21.6940,3.9640,1.8490,0.1450,4.376
21.7020,4.0450,1.6670,0.4920,4.403
21.7140,4.2030,1.4680,0.9050,4.543
21.7240,4.4290,1.2820,1.3190,4.796
21.7340,4.6640,1.1660,1.7060,5.101
21.7420,4.9610,1.0380,2.0690,5.474
21.7520,5.3180,0.9400,2.3720,5.898
21.7620,5.6750,0.9170,2.6560,6.333
21.7730,5.9820,0.9820,2.8180,6.685
21.7840,6.2470,1.0790,2.8910,6.968
21.7930,6.5720,1.1920,2.9420,7.298
21.8040,7.0230,1.3390,2.9780,7.745
21.8110,7.5590,1.4750,3.0230,8.274
21.8220,8.1280,1.5670,3.0490,8.821
21.8330,8.6690,1.6880,3.0350,9.339
21.8430,9.1440,1.8050,2.9650,9.781
21.8530,9.5510,1.8670,2.8580,10.143
21.8630,9.8410,1.8740,2.6400,10.360
21.8730,9.9580,1.8720,2.3060,10.392
21.8840,9.9380,1.7840,1.9330,10.280
21.8930,9.8270,1.6490,1.5580,10.085
21.9030,9.7080,1.3210,1.2040,9.871
21.9140,9.7430,0.6740,0.9490,9.812
21.9230,9.9250,-0.1200,0.8120,9.959
21.9350,10.0910,-0.7510,0.8440,10.154
21.9430,10.1210,-1.0980,1.0270,10.232
21.9520,10.1670,-1.1080,1.2770,10.307
21.9630,10.1210,-0.7740,1.4900,10.259
21.9730,9.9710,-0.1860,1.6500,10.108
21.9820,9.7220,0.5630,1.8570,9.914
21.9920,9.2890,1.3360,2.0660,9.609
22.0020,8.9190,1.9590,2.2290,9.400
22.0130,8.7020,2.3860,2.4700,9.355
22.0240,8.5140,2.5380,2.7550,9.302
22.0330,8.3040,2.4360,3.0110,9.163
22.0440,8.0010,2.1670,3.2630,8.908
22.0540,7.6230,1.7350,3.3990,8.525
22.0640,7.2020,1.1690,3.3100,8.012
22.0730,6.8820,0.5100,3.1070,7.568
22.0870,6.6190,-0.2300,2.8960,7.228
22.0920,6.2390,-1.0290,2.7700,6.903
22.1020,5.7540,-1.6860,2.7070,6.579
22.1110,5.2890,-2.1800,2.7600,6.352
22.1220,4.8760,-2.4320,2.8130,6.132
22.1340,4.4920,-2.4120,2.8480,5.840
22.1440,4.1800,-2.1840,2.8810,5.527
22.1540,3.9080,-1.8040,2.8800,5.179
22.1640,3.6150,-1.3340,2.8970,4.821
22.1740,3.3080,-0.8500,2.8940,4.477
22.1830,2.9570,-0.3490,2.9480,4.190
22.1930,2.5230,0.0850,2.9820,3.907
22.2020,2.0600,0.3530,2.9900,3.648
22.2120,1.5360,0.5020,2.8960,3.316
22.2210,1.0380,0.5350,2.7140,2.955
22.2330,0.6130,0.4630,2.4460,2.564
22.2440,0.3310,0.3410,2.1020,2.155
22.2520,0.0870,0.1470,1.7530,1.761
22.2610,-0.1900,-0.0620,1.3400,1.355
22.2710,-0.4720,-0.2370,0.9650,1.100
22.2810,-0.7600,-0.4190,0.5460,1.025
22.2940,-1.0500,-0.5700,0.1490,1.204
22.3030,-1.3880,-0.6340,-0.1100,1.530
22.3140,-1.7540,-0.6870,-0.3090,1.909
22.3230,-2.1350,-0.7800,-0.4710,2.321
22.3340,-2.5290,-0.8270,-0.5870,2.725
22.3430,-2.9310,-0.9780,-0.5920,3.146
22.3530,-3.3990,-1.0610,-0.4740,3.592
22.3630,-4.0120,-0.8720,-0.3340,4.119
22.3720,-4.4690,-0.6820,-0.1270,4.523
22.3830,-4.5370,-0.8510,0.0020,4.616
22.3920,-4.5660,-1.1670,0.1310,4.715
22.4020,-4.6150,-1.4970,0.2510,4.858
22.4120,-4.5560,-1.9420,0.2580,4.959
22.4230,-4.4720,-2.4170,0.1250,5.085
22.4320,-4.4760,-2.7230,-0.0840,5.240
22.4420,-4.5020,-2.8200,-0.2830,5.320
22.4530,-4.4980,-2.6630,-0.4430,5.246
22.4790,-4.4290,-2.4870,-0.5640,5.111
22.4810,-4.1530,-2.6160,-0.6750,4.954
22.4830,-3.7770,-2.9610,-0.7990,4.865
22.4940,-3.3460,-3.4410,-0.9170,4.886
22.5010,-2.8880,-4.0440,-0.9300,5.056
22.5130,-2.5700,-4.3820,-0.7660,5.137
22.5230,-2.3710,-4.3690,-0.4860,4.995
22.5330,-2.0890,-4.2390,-0.2300,4.731
22.5430,-1.8730,-3.8750,-0.0720,4.305
22.5530,-1.7470,-3.1900,0.0220,3.637
22.5630,-1.5910,-2.2540,0.1350,2.762
22.5730,-1.3770,-1.2500,0.3340,1.889
22.5830,-1.0150,-0.3270,0.6600,1.254
22.5930,-0.4850,0.3030,1.0480,1.194
22.6030,0.2590,0.5890,1.4260,1.564
22.6140,1.0670,0.6460,1.7190,2.124
22.6220,1.8880,0.6100,1.8430,2.708
22.6330,2.6860,0.5650,1.7480,3.254
22.6430,3.4810,0.4860,1.4900,3.818
22.6530,4.2070,0.3310,1.0530,4.349
22.6610,4.7620,0.0390,0.5380,4.792
22.6720,5.0160,-0.3450,0.0180,5.028
22.6830,4.9350,-0.6850,-0.4120,4.999
22.6930,4.6400,-0.8940,-0.6670,4.772
22.7040,4.4360,-0.9790,-0.7660,4.607
22.7120,4.3570,-0.9180,-0.6970,4.507
22.7230,4.3850,-0.6840,-0.4790,4.464
22.7330,4.6000,-0.2000,-0.0900,4.605
22.7420,4.8700,0.4620,0.3620,4.905
22.7520,5.0650,1.1370,0.7640,5.247
22.7620,5.1750,1.6100,1.0350,5.518
22.7730,5.3520,1.9190,1.1910,5.809
22.7830,5.5770,2.1550,1.3220,6.123
22.7920,5.8370,2.3690,1.5450,6.486
22.8020,6.0990,2.5320,1.7300,6.827
22.8120,6.3280,2.6170,1.8160,7.084
22.8220,6.5590,2.6540,1.8000,7.301
22.8310,6.8060,2.6400,1.6710,7.489
22.8430,7.0160,2.6320,1.4860,7.639
22.8520,7.0500,2.6250,1.2630,7.628
22.8620,7.0230,2.5740,1.0930,7.559
22.8730,6.9700,2.3740,0.9170,7.420
22.8830,6.8980,2.1460,0.7070,7.259
22.8920,6.8340,1.9530,0.4520,7.122
22.9010,6.7750,1.8680,0.2370,7.032
22.9110,6.7770,1.8230,0.0220,7.018
22.9210,6.8060,1.7610,-0.1360,7.031
22.9340,6.8820,1.7500,-0.2040,7.104
22.9410,7.0590,1.7990,-0.2140,7.288
22.9520,7.3050,1.8950,-0.1550,7.548
22.9600,7.5630,2.0360,-0.0950,7.833
22.9720,7.7880,2.1440,-0.0570,8.078
22.9810,8.0180,2.1770,-0.0330,8.308
22.9900,8.1980,2.1910,-0.0550,8.486
23.0010,8.3640,2.1380,-0.0810,8.633
23.0140,8.4560,2.0680,-0.1080,8.706
23.0210,8.5190,1.9920,-0.1430,8.750
23.0300,8.6000,1.7700,-0.2020,8.783
23.0400,8.7490,1.3530,-0.2320,8.856
23.0530,8.9480,0.7180,-0.2840,8.981
23.0620,9.2330,-0.0930,-0.1490,9.235
23.0720,9.4860,-0.7830,0.0490,9.518
23.0820,9.6700,-1.2540,0.3730,9.758
23.0930,9.8350,-1.3160,0.7300,9.949
23.1020,9.8920,-1.0170,0.9730,9.992
23.1100,9.6910,-0.3010,1.1090,9.759
23.1220,9.4450,0.4790,1.2200,9.536
23.1310,9.3140,1.1870,1.3660,9.488
23.1420,9.2480,1.7340,1.5180,9.531
23.1520,9.2640,2.0620,1.6890,9.640
23.1620,9.3470,2.1260,1.8410,9.761
23.1720,9.3710,1.9600,1.9650,9.773
23.1820,9.2600,1.6170,2.0810,9.628
23.1920,8.9880,1.1090,2.1790,9.315
23.2020,8.4590,0.4650,2.2080,8.755
23.2130,7.8290,-0.2600,2.1330,8.119
23.2210,7.2650,-0.9690,1.9640,7.588
23.2300,6.6160,-1.5690,1.8900,7.057
23.2440,5.7780,-1.9110,1.8840,6.371
23.2510,4.9280,-2.1270,1.9620,5.715
23.2620,4.0630,-2.1480,2.0950,5.051
23.2710,3.2420,-1.9760,2.2190,4.398
23.2800,2.5380,-1.7640,2.3940,3.910
23.2900,1.8770,-1.3810,2.4980,3.416
23.3010,1.2700,-0.8890,2.6240,3.048
23.3110,0.7720,-0.4220,2.7420,2.880
23.3240,0.3570,-0.0870,2.8650,2.888
23.3320,-0.0120,0.1090,2.9420,2.944
23.3420,-0.3950,0.2130,2.9110,2.945
23.3510,-0.7160,0.3430,2.8290,2.938
23.3600,-0.9650,0.4790,2.6810,2.889
23.3710,-1.1680,0.5310,2.4190,2.738
23.3800,-1.2880,0.4430,2.0630,2.472
23.3930,-1.3500,0.2510,1.7140,2.196
23.4010,-1.4780,0.0840,1.4080,2.043
23.4110,-1.6510,0.0760,1.1040,1.988
23.4200,-1.8050,0.1320,0.7840,1.972
23.4320,-1.9130,0.1330,0.4150,1.962
23.4420,-1.9860,0.1090,0.0280,1.989
23.4520,-2.0830,0.0850,-0.3270,2.110
23.4660,-2.2150,0.1130,-0.5840,2.293
23.4700,-2.3510,0.1650,-0.7390,2.470
23.4800,-2.5320,0.2290,-0.7950,2.664
23.4900,-2.6480,0.1950,-0.7590,2.762
23.5000,-2.7020,0.0560,-0.6300,2.775
23.5110,-2.7700,-0.1870,-0.5520,2.831
23.5190,-2.9270,-0.5320,-0.5080,3.018
23.5310,-3.0370,-0.8950,-0.4330,3.196
23.5400,-3.0290,-1.3230,-0.3500,3.324
23.5500,-2.9100,-1.7870,-0.2540,3.424
23.5620,-2.6900,-2.0840,-0.1760,3.407
23.5720,-2.3700,-2.2360,-0.0960,3.260
23.5810,-2.0800,-2.3290,-0.0470,3.123
23.5930,-2.0820,-2.2780,-0.0760,3.087
23.6020,-2.2040,-2.2540,-0.2030,3.159
23.6120,-2.2390,-2.5350,-0.3850,3.404
23.6220,-2.2000,-3.2510,-0.5660,3.966
23.6320,-2.1920,-4.1450,-0.7100,4.742
23.6420,-2.3430,-4.7150,-0.7860,5.323
23.6520,-2.5510,-4.9270,-0.8300,5.610
23.6620,-2.6250,-4.9430,-0.8210,5.657
23.6730,-2.5600,-4.8020,-0.6570,5.481
23.6820,-2.5280,-4.2240,-0.4010,4.939
23.6900,-2.5880,-3.1810,-0.0660,4.101
23.7020,-2.6350,-1.9590,0.4070,3.309
23.7120,-2.3270,-0.7620,0.9420,2.624
23.7220,-1.7620,0.2120,1.4820,2.312
23.7320,-0.8820,0.7740,1.9010,2.234
23.7420,0.2270,1.0300,2.0610,2.315
23.7540,1.3460,1.2460,1.9080,2.647
23.7620,2.3740,1.4550,1.5280,3.176
23.7730,3.2110,1.6160,0.9670,3.723
23.7820,3.7600,1.5760,0.2980,4.088
23.7920,4.0560,1.2720,-0.3950,4.269
23.8020,4.0200,0.8090,-1.0670,4.237
23.8130,3.7760,0.3520,-1.6670,4.143
23.8210,3.4560,-0.0310,-2.0940,4.041
23.8300,3.1150,-0.4440,-2.3690,3.939
23.8400,2.8950,-0.7870,-2.5610,3.945
23.8530,2.5920,-0.8420,-2.5720,3.747
23.8620,2.2510,-0.6040,-2.3820,3.333
23.8720,2.0600,-0.2640,-1.9330,2.837
23.8830,2.1250,0.0520,-1.2510,2.466
23.8920,2.3370,0.3480,-0.4220,2.400
23.9020,2.5900,0.6570,0.3080,2.690
23.9130,2.8310,0.9030,1.0100,3.138
23.9220,3.0520,1.1560,1.5010,3.592
23.9320,3.3500,1.3260,1.8580,4.054
24.5210,3.8110,1.4150,2.1670,4.607
24.5220,4.2720,1.4990,2.3960,5.122
24.5240,4.6400,1.5990,2.5250,5.519
24.5250,5.0250,1.6840,2.6280,5.915
24.5270,5.4120,1.7300,2.7250,6.301
24.5280,3.0370,-2.8490,1.9070,4.580
24.5300,2.3820,-2.6620,2.0310,4.109
24.5320,1.8210,-2.3740,2.2050,3.717
24.5330,1.3120,-2.0540,2.3940,3.416
24.5350,0.7710,-1.7060,2.5820,3.189
24.5370,0.2770,-1.3750,2.7710,3.106
24.5380,-0.0660,-1.1070,2.8630,3.070
24.5400,-0.3570,-0.8600,2.9260,3.071
24.5410,-0.5710,-0.7050,2.9500,3.086
24.5430,-0.7330,-0.6210,2.8550,3.012
24.5440,-0.8620,-0.5680,2.6100,2.807
24.5460,-0.9550,-0.5610,2.2370,2.496
24.5480,-1.1280,-0.5690,1.8430,2.234
24.5500,-1.3050,-0.5990,1.4870,2.067
24.5610,-1.5240,-0.6080,1.1340,1.995
24.5700,-1.7650,-0.5950,0.7430,2.005
24.5830,-2.0200,-0.5730,0.3550,2.129
24.5900,-2.2660,-0.6280,0.0230,2.352
24.6020,-2.4970,-0.6690,-0.1850,2.592
24.6100,-2.8180,-0.6730,-0.3530,2.919
24.6200,-3.1810,-0.6070,-0.4790,3.274
24.6290,-3.4800,-0.4580,-0.5950,3.560
24.6400,-3.6470,-0.3550,-0.7110,3.733
24.6500,-3.7390,-0.3770,-0.8130,3.845
24.6620,-3.8260,-0.4790,-0.8510,3.949
24.6710,-3.9750,-0.7240,-0.8980,4.139
24.6810,-4.1490,-1.0030,-0.8970,4.362
24.6920,-4.2120,-1.2680,-0.8510,4.480
24.7070,-4.1930,-1.5250,-0.7970,4.532
24.7100,-4.0600,-1.6870,-0.6820,4.449
24.7220,-3.8500,-1.8020,-0.5440,4.286
24.7320,-3.6230,-1.8620,-0.3580,4.089
24.7420,-3.4420,-1.8840,-0.1310,3.926
24.7510,-3.3930,-1.9460,0.1100,3.913
24.7610,-3.3470,-1.9950,0.3520,3.912
24.7720,-3.1950,-2.1350,0.4950,3.874
24.7810,-2.9330,-2.4130,0.4890,3.829
24.7890,-2.6690,-2.5130,0.3460,3.682
24.8000,-2.5920,-2.2730,0.1120,3.449
24.8110,-2.4760,-1.9960,-0.1220,3.183
24.8200,-2.0980,-2.0260,-0.2740,2.929
24.8310,-1.6530,-2.1170,-0.4050,2.716
24.8410,-1.3650,-1.9110,-0.5230,2.406
24.8510,-1.0520,-1.5040,-0.5680,1.921
24.8620,-0.6300,-1.0030,-0.5700,1.314
24.8690,-0.1050,-0.5030,-0.5370,0.743
24.8810,0.4550,-0.1340,-0.4520,0.655
24.9070,0.9800,-0.0040,-0.3950,1.057
24.9090,1.5470,0.0270,-0.3380,1.584
24.9100,2.1260,-0.0060,-0.3270,2.151
24.9210,2.6680,-0.0730,-0.3360,2.690
24.9300,3.1430,-0.1480,-0.3720,3.168
24.9410,3.5880,-0.2340,-0.4100,3.619
24.9520,4.0150,-0.3870,-0.3960,4.053
24.9610,4.3190,-0.5990,-0.3220,4.372
24.9710,4.5310,-0.8370,-0.1550,4.610
24.9820,4.7000,-0.9870,0.0740,4.803
24.9890,4.9110,-0.9660,0.3440,5.017
25.0020,5.1470,-0.7490,0.6170,5.238
25.0100,5.2930,-0.3960,0.8380,5.374
25.0220,5.3430,0.0920,0.9930,5.435
25.0310,5.3680,0.6280,1.0770,5.511
25.0410,5.3380,1.2140,1.1490,5.594
25.0510,5.2880,1.7280,1.2540,5.703
25.0610,5.3290,2.1200,1.3330,5.888
25.0700,5.4360,2.3890,1.4150,6.104
25.0810,5.5710,2.5710,1.4360,6.301
25.0890,5.7750,2.6360,1.3960,6.500
25.1010,5.9750,2.5790,1.3270,6.642
25.1110,6.0840,2.5270,1.3220,6.719
25.1220,6.0920,2.5680,1.3500,6.748
25.1310,6.0930,2.5310,1.4340,6.752
25.1400,6.1130,2.3500,1.5060,6.720
25.1490,6.1840,2.0260,1.6210,6.706
25.1620,6.3060,1.6610,1.7250,6.745
25.1710,6.4090,1.3140,1.8550,6.800
25.1800,6.4070,1.0650,1.9920,6.794
25.1890,6.4240,0.8370,2.1330,6.820
25.1990,6.4980,0.6280,2.2930,6.919
25.2090,6.5970,0.6160,2.5000,7.082
25.2190,6.7560,0.7860,2.7030,7.319
25.2290,7.0070,1.0100,2.9040,7.652
25.2420,7.2670,1.2480,2.9970,7.959
25.2520,7.4200,1.5010,2.9930,8.140
25.2610,7.5200,1.7130,2.9370,8.253
25.2690,7.8090,1.8440,2.8420,8.512
25.2820,8.1960,1.8580,2.7430,8.840
25.2910,8.6140,1.8220,2.6450,9.193
25.2980,9.0440,1.7520,2.5340,9.554
27.5410,9.4240,1.6800,2.3760,9.863
27.5430,9.7570,1.5420,2.1670,10.113
27.5440,9.9810,1.3400,1.9290,10.254
27.5460,10.1540,0.9580,1.7160,10.342
27.5470,8.0050,-0.0130,4.6980,9.282
27.5490,8.4180,-0.1410,4.7870,9.685
27.5500,8.8260,-0.1490,4.8490,10.071
27.5520,9.2960,-0.0980,4.9020,10.510
27.5540,9.7590,-0.0660,5.0150,10.972
27.5550,10.1550,0.0690,5.1630,11.392
27.5570,10.4840,0.3160,5.3450,11.772
27.5590,10.7220,0.6010,5.5070,12.069
27.5600,10.9170,0.7640,5.6450,12.314
27.5620,11.1360,0.8980,5.7440,12.562
27.5630,11.3480,0.9100,5.7790,12.767
27.5680,11.5480,0.8710,5.7790,12.943
27.5780,11.6680,0.7700,5.6380,12.982
27.5890,11.6570,0.5690,5.3460,12.837
27.5980,11.5080,0.3430,5.0240,12.562
27.6090,11.1830,0.3410,4.7140,12.141
27.6190,10.8560,0.3710,4.4150,11.725
27.6300,10.7170,0.2700,4.1740,11.504
27.6380,10.7880,-0.1120,3.9650,11.494
27.6480,10.9710,-0.6880,3.9160,11.669
27.6570,11.1340,-1.1580,3.9490,11.870
27.6690,11.1690,-1.2690,4.0730,11.956
27.6790,11.1690,-1.1030,4.1890,11.980
27.6900,11.1640,-0.8020,4.2250,11.964
27.6960,11.0100,-0.3630,4.1930,11.787
27.7070,10.7220,0.2880,4.1120,11.487
27.7170,10.3880,0.9220,4.0220,11.178
27.7270,10.1100,1.3110,3.8970,10.914
27.7370,9.9330,1.5090,3.7670,10.730
27.7490,9.9110,1.5090,3.6800,10.679
27.7560,9.9390,1.3440,3.6270,10.665
27.7670,9.9010,1.0650,3.5800,10.582
27.7780,9.7560,0.6940,3.5260,10.397
27.7880,9.5110,0.2240,3.4800,10.130
27.7980,9.2200,-0.3330,3.4270,9.842
27.8080,8.9430,-1.0580,3.3790,9.618
27.8170,8.6700,-1.9160,3.3290,9.483
27.8290,8.3530,-2.7540,3.3480,9.411
27.8390,7.7840,-3.2360,3.4380,9.104
27.8540,7.1650,-3.4710,3.5880,8.733
27.8590,6.6200,-3.5710,3.7330,8.397
27.8670,5.9950,-3.3670,3.9190,7.914
27.8780,5.3360,-2.9740,4.1400,7.380
27.8870,4.7690,-2.5710,4.3830,6.969
27.8980,4.2600,-2.0810,4.5860,6.596
27.9090,3.7610,-1.6600,4.7080,6.250
27.9190,3.3470,-1.3550,4.7990,6.006
27.9270,2.8460,-1.0290,4.8130,5.685
27.9380,2.3320,-0.7710,4.7260,5.326
27.9470,1.8990,-0.6230,4.5680,4.986
27.9620,1.4310,-0.5360,4.2410,4.508
27.9670,0.9910,-0.4880,3.8080,3.965
27.9770,0.6460,-0.4250,3.3330,3.422
27.9870,0.4230,-0.4190,2.9000,2.960
28.0110,0.2460,-0.4910,2.5150,2.574
28.0120,-0.0010,-0.4980,2.2240,2.279
28.0170,-0.2800,-0.5050,1.9520,2.036
28.0290,-0.5990,-0.5300,1.6840,1.864
28.0380,-0.9350,-0.5420,1.3750,1.749
28.0480,-1.2850,-0.5730,1.1130,1.794
28.0570,-1.6850,-0.6290,0.8160,1.975
28.0670,-2.1090,-0.7600,0.5970,2.320
28.0870,-2.4940,-0.8850,0.4060,2.677
28.0910,-2.9490,-0.9960,0.2480,3.123
28.0970,-3.4440,-0.9810,0.1050,3.583
28.1070,-3.8810,-0.9250,-0.0570,3.990
28.1170,-4.1830,-0.8780,-0.2140,4.280
28.1280,-4.2140,-0.9790,-0.3830,4.343
28.1410,-4.2790,-1.0780,-0.5960,4.453
28.1470,-4.3620,-1.1410,-0.6870,4.561
28.1570,-4.2620,-1.2550,-0.6040,4.484
28.1670,-4.0310,-1.3060,-0.3220,4.250
28.1770,-3.8130,-1.2290,0.0440,4.006
28.1880,-3.6010,-1.1840,0.4520,3.818
28.1980,-3.3740,-1.2870,0.7470,3.688
28.2080,-3.1550,-1.6070,0.8680,3.646
28.2170,-2.9290,-2.1010,0.7830,3.689
28.2290,-2.6270,-2.7450,0.6050,3.847
28.2390,-2.4260,-3.1780,0.4540,4.024
28.2470,-2.4320,-3.4250,0.3650,4.216
28.2580,-2.3840,-3.5140,0.2880,4.256
28.2690,-2.3320,-3.6390,0.2970,4.332
28.2790,-2.3100,-3.5200,0.4360,4.233
28.2890,-2.3920,-2.9220,0.6740,3.836
28.2990,-2.3260,-2.0920,1.0480,3.299
28.3090,-1.9520,-1.2590,1.4960,2.763
28.3190,-1.3440,-0.5950,1.9530,2.444
28.3290,-0.4200,-0.1710,2.2530,2.298
28.3380,0.7600,-0.0470,2.2600,2.385
28.3480,2.0220,-0.0750,1.9480,2.809
28.3560,3.1770,-0.1120,1.3600,3.458
28.3670,4.2160,-0.2000,0.6840,4.276
28.3790,5.0970,-0.2180,0.0170,5.102
28.3880,5.7770,-0.3230,-0.7280,5.832
28.3980,6.1820,-0.4660,-1.4760,6.373
28.4070,6.2770,-0.5590,-2.0350,6.622
28.4190,6.1460,-0.6500,-2.5010,6.667
28.4290,5.9310,-0.7250,-2.7600,6.582
28.4360,5.6810,-0.6650,-2.8380,6.385
28.4470,5.4050,-0.5110,-2.7160,6.071
28.4580,5.3050,-0.0680,-2.3290,5.794
28.4680,5.3310,0.4470,-1.7150,5.618
28.4780,5.3820,0.9390,-0.9460,5.545
28.4880,5.3520,1.3290,-0.2080,5.518
28.4990,5.3500,1.5760,0.4520,5.596
28.5090,5.4170,1.7880,1.0640,5.803
28.5180,5.5430,1.9020,1.5740,6.068
28.5280,5.6820,1.8820,1.9580,6.298
28.5370,5.8780,1.8360,2.2550,6.558
28.5460,5.9570,1.6970,2.4740,6.670
28.5570,5.9500,1.5560,2.5820,6.670
28.5680,6.0030,1.3250,2.6390,6.690
28.5780,6.1150,1.0670,2.6500,6.749
28.5940,6.3060,0.8630,2.6620,6.899
28.5960,6.6020,0.6580,2.7030,7.164
28.6070,7.0140,0.4610,2.7610,7.552
28.6170,7.4620,0.3920,2.8320,7.991
28.6280,7.8530,0.3710,2.8510,8.363
28.6380,8.1950,0.3200,2.8540,8.684
28.6480,8.4900,0.3270,2.8880,8.974
28.6580,8.8730,0.4210,2.9690,9.366
28.6670,9.2240,0.5550,3.0840,9.742
28.6790,9.6020,0.7340,3.2160,10.153
28.6880,9.9260,0.9400,3.3260,10.511
28.6980,10.3200,1.0240,3.4060,10.916
28.7080,10.7250,1.0950,3.4180,11.310
28.7190,11.0760,1.0950,3.3650,11.628
28.7280,11.3840,0.9820,3.2480,11.879
28.7380,11.5610,0.8100,3.1150,12.001
28.7480,11.6130,0.6890,2.9440,12.000
28.7580,11.5980,0.5630,2.6950,11.920
28.7690,11.6410,0.3930,2.4310,11.899
28.7780,11.7460,0.1980,2.1770,11.948
28.7880,11.9360,0.0520,1.9970,12.102
28.8040,12.2590,-0.1100,1.8580,12.399
28.8060,12.7410,-0.4160,1.8150,12.876
28.8180,12.9870,-0.7130,1.8020,13.131
28.8280,12.9010,-0.8240,1.8810,13.063
28.8390,12.5650,-0.7320,1.9730,12.740
28.8480,12.1670,-0.5080,2.0780,12.354
28.8570,11.6230,-0.1080,2.1850,11.827
28.8690,11.0020,0.4840,2.3100,11.252
28.8760,10.4270,1.0790,2.4220,10.759
28.8880,9.9840,1.5220,2.5530,10.417
28.8990,9.6620,1.8900,2.6950,10.207
28.9060,9.4380,2.0580,2.7210,10.036
28.9160,9.3380,2.0290,2.6760,9.924
28.9310,9.2970,1.7900,2.5540,9.806
28.9360,9.3010,1.2940,2.4010,9.693
28.9460,9.2730,0.6750,2.2430,9.564
28.9560,9.1210,0.0340,2.0670,9.352
28.9660,8.9240,-0.6900,1.8700,9.144
28.9760,8.6800,-1.5890,1.6360,8.975
28.9860,8.4320,-2.4560,1.6020,8.927
28.9990,8.0410,-3.1910,1.6800,8.813
29.0080,7.4630,-3.6250,1.9390,8.520
29.0160,6.8990,-3.7290,2.3040,8.174
29.0260,6.4490,-3.6060,2.6430,7.847
29.0350,6.1610,-3.3740,2.9750,7.628
29.0460,5.9200,-3.0390,3.2770,7.418
29.0550,5.5370,-2.5390,3.6220,7.087
29.0650,5.0490,-2.0700,3.9890,6.759
29.0750,4.4750,-1.6510,4.3260,6.439
29.0850,3.7990,-1.2110,4.5780,6.071
29.0950,3.1310,-0.8290,4.7480,5.748
29.1050,2.5030,-0.5790,4.8110,5.454
29.1150,1.9350,-0.4480,4.6850,5.089
29.1250,1.4440,-0.4520,4.3600,4.615
29.1360,1.0060,-0.4860,3.8820,4.040
29.1450,0.5320,-0.4950,3.3790,3.456
29.1550,0.0550,-0.5880,2.9540,3.012
29.1650,-0.4760,-0.7200,2.5160,2.660
29.1750,-1.0710,-0.8600,1.9860,2.415
29.1850,-1.6610,-1.0230,1.4460,2.428
29.1950,-2.2810,-1.1620,0.8990,2.713
29.2050,-2.9410,-1.1530,0.3800,3.182
29.2150,-3.4820,-1.0300,-0.0760,3.632
29.2260,-3.8490,-0.9760,-0.3980,3.991
29.2350,-4.1870,-0.8510,-0.6340,4.319
29.2460,-4.5050,-0.6660,-0.7660,4.618
29.2550,-4.7360,-0.5550,-0.7520,4.827
29.2650,-4.9010,-0.5710,-0.7360,4.989
29.2750,-5.0290,-0.6510,-0.7310,5.123
29.2860,-5.1670,-0.7540,-0.7270,5.272
29.2950,-5.1680,-0.8530,-0.6710,5.281
29.3050,-5.0040,-1.1230,-0.5990,5.163
29.3150,-4.7250,-1.4280,-0.5280,4.964
29.3250,-4.3600,-1.6380,-0.4180,4.676
29.3350,-3.9030,-1.7170,-0.2450,4.271
29.3450,-3.5250,-1.5850,-0.0230,3.865
29.3550,-3.1470,-1.4440,0.1730,3.467
29.3650,-2.6360,-1.4780,0.2270,3.031
29.3760,-2.0800,-1.7210,0.1000,2.702
29.3850,-1.4950,-2.2920,-0.1520,2.741
29.3950,-0.9810,-2.9850,-0.4450,3.173
29.4050,-0.7950,-3.4380,-0.7510,3.608
29.4150,-0.8820,-3.6280,-0.9770,3.859
29.4250,-0.9600,-3.6990,-1.0230,3.956
29.4350,-1.0680,-3.5390,-0.9310,3.812
29.4450,-1.2330,-2.9640,-0.6790,3.281
29.4550,-1.2540,-2.0580,-0.3140,2.430
29.4650,-1.1110,-1.0600,0.0850,1.538
29.4760,-0.7950,-0.2760,0.4920,0.975
33.3360,-0.2650,0.2350,0.8360,0.908
33.3370,0.4300,0.4450,1.0170,1.190
33.3380,1.2020,0.4130,1.0840,1.670
33.3380,5.0130,1.0220,1.3750,5.298
33.3390,5.1780,0.7930,1.6730,5.499
33.3390,5.3820,0.5400,1.9660,5.755
33.3400,5.6370,0.3040,2.2470,6.076
33.3410,5.8910,0.2030,2.5500,6.422
33.3420,6.1620,0.2010,2.8150,6.778
33.3420,6.4630,0.2250,3.0460,7.148
33.3430,6.7650,0.2990,3.3020,7.534
33.3440,7.0120,0.3820,3.5090,7.850
33.3450,7.2540,0.4730,3.6770,8.146
33.3450,7.6550,0.5110,3.8000,8.562
33.3520,8.0910,0.5410,3.9420,9.016
33.3630,8.5390,0.5590,4.1050,9.491
33.3730,9.0040,0.5110,4.2400,9.965
33.3840,9.4580,0.4280,4.3130,10.404
33.3950,9.8220,0.3520,4.3080,10.731
33.4030,10.1120,0.1990,4.3060,10.992
33.4130,10.3960,0.0040,4.3480,11.269
33.4230,10.6210,-0.2930,4.3800,11.492
33.4330,10.8780,-0.8450,4.4420,11.780
33.4430,11.0630,-1.4540,4.5440,12.048
33.4520,10.9190,-1.5540,4.7880,12.023
33.4630,10.6260,-1.2940,5.1150,11.864
33.4750,10.4230,-0.9190,5.3770,11.764
33.4850,10.1580,-0.4500,5.5040,11.562
33.4930,9.8960,0.0440,5.5250,11.334
33.5050,9.5710,0.6660,5.4690,11.043
33.5140,9.1260,1.3940,5.2750,10.633
33.5290,8.6430,2.0240,4.9250,10.152
33.5330,8.3480,2.5010,4.5960,9.852
33.5440,8.2610,2.6970,4.3830,9.733
33.5540,8.1780,2.6070,4.1670,9.541
33.5630,8.0210,2.2640,3.8010,9.160
33.5730,7.8590,1.6900,3.3730,8.718
33.5830,7.7820,1.0890,3.0430,8.426
33.5930,7.5360,0.4440,2.8060,8.054
33.6030,7.1480,-0.2450,2.5970,7.609
33.6130,6.6750,-1.0610,2.3930,7.170
33.6230,6.1290,-1.8720,2.2240,6.783
33.6330,5.5710,-2.5270,2.1460,6.483
33.6530,4.9480,-2.8600,2.2160,6.130
33.6550,4.4400,-2.8930,2.3700,5.805
33.6630,4.0010,-2.6620,2.5140,5.424
33.6720,3.6810,-2.2920,2.6240,5.068
33.6820,3.4250,-1.8510,2.7020,4.739
33.6920,3.2400,-1.3480,2.8590,4.526
33.7020,3.0430,-0.8570,3.1340,4.452
33.7120,2.7240,-0.4460,3.4010,4.380
33.7280,2.2740,-0.1520,3.5470,4.216
33.7370,1.7760,0.0790,3.5570,3.977
33.7420,1.3010,0.2530,3.4890,3.732
33.7530,0.9000,0.2960,3.2410,3.377
33.7630,0.6260,0.2140,2.8890,2.964
33.7720,0.4830,0.0000,2.4420,2.489
33.7820,0.3180,-0.1620,2.0540,2.085
33.7910,0.1020,-0.2950,1.7180,1.746
33.8020,-0.1720,-0.4610,1.4260,1.509
33.8140,-0.4060,-0.6130,1.1430,1.359
33.8240,-0.7000,-0.7290,0.9100,1.360
33.8340,-1.0440,-0.8320,0.7840,1.548
33.8440,-1.4300,-0.8930,0.6450,1.805
33.8540,-1.7530,-0.9490,0.5020,2.056
33.8650,-2.1030,-0.9690,0.4880,2.366
33.8730,-2.4430,-0.9190,0.4460,2.648
33.8830,-2.7850,-0.9750,0.3520,2.972
33.8930,-3.1400,-1.0620,0.2850,3.327
33.9020,-3.4480,-1.0970,0.1530,3.622
33.9120,-3.7860,-1.2710,-0.0590,3.994
33.9240,-4.1280,-1.4890,-0.2860,4.398
33.9320,-4.4690,-1.7190,-0.5510,4.820
33.9430,-4.7420,-1.8930,-0.8500,5.176
33.9520,-4.9310,-1.9060,-1.1820,5.417
33.9650,-4.9250,-1.7280,-1.4360,5.413
33.9740,-4.7350,-1.4830,-1.5610,5.202
33.9840,-4.2620,-1.3550,-1.5010,4.717
33.9940,-3.6860,-1.2900,-1.2040,4.087
34.0050,-3.2290,-1.3350,-0.7620,3.576
34.0130,-2.8100,-1.5210,-0.3230,3.212
34.0240,-2.2930,-1.9240,-0.0150,2.993
34.0340,-1.7700,-2.4160,0.0740,2.996
34.0420,-1.3240,-2.7510,-0.0050,3.053
34.0540,-1.0730,-2.7430,-0.1370,2.949
34.0620,-0.9180,-2.5460,-0.2850,2.721
34.0720,-0.7060,-2.3820,-0.4200,2.520
34.0840,-0.4430,-2.3070,-0.5210,2.406
34.0940,-0.2930,-2.1290,-0.6020,2.232
34.1040,-0.2650,-1.6880,-0.6390,1.824
34.1140,-0.2910,-0.9360,-0.5400,1.119
34.1230,-0.3240,-0.0560,-0.3080,0.451
34.1340,-0.1730,0.6260,-0.0150,0.650
34.1440,0.3090,0.9620,0.2540,1.042
34.1540,1.0140,0.9480,0.3830,1.440
34.1630,1.7240,0.8090,0.2750,1.924
34.1730,2.3740,0.6740,-0.0520,2.468
34.1840,2.8500,0.5840,-0.4670,2.946
34.1930,3.2450,0.4280,-0.8530,3.382
34.2020,3.5450,0.1570,-1.1810,3.740
34.2140,3.7720,-0.2130,-1.4150,4.034
34.2240,3.9150,-0.6030,-1.4780,4.228
34.2340,3.9690,-0.9210,-1.3370,4.288
34.2440,3.9650,-1.1270,-1.0080,4.244
34.2520,3.9200,-1.1530,-0.4800,4.114
34.2650,3.8110,-0.9530,0.1190,3.930
34.2740,3.5740,-0.5780,0.6820,3.684
34.2840,3.4200,-0.1590,1.2660,3.650
34.2940,3.2270,0.2670,1.7540,3.683
34.3050,3.1530,0.7100,2.1510,3.882
34.3120,3.2390,1.0940,2.5570,4.269
34.3220,3.4180,1.4370,2.8520,4.678
34.3320,3.6420,1.7210,3.0330,5.042
34.3440,3.8870,1.8320,3.1000,5.299
34.3530,4.1730,1.8460,3.0340,5.480
34.3630,4.4150,1.8450,2.8760,5.583
34.3740,4.5620,1.8090,2.6700,5.587
34.3840,4.6120,1.7160,2.4610,5.502
34.3940,4.5640,1.5640,2.2620,5.328
34.4040,4.5140,1.4210,2.1790,5.210
34.4140,4.5030,1.3420,2.2080,5.192
34.4240,4.6430,1.1790,2.2860,5.308
34.4340,4.8850,0.9520,2.4570,5.550
34.4440,5.0970,0.7540,2.6630,5.800
34.4540,5.2220,0.6980,2.8800,6.004
34.4630,5.3570,0.6890,3.0500,6.203
34.4740,5.5890,0.6830,3.2760,6.514
34.4840,5.9290,0.7020,3.5080,6.925
34.4940,6.2990,0.7770,3.7400,7.367
34.5040,6.6390,0.9120,3.9490,7.778
34.5140,6.9250,1.0430,4.0190,8.074
34.5230,7.2560,1.1680,3.9550,8.346
34.5340,7.7480,1.2390,3.9240,8.773
34.5430,8.3780,1.2460,4.0060,9.370
34.5530,9.0610,1.2290,4.2370,10.078
34.5630,9.6630,1.1580,4.5440,10.741
34.5720,10.1470,1.0000,4.8210,11.278
34.5820,10.5010,0.8080,4.9840,11.652
34.5930,10.7520,0.5390,5.1170,11.920
53.0990,10.8720,0.2960,5.2110,12.060
53.2190,0.5690,0.3850,1.6720,1.808
53.2210,0.4230,0.3450,1.4280,1.529
53.2260,0.2370,0.2380,0.9330,0.992
53.2420,0.8550,-0.3620,0.4490,1.031
53.2460,1.5030,-0.6250,0.2000,1.640
53.2570,1.5910,-0.4510,0.2250,1.669
53.2730,1.6230,-0.4540,0.6350,1.801
53.2890,1.8130,-0.8470,1.1540,2.310
53.2940,1.3200,-0.9360,0.8400,1.823
53.2990,0.5450,-0.8710,0.4420,1.118
53.3730,-0.1750,-0.8740,0.0460,0.893
53.4300,-0.6430,-0.9500,-0.3890,1.211
53.4310,-1.1280,-0.9040,-1.4040,2.015
53.4320,-0.7060,-0.7650,-2.3830,2.600
53.4330,0.3600,-0.6050,-3.0280,3.109
53.4370,1.2240,-0.6760,-2.5650,2.921
53.4380,1.7270,-0.3400,-1.8920,2.584
53.4410,2.2430,-0.3720,-0.8210,2.417
53.4430,2.3240,-0.5210,-0.1960,2.390
53.4440,1.8120,-0.5150,0.0340,1.884
53.4460,1.6060,-0.9060,-1.1060,2.150
53.4550,2.0800,-1.9610,-4.7010,5.502
53.4560,0.9290,-0.9590,-3.5060,3.752
53.4570,-0.0700,-0.2190,-3.0140,3.023
53.4580,-0.5580,0.1830,-0.8640,1.045
53.4590,0.6250,-0.0980,-0.1390,0.648
53.4760,2.0480,-0.2480,0.9300,2.263
53.4810,2.9160,-0.2420,1.6230,3.346
53.4890,3.4630,-0.0800,1.6620,3.842
53.5070,3.4790,-0.3150,1.4430,3.780
53.5150,2.6850,-0.6930,1.3780,3.097
53.5240,1.7000,-0.9300,0.8770,2.127
53.5290,1.4730,-1.1050,-0.0140,1.841
53.5420,1.9310,-0.8700,-0.8640,2.287
53.5490,2.1650,-0.4430,-1.3080,2.568
53.5600,1.5220,-0.3750,-1.5690,2.218
53.5700,0.8880,-0.5960,-1.9110,2.190
53.5790,0.6310,-0.9030,-2.2310,2.488
53.5900,0.7150,-1.0250,-2.3930,2.700
53.6010,1.0700,-0.5930,-2.3670,2.664
53.6100,1.4990,-0.4070,-2.1170,2.626
53.6190,1.8520,-0.3490,-2.1250,2.840
53.6300,1.9910,-0.2280,-2.2680,3.027
53.6410,2.0270,0.0800,-2.5520,3.260
53.6530,2.0890,0.2960,-2.6670,3.401
53.6610,1.7590,0.2710,-2.6790,3.216
53.6700,1.4200,0.3310,-2.8450,3.197
53.6790,1.4100,0.2950,-2.9920,3.321
53.6890,1.2030,0.0410,-2.9760,3.210
53.6990,0.6590,-0.1540,-2.8170,2.897
53.7090,0.4310,-0.1860,-2.6810,2.722
53.7190,0.4470,0.1560,-2.6140,2.657
53.7290,0.5680,0.7110,-2.4870,2.648
53.7390,1.4080,1.3440,-2.4010,3.091
53.7490,1.6580,1.3400,-2.5010,3.286
53.7590,1.4390,1.1780,-2.4640,3.087
53.7690,1.0890,1.0190,-2.7100,3.093
53.7790,0.8080,1.1210,-1.5120,2.048
53.7960,0.4630,1.9610,-1.4990,2.511
53.8070,1.1870,1.5130,-2.6830,3.301
53.8160,1.6730,-1.2850,-2.1810,3.034
53.8250,1.7470,-2.0810,-2.0840,3.424
53.8350,0.6980,-1.5170,-1.3420,2.142
53.8450,-0.3330,-0.5780,-0.4950,0.831
53.8550,-0.4010,-0.2990,0.5290,0.728
53.8660,0.2200,-0.8250,1.3690,1.613
53.8760,0.8490,-1.3960,1.7050,2.361
53.8870,1.5420,-1.1880,1.6950,2.581
53.8950,2.5810,-0.3650,0.8450,2.740
53.9060,3.7330,0.1820,-0.7110,3.804
53.9140,4.1850,0.1230,-2.1190,4.692
53.9840,2.5560,-0.1580,-2.2990,3.441
53.9850,2.5090,0.2290,-1.7350,3.059
53.9860,2.3520,0.1560,-1.3980,2.741
53.9870,2.3670,0.0590,-0.8190,2.505
53.9870,2.7600,-0.1450,-0.4940,2.808
53.9950,3.1660,-0.3370,-0.7310,3.267
54.0050,3.1140,-0.5250,-1.4080,3.458
54.0180,2.4660,-0.6550,-2.4160,3.514
54.0240,1.6320,-0.5100,-3.2130,3.640
54.0410,0.9640,-0.2930,-3.5630,3.703
54.0530,0.7730,-0.0190,-3.3210,3.410
54.0550,0.9370,0.5180,-1.7710,2.069
54.0660,1.1660,0.6230,0.2730,1.350
54.0740,1.6290,-0.3170,1.1200,2.002
54.0860,1.3230,0.2460,1.8400,2.280
54.0940,0.8430,0.9200,2.4790,2.775
54.1040,0.5750,1.6160,2.4780,3.014
54.1150,0.2900,1.7980,1.7520,2.527
54.1240,0.1660,1.8890,1.1830,2.235
54.1410,0.4380,1.8550,0.9150,2.114
54.1480,0.7890,1.7600,0.9520,2.151
54.1550,1.1910,1.7650,1.0790,2.387
54.1670,1.5510,1.9730,1.1900,2.777
54.1740,1.6570,2.0370,1.4420,2.996
54.1860,1.3950,1.6820,1.6230,2.722
54.1950,1.1760,1.3270,1.6670,2.434
54.2040,1.0100,1.3110,1.7660,2.420
54.2140,0.8750,1.3140,1.9070,2.476
54.2250,1.0010,1.0840,1.6780,2.234
54.2340,1.4820,0.7830,0.9750,1.939
54.2440,1.7770,0.3800,0.2280,1.831
54.2540,1.7160,0.2620,-0.2810,1.758
54.2650,1.3790,0.3180,-0.5270,1.510
54.2740,0.9850,0.4400,-0.5830,1.226
54.2850,0.5810,0.6010,-0.5210,0.985
54.2940,0.3550,0.8760,-0.3670,1.014
54.3040,0.3440,1.1900,-0.1930,1.254
54.3140,0.6310,1.1790,-0.2410,1.359
54.3250,1.0320,1.0330,-0.3950,1.513
54.3340,1.3380,1.0100,-0.5590,1.767
54.3460,1.4390,1.1500,-0.5800,1.931
54.3540,1.3490,1.1930,-0.6810,1.925
54.3650,1.1790,1.0920,-0.9080,1.846
54.3740,1.0320,1.2220,-0.7800,1.780
54.3850,0.8130,1.3240,-0.9040,1.798
54.3960,0.6790,1.3920,-1.0020,1.845
54.4040,0.5370,1.4690,-1.1500,1.941
54.4140,0.2990,1.4570,-1.3300,1.995
54.4240,0.1540,1.3140,-1.3810,1.912
54.4340,0.1950,1.0490,-1.2770,1.664
54.4460,0.4070,0.8010,-1.0020,1.346
54.4540,0.8530,0.5940,-0.5310,1.167
54.4650,1.3920,0.4340,0.0680,1.460
54.4750,1.7920,0.2390,0.5490,1.889
54.4850,1.9820,-0.0550,0.8740,2.167
54.4940,1.9880,-0.3330,1.1650,2.328
54.5040,1.8750,-0.5610,1.2680,2.332
54.5140,1.6280,-0.6350,1.0470,2.037
54.5240,1.2740,-0.5860,0.5950,1.523
54.5340,0.9400,-0.4490,-0.0820,1.045
54.5440,0.6080,-0.1830,-0.8240,1.040
54.5540,0.1860,0.0570,-1.3910,1.405
54.5650,-0.3140,0.2360,-1.5990,1.647
54.5740,-0.5020,0.1960,-1.1880,1.305
54.5840,-0.2430,-0.0620,-0.5070,0.566
54.5970,0.1240,-0.2630,-0.1100,0.311
54.6050,0.4000,-0.2670,-0.1010,0.491
54.6150,0.6400,-0.1310,-0.5290,0.841
54.6240,0.8530,-0.0380,-1.1370,1.422
54.6340,1.0400,-0.1630,-1.4150,1.764
54.6440,1.1610,-0.4640,-1.2150,1.743
54.6540,1.2520,-0.6970,-0.7870,1.635
54.6650,1.2290,-0.8020,-0.3600,1.511
54.6740,0.9400,-0.6830,-0.1660,1.174
54.6840,0.7270,-0.5130,0.0690,0.892
54.6940,0.5920,-0.3720,0.2260,0.735
54.7040,0.5860,-0.0620,0.4410,0.736
54.7140,0.8040,0.4200,0.4490,1.012
54.7250,1.5200,0.9040,0.0800,1.770
54.7340,3.8880,1.1170,0.1820,4.049
54.7440,6.2010,0.8040,0.8550,6.311
54.7540,5.1300,0.2130,0.8990,5.213
54.7640,3.1980,-0.0980,1.0710,3.374
54.7740,1.4190,0.0890,0.2940,1.452
54.7840,0.1390,0.1870,-0.9630,0.991
54.7950,-0.4160,0.2490,-2.0520,2.108
54.8050,-0.2710,0.2470,-3.1050,3.127
54.8140,0.2610,0.4220,-3.9260,3.957
54.8260,1.0690,0.1150,-4.1850,4.321
54.8340,1.5930,0.0070,-3.2900,3.655
54.8460,1.4000,0.2250,-1.6380,2.166
54.8540,1.4200,0.2530,0.2250,1.460
54.8640,1.2460,0.3720,1.5010,1.986
54.8740,1.0800,0.4580,2.2140,2.506
54.8840,1.0470,0.4520,2.6410,2.877
54.8950,0.9500,0.5320,2.3950,2.631
54.9040,1.1390,0.5140,1.8680,2.247
54.9140,1.1470,0.5470,1.1200,1.694
54.9240,1.2400,0.8430,0.3430,1.538
54.9340,1.4040,1.2000,-0.3740,1.884
54.9530,1.4930,1.4390,-0.9470,2.280
54.9540,1.3630,1.4130,-1.5070,2.475
54.9650,1.2710,1.3170,-1.8920,2.632
54.9740,1.1820,1.2640,-2.0150,2.656
54.9850,1.0980,1.1970,-1.8930,2.494
54.9940,1.1080,1.1400,-1.5610,2.228
55.0040,1.1040,1.1090,-0.9890,1.851
55.0140,0.9100,1.0580,-0.4620,1.470
55.0250,0.6230,1.0360,-0.3130,1.249
55.0330,0.4150,1.0590,-0.6130,1.292
55.0450,0.2440,1.1640,-1.0930,1.615
55.0540,0.1500,1.2350,-1.4760,1.930
55.0640,0.2090,1.2450,-1.7620,2.168
55.0750,0.4220,1.1740,-1.8800,2.256
55.0840,0.5840,1.1070,-1.5850,2.020
55.0940,0.6680,1.0620,-1.1730,1.718
55.1050,0.8510,1.1810,-0.9370,1.731
55.1140,1.1400,1.3790,-0.9350,2.019
55.1240,1.3880,1.2790,-1.1110,2.190
55.1340,1.6380,0.8110,-1.4170,2.313
55.1460,1.9300,0.2850,-1.4840,2.451
55.1540,2.1320,-0.1550,-0.9440,2.337
55.1640,1.9670,-0.4620,-0.2400,2.035
55.1760,1.5870,-0.9600,0.2800,1.876
55.1850,1.7300,-1.2250,0.4010,2.157
55.1940,2.0330,-1.3260,0.7410,2.538
55.2030,1.9330,-1.4830,1.0850,2.667
55.2150,1.6480,-1.9370,1.2600,2.838
