time,ax,ay,az,aT
0.0220,-1.0590,-4.2790,4.7050,6.447
0.0220,-0.8100,-4.4880,4.4400,6.365
0.0220,-0.5840,-4.4350,4.1650,6.112
0.0280,-0.5150,-4.2270,4.2680,6.029
0.0390,-0.6050,-3.9560,4.5260,6.042
0.0480,-0.6280,-3.4060,4.8100,5.927
0.0590,-0.8270,-2.5190,4.7280,5.421
0.0690,-1.5160,-1.4960,4.5000,4.979
0.0800,-2.3830,-0.2250,4.1550,4.795
0.0900,-3.6030,0.7190,3.6650,5.189
0.0980,-4.6150,1.5020,3.0170,5.715
0.1090,-4.6990,2.1700,2.2630,5.649
0.1180,-4.1430,2.3870,1.4550,4.998
0.1280,-3.4370,2.3010,0.9020,4.233
0.1400,-2.8360,2.1080,0.6340,3.590
0.1500,-2.2750,2.0020,0.5760,3.085
0.1580,-1.8120,1.9340,0.6980,2.741
0.1680,-1.5830,1.7400,1.0230,2.565
0.1780,-1.2580,1.3480,1.2450,2.225
0.1980,-0.4990,0.8640,1.3980,1.718
0.1980,0.5410,0.3630,1.5800,1.709
0.2080,1.3350,-0.0080,1.8620,2.291
0.2180,1.8170,-0.1760,2.1850,2.847
0.2280,1.9260,-0.0940,2.4360,3.107
0.2390,1.6690,0.3230,2.6000,3.106
0.2480,1.4710,0.8400,2.5800,3.086
0.2590,1.4160,1.1230,2.4570,3.050
0.2690,1.3840,1.3920,2.3320,3.048
0.2810,1.3700,1.8090,2.2540,3.198
0.2910,1.1900,2.1520,2.1840,3.289
0.2980,0.9360,2.4420,2.0970,3.352
0.3130,0.8850,2.6570,1.9970,3.440
0.3180,0.9100,2.7590,1.9460,3.497
0.3280,0.9740,2.6830,1.8040,3.377
0.3390,1.0780,2.5390,1.6430,3.211
0.3480,1.0940,2.4010,1.4540,3.013
0.3580,1.1070,2.1870,1.2940,2.772
0.3680,1.1340,2.0160,1.1960,2.604
0.3820,1.1440,1.9300,1.1560,2.524
0.3890,1.2570,1.9250,1.0830,2.541
0.3970,1.5200,1.8090,0.9790,2.558
0.4080,1.8060,1.6090,0.9560,2.601
0.4180,2.0080,1.4020,1.0420,2.661
0.4280,2.0130,1.2580,1.2760,2.695
0.4400,1.8020,1.1060,1.5270,2.608
0.4480,1.6340,0.9430,1.7570,2.578
0.4580,1.6680,0.9060,2.1270,2.851
0.4680,1.6990,0.9820,2.5480,3.216
0.4810,1.5470,1.0580,2.8530,3.414
0.4880,1.3830,1.0300,2.9850,3.447
0.5270,1.3470,0.9120,2.9470,3.366
0.5280,1.3950,0.6710,2.8100,3.208
0.5280,1.5020,0.3580,2.6040,3.027
0.5280,1.6430,0.0140,2.3660,2.881
0.5460,1.7140,-0.4230,2.0750,2.724
0.5470,1.7710,-0.8280,1.8940,2.722
0.5670,1.8440,-1.3410,1.7880,2.898
0.5680,1.7990,-1.9990,1.5740,3.116
0.5820,1.7570,-2.5730,1.4640,3.442
0.6220,1.7530,-3.0530,1.4890,3.822
0.6230,1.7200,-3.4790,1.5360,4.174
0.6240,1.5060,-3.6810,1.6330,4.299
0.6240,1.2080,-3.5640,1.7620,4.155
0.6280,0.9220,-3.2270,1.9320,3.872
0.6380,0.6070,-2.7990,2.1380,3.574
0.6490,0.2590,-2.1000,2.3230,3.142
0.6580,0.0360,-1.1770,2.5460,2.805
0.6680,0.0560,-0.3920,2.7820,2.810
0.6840,0.2200,-0.0030,2.9130,2.921
0.6890,0.4590,0.0820,2.8390,2.877
0.6980,0.6850,-0.0090,2.5840,2.673
0.7140,0.8500,-0.2140,2.3480,2.506
0.7190,0.8950,-0.4300,1.8090,2.064
0.7270,0.9200,-0.8320,1.2380,1.753
0.7390,0.7840,-1.3330,0.6640,1.683
0.7480,0.6310,-1.8530,0.0910,1.960
0.7570,0.4720,-2.4280,-0.3800,2.502
0.7680,0.2050,-3.0460,-0.7350,3.140
0.7820,-0.1490,-3.6410,-1.0130,3.782
0.7880,-0.5490,-4.0040,-1.1160,4.193
0.7980,-0.9860,-3.8980,-1.1030,4.169
0.8100,-1.5440,-3.5290,-0.9180,3.960
0.8180,-2.0670,-3.0220,-0.6290,3.715
0.8280,-2.4530,-2.4760,-0.3870,3.507
0.8400,-2.7430,-2.0240,-0.2170,3.416
0.8490,-2.9730,-1.7530,-0.1040,3.453
0.8580,-3.1680,-1.4860,0.0860,3.500
0.8680,-3.3500,-1.1880,0.2830,3.566
0.8770,-3.4660,-0.9830,0.3830,3.623
0.8940,-3.4780,-0.8770,0.4300,3.613
0.8970,-3.5240,-0.8320,0.4020,3.643
0.9080,-3.6130,-0.8310,0.2120,3.713
0.9180,-3.7050,-0.8240,-0.0190,3.796
0.9280,-3.8390,-0.8660,-0.2450,3.943
0.9390,-3.9790,-0.8950,-0.4700,4.105
0.9500,-4.1080,-1.0000,-0.6850,4.283
0.9580,-4.2250,-1.1550,-0.8890,4.469
0.9680,-4.3260,-1.3420,-1.1310,4.668
0.9780,-4.3760,-1.4500,-1.3500,4.804
0.9950,-4.3830,-1.5060,-1.5040,4.872
0.9970,-4.3740,-1.5510,-1.6030,4.910
1.0130,-4.4760,-1.5370,-1.6060,4.998
1.0190,-4.6700,-1.4990,-1.5890,5.156
1.0280,-4.8420,-1.4740,-1.5680,5.299
1.0380,-4.9290,-1.5450,-1.5580,5.395
1.0480,-4.9410,-1.7240,-1.6010,5.473
1.0580,-4.8990,-1.9520,-1.6810,5.535
1.0690,-4.7880,-2.1980,-1.7840,5.562
1.0770,-4.6470,-2.5140,-1.8990,5.614
1.1000,-4.4480,-2.9140,-1.9600,5.667
1.1000,-4.2860,-3.3050,-1.9370,5.748
1.1080,-4.1190,-3.5800,-1.7830,5.741
1.1190,-3.9430,-3.6460,-1.4320,5.558
1.1290,-3.8090,-3.5920,-0.9550,5.322
1.1370,-3.5750,-3.5290,-0.5410,5.052
1.1470,-3.1740,-3.5230,-0.2490,4.748
1.1580,-2.6250,-3.6050,-0.0860,4.460
1.1680,-1.9910,-3.8200,-0.0530,4.308
1.1780,-1.3550,-4.1850,-0.1340,4.401
1.2040,-0.6410,-4.7280,-0.2580,4.778
1.2040,0.3340,-5.4450,-0.2540,5.461
1.2080,0.7680,-5.5860,0.1010,5.639
1.2180,0.3950,-5.0190,0.6570,5.077
1.2270,-0.1050,-4.5770,1.0620,4.700
1.2380,-0.3690,-4.4690,1.1450,4.628
1.2480,-0.6650,-4.3070,1.1010,4.495
1.2570,-1.1720,-3.6950,1.0510,4.016
1.2680,-1.6740,-2.6690,1.1110,3.341
1.2780,-1.8480,-1.4990,1.2580,2.692
1.3050,-1.6280,-0.5670,1.3680,2.201
1.3050,-1.0720,-0.0700,1.2660,1.660
1.3070,-0.3900,0.1170,1.0610,1.136
1.3180,0.2140,0.2670,0.8940,0.957
1.3270,0.7280,0.3400,0.8110,1.142
1.3380,1.2280,0.3300,0.8830,1.548
1.3480,1.6550,0.2380,0.9840,1.940
1.3580,1.9820,0.0670,1.0220,2.231
1.3680,2.2480,-0.1330,1.0430,2.482
1.3780,2.3660,-0.3700,1.0100,2.599
1.4130,2.4220,-0.6270,0.8880,2.655
1.4140,2.5040,-0.8140,0.7610,2.741
1.4140,2.5190,-0.8480,0.7140,2.752
1.4210,2.4540,-0.6620,0.8100,2.668
1.4270,2.3030,-0.3350,0.9990,2.533
1.4370,2.0220,0.1350,1.2320,2.372
1.4480,1.6440,0.6020,1.4590,2.279
1.4570,1.2910,1.0220,1.6780,2.351
1.4720,0.9630,1.3850,1.7950,2.463
1.4770,0.6790,1.6740,1.8570,2.591
1.4920,0.5320,1.9210,1.8290,2.705
1.4970,0.4850,2.0440,1.7380,2.727
1.5070,0.4790,2.0770,1.5590,2.641
1.5170,0.5440,2.0930,1.3480,2.548
1.5280,0.6800,2.0530,1.1490,2.449
1.5370,0.8820,1.9550,1.0080,2.370
1.5480,1.1400,1.8490,0.9460,2.369
1.5570,1.4630,1.7330,0.9010,2.440
1.5680,1.8540,1.5250,0.7970,2.529
1.5770,2.2440,1.3570,0.7090,2.717
1.5930,2.5650,1.3350,0.6040,2.954
1.5970,2.7200,1.3540,0.5500,3.088
1.6100,2.7180,1.2910,0.5690,3.062
1.6240,2.6610,1.1680,0.6820,2.985
1.6270,2.6580,1.1610,0.9010,3.037
1.6370,2.6860,1.2580,1.2220,3.208
1.6470,2.7680,1.4180,1.5500,3.475
1.6570,2.8560,1.5420,1.8250,3.724
1.6680,3.0390,1.6120,1.9850,3.972
1.6770,3.3400,1.6050,2.1410,4.280
1.6900,3.7570,1.5260,2.3380,4.681
1.6970,4.2340,1.4200,2.7250,5.232
1.7070,4.7630,1.2950,3.2370,5.903
1.7170,5.2470,1.1300,3.8150,6.585
1.7290,5.5860,0.9440,4.3890,7.166
1.7370,5.8060,0.6490,4.8050,7.564
1.7470,5.9010,0.2200,4.9730,7.720
1.7590,5.9730,-0.3390,4.9450,7.762
1.7680,6.0560,-1.1480,4.7500,7.782
1.7770,6.0320,-1.9240,4.5040,7.770
1.7930,5.7140,-2.2640,4.3580,7.534
1.7970,5.2140,-2.2350,4.2450,7.085
1.8080,4.6910,-2.0560,4.1140,6.569
1.8180,4.1670,-1.6590,4.0400,6.036
1.8270,3.6200,-1.0570,4.0600,5.541
1.8380,3.0730,-0.3620,4.0650,5.109
1.8470,2.6180,0.2070,3.9960,4.782
1.8570,2.3280,0.5930,3.8880,4.570
1.8670,2.2370,0.7870,3.8050,4.483
1.8770,2.2500,0.7470,3.7530,4.439
1.9010,2.3160,0.5100,3.7500,4.437
1.9020,2.3880,0.0510,3.7170,4.418
1.9070,2.4360,-0.5710,3.5450,4.339
1.9170,2.4100,-1.2570,3.2030,4.201
1.9270,2.3130,-2.0440,2.7460,4.131
1.9380,2.1260,-2.9500,2.1610,4.230
1.9470,1.7550,-3.8520,1.5620,4.512
1.9580,1.2090,-4.5790,0.9520,4.831
1.9740,0.5060,-5.0360,0.4230,5.079
1.9770,-0.1900,-5.2300,-0.0470,5.234
2.0020,-0.7900,-5.2170,-0.3780,5.290
2.0020,-1.3050,-5.0250,-0.6130,5.228
2.0070,-1.7990,-4.6350,-0.7410,5.027
2.0170,-2.2540,-4.0210,-0.7160,4.665
2.0270,-2.6770,-3.3350,-0.5480,4.311
2.0370,-3.0230,-2.7380,-0.3430,4.093
2.0470,-3.2540,-2.2410,-0.1270,3.953
2.0640,-3.3440,-1.8980,0.0110,3.845
2.0670,-3.2580,-1.6700,0.0990,3.662
2.0840,-3.1410,-1.5760,0.1170,3.516
2.0870,-3.1140,-1.5130,0.1250,3.464
2.0980,-3.1760,-1.4000,0.0990,3.472
2.1100,-3.1840,-1.3480,0.0050,3.458
2.1170,-3.1170,-1.4300,-0.1690,3.434
2.1380,-2.9990,-1.5520,-0.4270,3.404
2.1390,-2.9750,-1.6860,-0.8130,3.515
2.1470,-3.0820,-1.7850,-1.2310,3.768
2.1620,-3.2290,-1.8920,-1.5930,4.067
2.1670,-3.4440,-1.9630,-1.8690,4.383
2.1970,-3.7860,-1.9040,-2.0640,4.714
2.1980,-4.1460,-1.7870,-2.1220,4.989
2.1980,-4.4210,-1.7000,-2.1320,5.194
2.2170,-4.6310,-1.6720,-2.0950,5.351
2.2620,-4.7670,-1.6840,-2.0840,5.468
2.2630,-4.8350,-1.8430,-2.0960,5.583
2.2630,-4.8530,-2.0960,-2.1460,5.705
2.2640,-4.9100,-2.3540,-2.2910,5.907
2.2640,-4.9770,-2.6200,-2.5520,6.176
2.2660,-4.9750,-2.9050,-2.8380,6.422
2.2760,-4.8600,-3.2820,-3.0550,6.612
2.3310,-4.7090,-3.6380,-3.1790,6.747
2.3310,-4.6670,-3.8910,-3.2660,6.898
2.3310,-4.7290,-3.9190,-3.2640,6.955
2.3320,-4.8670,-3.7510,-3.1960,6.926
2.3320,-4.9180,-3.4890,-3.0710,6.767
2.3410,-4.6930,-3.4450,-2.9220,6.514
2.3470,-4.0540,-3.8270,-2.7590,6.220
2.3660,-3.1920,-4.4950,-2.5580,6.078
2.3680,-2.4980,-5.0400,-2.3570,6.099
2.3780,-2.1650,-5.3020,-2.1790,6.128
2.3960,-2.0400,-5.2230,-2.0050,5.955
2.3970,-1.9290,-5.0450,-1.8680,5.715
2.4410,-1.8040,-4.9300,-1.7900,5.546
2.4430,-1.7860,-4.7310,-1.7300,5.345
2.4430,-1.9430,-4.0900,-1.6230,4.810
2.4430,-2.1290,-3.0670,-1.3290,3.963
2.4480,-2.1150,-2.0010,-0.8850,3.043
2.4560,-1.7990,-1.2270,-0.4570,2.225
2.4670,-1.1480,-0.7920,-0.0880,1.397
2.4770,-0.4380,-0.6950,0.1770,0.840
2.5090,0.0940,-0.7280,0.4160,0.844
2.5090,0.4160,-0.6790,0.6560,1.032
2.5100,0.7380,-0.6470,0.8910,1.326
2.5160,1.1730,-0.7520,1.0420,1.740
2.5270,1.7090,-1.0280,1.1620,2.308
2.5360,2.1520,-1.3440,1.2270,2.818
2.5460,2.4970,-1.5440,1.3270,3.222
2.5560,2.7330,-1.6010,1.5040,3.506
2.5680,2.9110,-1.4950,1.7210,3.697
2.5760,3.0700,-1.2060,1.9780,3.846
2.6050,3.1320,-0.7820,2.0640,3.832
2.6050,3.1720,-0.3520,1.9600,3.745
2.6060,3.2480,0.0620,1.7600,3.695
2.6170,3.2950,0.4760,1.5970,3.692
2.6260,3.2580,0.8880,1.4950,3.693
2.6360,3.1350,1.3000,1.4450,3.689
2.6470,2.9540,1.6540,1.3550,3.647
2.6630,2.7740,1.8910,1.2570,3.585
2.6670,2.6470,1.9910,1.2270,3.532
2.6770,2.5300,2.0270,1.2970,3.492
2.7050,2.4660,2.0190,1.4530,3.503
2.7050,2.5050,1.9460,1.6050,3.555
2.7060,2.6200,1.8610,1.7850,3.676
2.7180,2.7390,1.7980,1.9140,3.795
2.7260,2.8170,1.6910,1.9820,3.837
2.7360,2.8870,1.5680,2.0200,3.857
2.7460,2.9640,1.4270,2.0600,3.881
2.7560,3.1420,1.2620,2.1580,4.015
2.7680,3.4300,1.1320,2.2770,4.270
2.7760,3.6830,1.0750,2.3540,4.501
2.8050,3.8640,1.1320,2.3470,4.661
2.8050,3.9880,1.2710,2.3080,4.780
2.8060,4.1190,1.4510,2.2680,4.921
2.8170,4.2350,1.6070,2.2910,5.076
2.8270,4.3700,1.7580,2.3880,5.281
2.8360,4.6110,1.9240,2.4740,5.575
2.8460,5.0540,2.0410,2.5120,6.002
2.8560,5.5250,2.0790,2.5280,6.422
2.8660,5.8900,2.0120,2.5310,6.719
2.8770,6.1260,1.8230,2.5200,6.870
2.9080,6.2580,1.5400,2.4570,6.897
2.9090,6.2420,1.1860,2.3870,6.787
2.9090,6.1140,0.7940,2.3620,6.602
2.9170,5.9130,0.4110,2.4080,6.398
2.9260,5.6550,0.0500,2.4570,6.166
2.9360,5.4280,-0.4500,2.4630,5.978
2.9460,5.2130,-1.0910,2.5230,5.893
2.9600,4.8630,-1.5620,2.6140,5.738
2.9730,4.3980,-1.6920,2.8530,5.509
2.9750,4.0280,-1.5370,3.0980,5.309
3.0070,3.7400,-1.1850,3.2970,5.125
3.0070,3.3940,-0.5090,3.5270,4.921
3.0080,3.1180,0.3810,3.7390,4.883
3.0160,3.0690,1.1110,3.9180,5.099
3.0270,3.1240,1.5890,4.0350,5.345
3.0360,3.2530,1.8180,4.0770,5.524
3.0460,3.4190,1.8200,4.0880,5.631
3.0560,3.6850,1.6340,4.0490,5.713
3.0690,3.9870,1.3060,3.8700,5.708
3.0770,4.2570,0.8670,3.5240,5.594
3.0920,4.4300,0.3760,3.0580,5.396
3.0970,4.4900,-0.2750,2.5240,5.158
3.1260,4.3980,-1.0690,2.0640,4.974
3.1300,4.0760,-1.8290,1.7020,4.781
3.1310,3.5750,-2.4580,1.4590,4.577
3.1370,2.9070,-2.9290,1.3020,4.327
3.1460,2.1480,-3.2300,1.2400,4.072
3.1560,1.4170,-3.3480,1.1980,3.828
3.1660,0.7250,-3.2220,1.1830,3.508
3.1770,0.0730,-2.9150,1.1250,3.125
3.1890,-0.5280,-2.4520,1.1000,2.739
3.1960,-1.0700,-1.9170,1.1290,2.469
3.2240,-1.4710,-1.4330,1.1670,2.362
3.2240,-1.7240,-1.0740,1.1550,2.337
3.2250,-1.9080,-0.8280,1.1370,2.370
3.2360,-2.0060,-0.6680,1.0800,2.374
3.2470,-2.1120,-0.5600,0.9210,2.371
3.2560,-2.1190,-0.5790,0.6570,2.293
3.2660,-2.1150,-0.6720,0.3590,2.248
3.2770,-2.0960,-0.8060,0.0600,2.246
3.2900,-2.0800,-0.9820,-0.2600,2.315
3.2960,-2.1090,-1.1610,-0.5950,2.480
3.3200,-2.1990,-1.3460,-0.9710,2.755
3.3210,-2.3340,-1.5340,-1.3810,3.116
3.3260,-2.5060,-1.6010,-1.6790,3.415
3.3360,-2.6400,-1.5790,-1.8480,3.589
3.3460,-2.7330,-1.5840,-2.0050,3.741
3.3560,-2.8330,-1.6050,-2.1910,3.925
3.3680,-2.9860,-1.5300,-2.3770,4.112
3.3760,-3.0750,-1.4110,-2.5210,4.219
3.3860,-3.0970,-1.3690,-2.6700,4.312
3.3960,-3.0760,-1.4270,-2.8220,4.412
3.4060,-3.1160,-1.5110,-3.0310,4.602
3.4170,-3.1690,-1.6160,-3.2490,4.818
3.4500,-3.2770,-1.8040,-3.4470,5.087
3.4510,-3.4190,-2.0740,-3.6030,5.383
3.4510,-3.5930,-2.4410,-3.7140,5.715
3.4560,-3.7840,-2.8950,-3.7400,6.057
3.4670,-3.9950,-3.2290,-3.7030,6.332
3.4760,-4.1920,-3.3530,-3.6350,6.483
3.4900,-4.3210,-3.3380,-3.5430,6.509
3.4970,-4.2300,-3.3280,-3.4210,6.377
3.5310,-3.8880,-3.4700,-3.2510,6.142
3.5320,-3.4100,-3.8500,-3.1020,6.006
3.5320,-2.8400,-4.4190,-2.9910,6.045
3.5360,-2.3830,-4.9740,-2.9290,6.245
3.5460,-2.2500,-5.1930,-2.8730,6.347
3.5560,-2.2990,-5.1760,-2.7920,6.314
3.5660,-2.3190,-5.0950,-2.7060,6.218
3.5760,-2.4060,-4.7640,-2.5660,5.922
3.5880,-2.5700,-4.1000,-2.3070,5.361
3.5950,-2.6780,-3.2280,-1.9850,4.640
3.6170,-2.5710,-2.2370,-1.5580,3.747
3.6180,-2.2030,-1.4170,-1.0400,2.818
3.6260,-1.6070,-0.9170,-0.5590,1.933
3.6360,-0.8560,-0.6290,-0.0890,1.066
3.6460,-0.0860,-0.4460,0.3840,0.595
3.6550,0.5660,-0.2430,0.8050,1.014
3.6670,1.0990,-0.0530,1.1010,1.557
3.6760,1.6310,0.0670,1.1680,2.007
3.6850,2.1830,-0.0350,1.0340,2.416
3.6960,2.5380,-0.2140,0.7720,2.661
3.7060,2.6350,-0.3170,0.4920,2.699
3.7160,2.5320,-0.2870,0.2500,2.560
3.7430,2.3630,-0.2200,0.0180,2.373
3.7430,2.2360,-0.1490,-0.2290,2.253
3.7460,2.0790,-0.0040,-0.3620,2.110
3.7560,1.8680,0.2340,-0.3800,1.921
3.7670,1.6270,0.5150,-0.2620,1.727
3.7750,1.3890,0.7860,-0.0870,1.598
3.7860,1.2110,1.0700,0.1590,1.624
3.7950,1.1260,1.2740,0.3630,1.739
3.8060,1.1080,1.4020,0.6110,1.889
3.8150,1.1140,1.5240,0.8360,2.065
3.8470,1.1430,1.6620,1.0290,2.264
3.8480,1.1700,1.6960,1.1580,2.364
3.8480,1.2180,1.6760,1.2700,2.430
3.8560,1.2340,1.6540,1.4220,2.506
3.8680,1.2320,1.5870,1.5860,2.560
3.8760,1.2800,1.4730,1.6880,2.580
3.8850,1.3640,1.2780,1.7760,2.578
3.8950,1.4790,1.0420,1.8720,2.603
3.9060,1.5780,0.8440,1.9650,2.658
3.9150,1.6740,0.6770,2.0470,2.730
3.9330,1.7990,0.5230,2.1000,2.814
3.9350,1.9560,0.4460,2.1250,2.922
3.9470,2.2110,0.4590,2.1890,3.145
3.9610,2.4990,0.5640,2.2960,3.440
3.9830,2.7300,0.7830,2.4850,3.774
3.9840,2.8940,1.0660,2.7180,4.111
3.9870,3.0620,1.3480,2.9550,4.464
3.9960,3.2690,1.5470,3.1620,4.804
4.0050,3.4840,1.6270,3.3340,5.089
4.0450,3.7180,1.5910,3.5320,5.369
4.0450,4.0070,1.3830,3.7040,5.629
4.0450,4.3430,1.1370,3.8770,5.932
4.0460,4.6360,0.9090,3.9860,6.181
4.0550,4.8740,0.7580,4.0330,6.371
4.0670,5.0660,0.6000,4.0030,6.484
4.0750,5.3230,0.2680,3.9590,6.639
4.0850,5.6700,-0.4100,3.8930,6.890
4.0950,5.9370,-1.2990,3.8350,7.186
4.1060,6.0210,-1.9440,3.9320,7.449
4.1150,5.9690,-2.0410,4.2000,7.579
4.1370,5.9350,-1.7790,4.5410,7.682
4.1370,5.9710,-1.3770,4.7830,7.773
4.1470,5.8740,-0.7690,4.8700,7.669
4.1550,5.6060,0.1070,4.8850,7.437
4.1680,5.2680,1.0920,4.8420,7.238
4.1750,5.0210,1.9580,4.7200,7.164
4.1870,4.8980,2.4950,4.5680,7.147
4.1950,4.9060,2.7400,4.3780,7.123
4.2050,4.9370,2.7050,4.1610,7.000
4.2150,4.8680,2.4260,3.9010,6.693
4.2420,4.6520,1.9390,3.5450,6.162
4.2420,4.3660,1.3330,3.0790,5.506
4.2460,4.0550,0.6350,2.5600,4.837
4.2550,3.7410,-0.1720,2.0740,4.281
4.2660,3.4280,-0.9400,1.6830,3.933
4.2750,3.0200,-1.6440,1.4570,3.734
4.2850,2.5230,-2.2380,1.3780,3.643
4.2950,1.9710,-2.6160,1.4160,3.568
4.3050,1.3890,-2.8050,1.5350,3.486
4.3150,0.8310,-2.6780,1.7020,3.280
4.3320,0.3400,-2.3320,1.7680,2.946
4.3350,-0.0680,-1.9540,1.7690,2.637
4.3450,-0.4430,-1.5360,1.7210,2.349
4.3550,-0.7430,-1.0690,1.6490,2.101
4.3650,-0.9290,-0.6930,1.6230,1.994
4.3750,-1.0910,-0.4260,1.6710,2.041
4.3860,-1.2580,-0.2330,1.7230,2.146
4.3940,-1.3920,-0.1650,1.6950,2.200
4.4050,-1.4990,-0.2040,1.5650,2.177
4.4270,-1.5620,-0.2710,1.2840,2.040
4.4280,-1.6120,-0.4050,0.9340,1.907
4.4350,-1.6340,-0.6560,0.6030,1.861
4.4440,-1.6670,-0.8970,0.2990,1.916
4.4560,-1.7770,-1.0140,0.0430,2.046
4.4680,-1.9500,-1.1080,-0.1900,2.251
4.4760,-2.1170,-1.1390,-0.4230,2.441
4.4850,-2.2620,-1.1660,-0.6090,2.617
4.4940,-2.3910,-1.1440,-0.7160,2.746
4.5050,-2.5190,-1.1050,-0.7360,2.847
4.5150,-2.6500,-1.0630,-0.7070,2.941
4.5400,-2.7970,-1.0710,-0.7260,3.082
4.5400,-3.0060,-1.1160,-0.8500,3.317
4.5470,-3.1930,-1.2780,-1.0670,3.601
4.5550,-3.2770,-1.4190,-1.3590,3.821
4.5650,-3.3200,-1.6150,-1.6540,4.046
4.5740,-3.3250,-1.9300,-1.9510,4.311
4.5840,-3.3310,-2.3080,-2.2580,4.639
4.5950,-3.3830,-2.6590,-2.5390,4.996
4.6050,-3.4890,-2.9320,-2.7880,5.343
4.6270,-3.6290,-3.1200,-2.9530,5.624
4.6270,-3.7230,-3.2140,-2.9830,5.752
4.6350,-3.7270,-3.2530,-2.8930,5.731
4.6440,-3.6170,-3.3450,-2.7670,5.650
4.6550,-3.4160,-3.5930,-2.5620,5.581
4.6680,-3.0480,-4.1880,-2.3310,5.680
4.6750,-2.6120,-4.9030,-2.1280,5.949
4.6860,-2.4700,-5.2610,-1.8960,6.113
4.6950,-2.6430,-5.2170,-1.6280,6.071
4.7120,-2.7400,-5.0590,-1.4070,5.923
4.7150,-2.6730,-4.9450,-1.2620,5.761
4.7250,-2.6820,-4.6370,-1.1150,5.472
4.7350,-2.8980,-3.8120,-0.9300,4.878
4.7450,-3.1500,-2.5530,-0.6950,4.114
4.7560,-3.0820,-1.2060,-0.4450,3.339
4.7660,-2.6870,0.0100,-0.2290,2.697
4.7750,-2.0850,0.9850,-0.1160,2.309
4.7850,-1.3850,1.5770,-0.1610,2.105
4.8030,-0.6290,1.8790,-0.3320,2.009
4.8040,0.1160,1.9630,-0.4540,2.018
4.8270,0.7040,1.9380,-0.5060,2.123
4.8270,1.1570,1.8590,-0.4460,2.235
4.8360,1.5440,1.6270,-0.4230,2.283
4.8460,1.9170,1.1730,-0.5130,2.305
4.8550,2.2080,0.5610,-0.6920,2.381
4.8650,2.3900,-0.0420,-0.8220,2.528
4.8760,2.4000,-0.5920,-0.8650,2.619
4.8840,2.2710,-1.0400,-0.8150,2.627
4.8940,2.0780,-1.3500,-0.7170,2.580
4.9080,1.8120,-1.4340,-0.5190,2.368
4.9150,1.4800,-1.2330,-0.3300,1.954
4.9250,1.1350,-0.8380,-0.1320,1.417
4.9350,0.8120,-0.3640,0.1090,0.897
4.9470,0.6110,0.0790,0.4210,0.746
4.9560,0.5430,0.4820,0.8120,1.089
4.9660,0.6000,0.8340,1.2580,1.624
4.9760,0.7300,1.1040,1.6520,2.117
4.9840,0.9170,1.3370,1.8950,2.494
4.9950,1.0790,1.4970,1.9540,2.688
5.0050,1.2200,1.5570,1.8750,2.725
5.0270,1.3560,1.5620,1.7190,2.690
5.0270,1.4990,1.5520,1.6090,2.692
5.0340,1.5830,1.5610,1.5430,2.706
5.0480,1.6130,1.5900,1.4660,2.698
5.0560,1.6160,1.5300,1.3980,2.628
5.0650,1.7360,1.3130,1.3150,2.543
5.0750,1.8920,1.0860,1.2780,2.528
5.0850,2.0450,0.9520,1.2630,2.585
5.0950,2.1530,0.9070,1.3000,2.674
5.1050,2.2470,0.8880,1.3870,2.786
5.1290,2.3310,0.8780,1.5260,2.921
5.1300,2.4220,0.9010,1.7370,3.114
5.1360,2.5730,0.9360,1.9870,3.383
5.1450,2.7720,1.0390,2.2460,3.716
5.1550,2.9500,1.1850,2.3950,3.980
5.1650,3.1050,1.2380,2.3970,4.113
5.1760,3.2880,1.1300,2.2820,4.159
5.1850,3.6370,0.9590,2.1680,4.341
5.1970,4.0570,0.8260,2.2410,4.708
5.2050,4.4560,0.6970,2.6260,5.219
5.2250,4.7850,0.5620,3.2370,5.804
5.2250,5.0470,0.4770,3.8980,6.395
5.2350,5.2170,0.3720,4.4200,6.848
5.2450,5.4260,0.1510,4.8100,7.253
5.2550,5.6880,-0.2950,5.0240,7.595
5.2660,5.9710,-0.9940,5.2250,7.996
5.2760,6.0230,-1.5450,5.5360,8.325
5.2850,5.9300,-1.6850,6.0280,8.622
5.2960,5.8270,-1.5630,6.4730,8.849
5.3050,5.7740,-1.2840,6.8300,9.035
5.3290,5.6320,-0.8700,6.9740,9.006
5.3290,5.3760,-0.2760,6.9120,8.761
5.3340,5.0600,0.4610,6.7290,8.432
5.3450,4.7770,1.1010,6.4500,8.102
5.3570,4.6040,1.5570,6.1450,7.835
5.3790,4.5170,1.7780,5.8020,7.565
5.3800,4.4180,1.7590,5.4000,7.195
5.3850,4.2670,1.5810,4.9530,6.726
5.3990,4.0860,1.2790,4.4280,6.159
5.4040,3.8400,0.8200,3.8640,5.509
5.4190,3.5600,0.2850,3.3480,4.895
5.4240,3.2550,-0.2930,2.9040,4.372
5.4400,2.9210,-0.9920,2.5310,3.990
5.4440,2.4900,-1.7690,2.2560,3.797
5.4550,1.8870,-2.4050,2.0840,3.700
5.4660,1.2170,-2.8750,1.9500,3.681
5.4750,0.5620,-3.1260,1.8780,3.690
5.4880,-0.0550,-3.1330,1.8150,3.621
5.4940,-0.5660,-2.9880,1.7900,3.529
5.5040,-0.9560,-2.6930,1.7910,3.373
5.5340,-1.2750,-2.2600,1.8160,3.167
5.5350,-1.4920,-1.7650,1.8050,2.932
5.5350,-1.6050,-1.3200,1.7880,2.741
5.5460,-1.6450,-0.9900,1.7800,2.618
5.5540,-1.6070,-0.8230,1.8190,2.563
5.5650,-1.5140,-0.7710,1.7950,2.472
5.5740,-1.4170,-0.8010,1.6500,2.318
5.5840,-1.3960,-0.7710,1.3220,2.071
5.6010,-1.3790,-0.8290,0.8760,1.832
5.6050,-1.3420,-0.9850,0.3640,1.704
5.6340,-1.4670,-1.1320,-0.0920,1.855
5.6340,-1.7710,-1.2070,-0.4810,2.197
5.6350,-2.1020,-1.2420,-0.8670,2.591
5.6440,-2.3280,-1.2570,-1.1700,2.893
5.6540,-2.5070,-1.2580,-1.4820,3.172
5.6650,-2.6580,-1.2470,-1.6180,3.352
5.6740,-2.8250,-1.2220,-1.6780,3.506
5.6840,-2.9740,-1.2230,-1.7740,3.673
5.6950,-3.0880,-1.3060,-1.8560,3.832
5.7050,-3.2280,-1.4040,-1.9160,4.008
5.7360,-3.3510,-1.5300,-1.9490,4.168
5.7360,-3.4380,-1.7070,-2.0310,4.343
5.7360,-3.4920,-1.9350,-2.1600,4.539
5.7440,-3.5100,-2.2050,-2.3200,4.750
5.7550,-3.4650,-2.5690,-2.4910,4.981
5.7650,-3.4180,-2.9440,-2.6480,5.231
5.7740,-3.4670,-3.1550,-2.7490,5.434
5.7840,-3.6080,-3.1960,-2.8310,5.590
5.7950,-3.7260,-3.1010,-2.8510,5.624
5.8040,-3.7540,-2.9060,-2.8030,5.513
5.8390,-3.7060,-2.7290,-2.7070,5.339
5.8400,-3.5420,-2.7700,-2.4810,5.136
5.8410,-3.3100,-2.9800,-2.2050,4.970
5.8450,-3.0440,-3.4070,-1.9420,4.964
5.8560,-2.7350,-3.9580,-1.8440,5.152
5.8650,-2.5430,-4.2580,-1.8520,5.294
5.8740,-2.4950,-4.2060,-1.8830,5.240
5.8850,-2.3880,-4.1930,-1.9860,5.218
5.8950,-2.3720,-4.0210,-2.1390,5.135
5.9050,-2.6400,-3.4200,-2.2880,4.889
5.9370,-2.9820,-2.6340,-2.3730,4.633
5.9370,-3.1540,-1.8420,-2.3220,4.328
5.9370,-3.0420,-1.1670,-2.0510,3.850
5.9440,-2.6430,-0.7290,-1.5910,3.170
5.9540,-2.1420,-0.5400,-1.0950,2.466
5.9640,-1.6740,-0.5060,-0.6380,1.862
5.9740,-1.1450,-0.5310,-0.1860,1.276
5.9840,-0.6030,-0.5580,0.2180,0.850
5.9950,-0.0410,-0.5940,0.5630,0.819
6.0040,0.5800,-0.6780,0.7450,1.162
6.0380,1.2040,-0.9040,0.7450,1.680
6.0380,1.7080,-1.1440,0.6220,2.148
6.0390,2.0440,-1.3910,0.5310,2.529
6.0450,2.1940,-1.5430,0.5010,2.729
6.0540,2.1970,-1.4860,0.5490,2.709
6.0640,2.0830,-1.2170,0.6200,2.491
6.0750,1.9090,-0.8460,0.6530,2.188
6.0840,1.6640,-0.3670,0.6800,1.835
6.0950,1.4440,0.1750,0.6960,1.613
6.1040,1.2610,0.7180,0.7130,1.617
6.1320,1.0870,1.2190,0.7190,1.785
6.1320,1.0210,1.5700,0.7670,2.024
6.1340,1.1180,1.7520,0.8340,2.239
6.1440,1.3150,1.8550,0.8920,2.443
6.1530,1.5470,1.9120,1.0020,2.656
6.1650,1.7220,1.9710,1.0820,2.832
6.1750,1.8760,1.9680,1.1540,2.954
6.1840,1.9530,1.8230,1.2110,2.933
6.1940,2.0010,1.6270,1.2630,2.872
6.2040,1.9940,1.4040,1.3520,2.788
6.2440,1.9900,1.1800,1.4710,2.742
6.2440,2.0590,0.9270,1.6460,2.794
6.2450,2.1620,0.6810,1.8200,2.907
6.2450,2.3470,0.4510,2.0190,3.129
6.2550,2.6370,0.2780,2.2040,3.448
6.2640,2.9680,0.2550,2.4150,3.835
6.2750,3.2760,0.3030,2.6350,4.215
6.2840,3.5020,0.3820,2.7900,4.494
6.2940,3.7910,0.5420,2.8880,4.796
6.3040,4.1520,0.7760,2.9550,5.155
6.3370,4.5630,1.0920,2.9960,5.567
6.3370,4.9920,1.3910,3.1290,6.054
6.3370,5.5460,1.6360,3.3000,6.658
6.3440,6.2050,1.7820,3.5400,7.363
6.3540,6.8190,1.8870,3.8720,8.065
6.3640,7.3380,1.8210,4.1890,8.643
6.3750,7.7240,1.6850,4.4520,9.073
6.3890,7.9610,1.4960,4.5790,9.305
6.3950,8.0640,1.1580,4.5800,9.346
6.4100,8.0220,0.6870,4.5230,9.235
6.4130,7.9220,0.0250,4.4510,9.087
6.4250,7.7700,-0.8620,4.3700,8.956
6.4350,7.4780,-1.6130,4.3120,8.782
6.4440,7.1050,-1.9500,4.3210,8.541
6.4760,6.7390,-1.9460,4.3740,8.266
6.4760,6.4380,-1.7040,4.4760,8.024
6.4770,6.1170,-1.1760,4.5990,7.743
6.4840,5.6320,-0.3770,4.7020,7.346
6.4960,5.0760,0.5930,4.7980,7.010
6.5040,4.6310,1.4320,4.8340,6.846
6.5400,4.3580,1.9380,4.7920,6.761
6.5400,4.1820,2.1550,4.6460,6.612
6.5400,4.0450,2.1440,4.4270,6.368
6.5440,3.8550,1.9660,4.1370,5.987
6.5540,3.6440,1.6570,3.8120,5.528
6.5650,3.4830,1.2120,3.4760,5.068
6.5740,3.3190,0.6620,3.1410,4.617
6.5840,3.1710,-0.0280,2.8640,4.273
6.5960,2.9520,-0.7530,2.5860,3.996
6.6040,2.6290,-1.4840,2.3000,3.795
6.6320,2.2310,-2.1040,2.0290,3.677
6.6320,1.8580,-2.5290,1.7580,3.597
6.6330,1.5040,-2.7770,1.6040,3.542
6.6430,1.1060,-2.7910,1.5030,3.357
6.6580,0.7660,-2.6010,1.5500,3.123
6.6660,0.4530,-2.2440,1.7060,2.855
6.6740,0.2350,-1.8820,1.9040,2.687
6.6840,0.0450,-1.4910,2.0920,2.569
6.6940,-0.1410,-1.1300,2.2260,2.500
6.7030,-0.3200,-0.8390,2.2340,2.408
6.7310,-0.5450,-0.6490,2.1640,2.324
6.7310,-0.7990,-0.5820,1.9670,2.201
6.7340,-1.0810,-0.5730,1.7340,2.122
6.7440,-1.3190,-0.5780,1.3910,2.002
6.7540,-1.4960,-0.6710,0.9800,1.910
6.7640,-1.6530,-0.8140,0.5500,1.923
6.7740,-1.7660,-0.9530,0.1630,2.013
6.7830,-1.9110,-1.0770,-0.2120,2.204
6.7930,-2.0630,-1.2100,-0.6340,2.474
6.8030,-2.2430,-1.3120,-1.0170,2.790
6.8330,-2.5130,-1.3660,-1.2820,3.134
6.8330,-2.7260,-1.4540,-1.4510,3.413
6.8340,-2.8950,-1.5120,-1.6560,3.662
6.8440,-3.0750,-1.5150,-1.8620,3.901
6.8530,-3.2510,-1.5120,-2.0500,4.130
6.8640,-3.4170,-1.5260,-2.1810,4.331
6.8730,-3.5670,-1.5870,-2.2990,4.531
6.8830,-3.6910,-1.7350,-2.4100,4.737
6.9010,-3.7770,-1.9910,-2.5140,4.955
6.9060,-3.8610,-2.2630,-2.5900,5.171
6.9360,-3.9580,-2.5230,-2.6590,5.395
6.9360,-4.0320,-2.7990,-2.7660,5.634
6.9370,-4.0800,-3.0040,-2.8390,5.808
6.9440,-4.1970,-3.0490,-2.8800,5.933
6.9530,-4.3650,-2.9160,-2.8780,5.987
6.9640,-4.5090,-2.7450,-2.8000,5.975
6.9730,-4.5510,-2.5750,-2.6870,5.879
6.9840,-4.4110,-2.4410,-2.5160,5.634
6.9930,-4.0780,-2.5180,-2.2290,5.286
7.0040,-3.5470,-2.7930,-2.0000,4.938
7.0300,-2.8950,-3.2100,-1.8420,4.699
7.0300,-2.2320,-3.6970,-1.8920,4.715
7.0330,-1.7880,-3.9370,-2.1260,4.818
7.0440,-1.6430,-3.8510,-2.3870,4.819
7.0530,-1.5290,-3.7660,-2.5920,4.821
7.0630,-1.4140,-3.6780,-2.6850,4.768
7.0730,-1.4650,-3.3580,-2.5820,4.482
7.0830,-1.5550,-2.7450,-2.3350,3.925
7.0950,-1.4820,-2.0230,-1.9800,3.195
7.1040,-1.3310,-1.2630,-1.5540,2.405
7.1350,-1.1340,-0.6300,-1.1260,1.718
7.1350,-0.7600,-0.3170,-0.8170,1.160
7.1360,-0.2070,-0.2810,-0.5780,0.675
7.1440,0.2630,-0.3630,-0.3620,0.576
7.1530,0.6030,-0.4640,-0.1240,0.771
7.1640,0.8870,-0.5730,0.0750,1.059
7.1730,1.2130,-0.7080,0.2480,1.426
7.1830,1.5880,-0.9450,0.3290,1.877
7.1940,1.9020,-1.2510,0.3970,2.311
7.2030,2.0110,-1.4580,0.5270,2.539
7.2410,1.9530,-1.5190,0.7860,2.596
7.2420,1.8570,-1.3950,1.1070,2.573
7.2420,1.7110,-1.0760,1.4150,2.467
7.2430,1.6000,-0.6250,1.6770,2.401
7.2530,1.4730,-0.0760,1.8860,2.394
7.2640,1.3230,0.5010,1.9850,2.438
7.2720,1.2470,1.0230,2.0560,2.613
7.2830,1.1910,1.4370,2.0410,2.766
7.2970,1.1620,1.7320,1.9440,2.851
7.3040,1.1890,1.8890,1.8000,2.867
7.3350,1.2960,2.0130,1.6510,2.908
7.3350,1.4380,2.0060,1.5010,2.889
7.3360,1.5910,1.8550,1.3450,2.790
7.3430,1.7550,1.6920,1.2260,2.729
7.3530,1.8590,1.5620,1.1790,2.699
7.3620,1.9150,1.4070,1.2010,2.663
7.3720,1.9630,1.2340,1.2830,2.650
7.3830,1.9730,1.0650,1.4320,2.660
7.3930,1.9690,0.8800,1.6350,2.706
7.4030,1.9750,0.6740,1.8750,2.805
7.4340,2.0600,0.4550,2.1850,3.037
7.4350,2.2420,0.2900,2.5620,3.417
7.4350,2.4000,0.2960,2.9030,3.778
7.4430,2.5420,0.4720,3.2380,4.144
7.4530,2.7680,0.6630,3.5580,4.556
7.4630,3.1300,0.7930,3.8770,5.045
7.4730,3.4480,0.9460,4.1650,5.489
7.4830,3.7080,1.1740,4.3470,5.833
7.5000,4.0440,1.4080,4.4220,6.156
7.5030,4.4770,1.5490,4.4520,6.501
7.5350,4.9410,1.6020,4.5170,6.884
7.5360,5.4630,1.6480,4.7000,7.393
7.5360,6.0040,1.7200,4.9630,7.977
7.5430,6.6340,1.8020,5.2300,8.638
7.5520,7.2540,1.8270,5.4160,9.235
7.5620,7.7960,1.7730,5.5060,9.708
7.5730,8.1720,1.5520,5.4780,9.960
7.5830,8.4310,1.0550,5.3880,10.061
7.5990,8.5500,0.3170,5.2520,10.039
7.6030,8.4750,-0.4580,5.1010,9.902
7.6360,8.1820,-1.0240,5.0250,9.656
7.6360,7.7130,-1.3350,4.9130,9.242
7.6360,7.1990,-1.3960,4.8100,8.770
7.6430,6.7160,-1.2460,4.7160,8.300
7.6530,6.1200,-0.8200,4.7140,7.768
7.6620,5.5070,-0.1840,4.7790,7.294
7.6730,5.0470,0.4860,4.8940,7.047
7.6890,4.7790,1.0390,5.0180,7.007
7.6920,4.6220,1.3990,5.0770,7.007
7.7080,4.5690,1.5100,5.0570,6.981
7.7230,4.5550,1.3710,4.9010,6.830
7.7260,4.4760,1.0640,4.6630,6.551
7.7570,4.2550,0.6860,4.3140,6.098
7.7580,4.0070,0.2210,3.9310,5.618
7.7590,3.8010,-0.2780,3.5920,5.237
7.7620,3.5110,-0.8270,3.2840,4.878
7.7720,3.1300,-1.3680,3.0370,4.571
7.7820,2.7090,-1.8860,2.7250,4.280
7.7930,2.2460,-2.2910,2.4530,4.039
7.8030,1.7190,-2.5440,2.2810,3.825
7.8230,1.2110,-2.6080,1.8350,3.411
7.8240,0.7170,-2.5330,1.8280,3.205
7.8330,0.2460,-2.3040,1.8840,2.986
7.8430,-0.1540,-1.9850,1.8500,2.718
7.8530,-0.4890,-1.6510,1.9380,2.592
7.8630,-0.8340,-1.3340,1.9480,2.504
7.8730,-1.1590,-1.0350,1.9620,2.503
7.8830,-1.3940,-0.8440,1.9190,2.518
7.8930,-1.5560,-0.7570,1.7970,2.495
7.9030,-1.6860,-0.6800,1.6290,2.441
7.9190,-1.8300,-0.6060,1.3570,2.357
7.9220,-1.9030,-0.5970,0.9530,2.210
7.9320,-1.8980,-0.6910,0.5370,2.090
7.9440,-1.9310,-0.8630,0.1990,2.124
7.9530,-2.0160,-0.9440,-0.0640,2.227
7.9630,-2.0710,-1.0350,-0.4070,2.351
7.9730,-2.1410,-1.0950,-0.7490,2.519
7.9820,-2.2380,-1.1330,-1.0560,2.722
7.9990,-2.3320,-1.2300,-1.3440,2.959
8.0030,-2.4720,-1.2890,-1.5450,3.187
8.0250,-2.6270,-1.3230,-1.6640,3.379
8.0250,-2.7910,-1.3900,-1.7820,3.591
8.0320,-3.0360,-1.4230,-1.8690,3.839
8.0440,-3.2700,-1.4280,-1.9150,4.050
8.0520,-3.4400,-1.4700,-1.9600,4.223
8.0640,-3.5620,-1.5130,-2.0310,4.371
8.0750,-3.6790,-1.5660,-2.1080,4.520
8.0820,-3.7270,-1.5870,-2.1690,4.595
8.0950,-3.7530,-1.6330,-2.2550,4.673
8.1030,-3.7380,-1.7480,-2.3290,4.738
8.1160,-3.6670,-1.9530,-2.3870,4.792
8.1220,-3.5500,-2.1690,-2.3920,4.799
8.1320,-3.4090,-2.3840,-2.3240,4.765
8.1440,-3.3330,-2.5110,-2.2190,4.726
8.1530,-3.4010,-2.4460,-2.1440,4.706
8.1620,-3.4000,-2.2970,-2.0760,4.598
8.1720,-3.1680,-2.2890,-1.9950,4.388
8.1820,-2.7400,-2.6090,-1.9440,4.254
8.1920,-2.2470,-3.2310,-1.9780,4.405
8.2020,-1.8110,-3.8390,-2.0500,4.714
8.2210,-1.6320,-4.1750,-2.1510,4.972
8.2230,-1.5800,-4.2460,-2.3240,5.092
8.2330,-1.5500,-4.2840,-2.5970,5.244
8.2430,-1.7150,-4.1540,-2.8230,5.307
8.2540,-2.0200,-3.6960,-2.8940,5.110
8.2620,-2.3300,-3.0590,-2.6990,4.698
8.2720,-2.5610,-2.3440,-2.3490,4.192
8.2830,-2.5480,-1.6730,-1.8270,3.554
8.2920,-2.1340,-1.2280,-1.2010,2.739
8.3020,-1.5270,-0.9730,-0.5020,1.879
8.3150,-0.9060,-0.8290,0.0540,1.229
8.3220,-0.2190,-0.7100,0.4140,0.851
8.3330,0.4650,-0.5840,0.6330,0.979
8.3430,1.2100,-0.4280,0.7850,1.504
8.3520,1.9720,-0.3930,0.8470,2.182
8.3630,2.6550,-0.4630,0.8480,2.825
8.3750,3.0780,-0.5220,0.8130,3.226
8.3830,3.1800,-0.5110,0.7910,3.317
8.3950,3.1020,-0.5280,0.7980,3.246
8.4020,2.8980,-0.5580,0.7730,3.051
8.4130,2.5580,-0.5300,0.6870,2.701
8.4220,2.2010,-0.3500,0.5360,2.292
8.4340,1.8990,-0.0130,0.4000,1.941
8.4430,1.7120,0.3910,0.3870,1.798
8.4520,1.7600,0.7790,0.5460,2.001
8.4620,1.9720,1.0800,0.8410,2.401
8.4720,2.1630,1.3300,1.1540,2.789
8.4820,2.2340,1.5370,1.4100,3.056
8.4930,2.3470,1.6570,1.5530,3.266
8.5030,2.5180,1.6970,1.6530,3.457
8.5120,2.6180,1.7220,1.7800,3.604
8.5220,2.6210,1.7670,1.9390,3.708
8.5320,2.6330,1.7380,2.1350,3.809
8.5500,2.7060,1.6570,2.3590,3.954
8.5520,2.8510,1.5750,2.6140,4.176
8.5620,3.0890,1.5060,2.9560,4.533
8.5720,3.3920,1.4270,3.3430,4.972
8.5820,3.6360,1.3340,3.7060,5.360
8.5930,3.8490,1.2620,4.0420,5.722
8.6020,4.0170,1.1930,4.2570,5.973
8.6120,4.1920,1.1500,4.4020,6.187
8.6220,4.3250,1.2740,4.5090,6.377
8.6330,4.4770,1.4260,4.5330,6.529
8.6420,4.5970,1.5800,4.4410,6.584
8.6600,4.7080,1.7390,4.3180,6.621
8.6610,4.9340,1.8480,4.2190,6.750
8.6720,5.2240,1.8920,4.1710,6.947
8.6820,5.6260,1.8870,4.1700,7.253
8.6930,6.1030,1.7880,4.2360,7.641
8.7020,6.5440,1.6870,4.3070,8.014
8.7130,6.8770,1.6100,4.3380,8.289
8.7220,7.1370,1.5320,4.2930,8.468
8.7330,7.3310,1.4080,4.1770,8.554
8.7480,7.3740,1.2620,3.9470,8.459
8.7510,7.2930,1.1250,3.7100,8.259
8.7610,7.2340,0.8010,3.4630,8.060
8.7720,7.1900,0.2530,3.3550,7.938
8.7820,7.0420,-0.2490,3.4230,7.834
8.7930,6.7510,-0.4730,3.6730,7.700
8.8020,6.4540,-0.4310,3.9620,7.585
8.8130,6.3410,-0.2670,4.2350,7.630
8.8220,6.1420,0.0230,4.4850,7.605
8.8320,5.8160,0.5870,4.7690,7.544
8.8540,5.4100,1.3210,4.9700,7.464
8.8550,5.0400,1.9940,5.0390,7.401
8.8620,4.7690,2.4630,4.9570,7.306
8.8720,4.5840,2.5920,4.7690,7.105
8.8820,4.4640,2.5170,4.5580,6.858
8.8930,4.4250,2.3590,4.3180,6.617
8.9010,4.4820,2.0520,4.0370,6.372
8.9110,4.5190,1.5210,3.5770,5.961
8.9220,4.5280,0.8360,2.9480,5.467
8.9320,4.5510,0.0990,2.2300,5.069
8.9660,4.5610,-0.6100,1.5760,4.864
8.9670,4.4920,-1.3540,1.1190,4.823
8.9670,4.2710,-2.0710,0.9690,4.845
8.9720,4.0040,-2.7410,0.9630,4.947
8.9810,3.6660,-3.2500,1.0650,5.014
8.9930,3.1540,-3.3810,1.3340,4.812
9.0020,2.6320,-3.2400,1.8180,4.553
9.0130,2.1380,-2.9330,2.1470,4.217
9.0220,1.5650,-2.5280,2.4160,3.831
9.0320,0.9870,-2.0690,2.6820,3.528
9.0530,0.4020,-1.6420,2.8640,3.326
9.0540,-0.1560,-1.2400,2.8260,3.090
9.0610,-0.6290,-0.8620,2.7520,2.952
9.0720,-1.0020,-0.6040,2.6500,2.897
9.0810,-1.2470,-0.4940,2.5300,2.864
9.0930,-1.4720,-0.4690,2.4590,2.904
9.1020,-1.6960,-0.5160,2.3170,2.917
9.1140,-1.8760,-0.6130,2.0680,2.859
9.1210,-2.0440,-0.7910,1.6650,2.752
9.1320,-2.2210,-1.0720,1.2150,2.749
9.1410,-2.3780,-1.3420,0.7200,2.824
9.1630,-2.5770,-1.5330,0.3570,3.020
9.1640,-2.7580,-1.7180,0.0690,3.250
9.1720,-2.8640,-1.8750,-0.1950,3.429
9.1810,-3.0450,-1.9800,-0.5560,3.674
9.1930,-3.3110,-1.9640,-0.9180,3.958
9.2010,-3.5590,-1.8560,-1.1870,4.186
9.2120,-3.7830,-1.6930,-1.3220,4.350
9.2240,-3.9710,-1.5910,-1.3570,4.488
9.2320,-4.0990,-1.5490,-1.4310,4.610
9.2540,-4.1780,-1.5210,-1.5150,4.697
9.2540,-4.2410,-1.4950,-1.5420,4.754
9.2610,-4.3120,-1.4980,-1.5700,4.827
9.2730,-4.4360,-1.4720,-1.5940,4.938
9.2820,-4.4990,-1.5240,-1.5970,5.011
9.2930,-4.4490,-1.7810,-1.5720,5.043
9.3010,-4.4180,-2.0690,-1.5580,5.121
9.3120,-4.3700,-2.2850,-1.5760,5.177
9.3210,-4.2750,-2.3870,-1.5860,5.147
9.3310,-4.1460,-2.3870,-1.5900,5.041
9.3410,-3.8240,-2.4800,-1.5740,4.822
9.3630,-3.3360,-2.6600,-1.5250,4.531
9.3630,-2.8400,-2.9170,-1.4110,4.309
9.3720,-2.4810,-3.2050,-1.3480,4.271
9.3820,-2.2760,-3.5310,-1.2450,4.382
9.3920,-2.1560,-3.7800,-1.0790,4.483
9.4010,-1.9590,-3.8460,-0.8360,4.396
9.4120,-1.6240,-3.7590,-0.7030,4.155
9.4240,-1.4140,-3.3330,-0.6920,3.686
9.4310,-1.5550,-2.4660,-0.7400,3.008
9.4570,-1.8500,-1.4760,-0.7750,2.490
9.4580,-2.0550,-0.5810,-0.6580,2.235
9.4610,-2.0580,0.1030,-0.4020,2.099
9.4710,-1.7430,0.4930,-0.0960,1.814
9.4810,-1.1130,0.5600,0.1650,1.257
9.4920,-0.3580,0.4960,0.3090,0.685
9.5010,0.3340,0.3320,0.2640,0.540
9.5120,0.8450,0.1430,0.1450,0.869
9.5210,1.2210,-0.0500,0.0120,1.222
9.5320,1.5770,-0.3620,-0.0420,1.619
9.5590,1.8290,-0.8190,-0.0170,2.004
9.5590,1.8910,-1.2790,0.0970,2.285
9.5610,1.7790,-1.6690,0.2900,2.457
9.5720,1.5880,-1.8940,0.4670,2.515
9.5810,1.3670,-1.9180,0.6750,2.450
9.5920,1.2470,-1.6330,0.9100,2.247
9.6010,1.1960,-1.1500,1.1330,2.009
9.6110,1.1850,-0.5610,1.3350,1.871
9.6210,1.1280,0.0400,1.4830,1.864
9.6310,1.0220,0.6230,1.5700,1.974
9.6590,0.8910,1.1430,1.5760,2.141
9.6600,0.8220,1.5430,1.4840,2.293
9.6600,0.8660,1.7890,1.3020,2.376
9.6730,1.0850,1.8840,1.1690,2.468
9.6810,1.4120,1.8540,1.0590,2.560
9.6930,1.7450,1.8130,0.9690,2.696
9.7010,2.1300,1.7500,0.8680,2.890
9.7110,2.5700,1.6530,0.7850,3.155
9.7210,3.0620,1.5470,0.7510,3.512
9.7310,3.4410,1.4220,0.7860,3.805
9.7410,3.7050,1.3280,0.8820,4.033
9.7670,3.8640,1.2370,1.0200,4.183
9.7680,3.9040,1.1170,1.2220,4.241
9.7710,3.8820,1.0040,1.4430,4.261
9.7810,3.8910,0.9760,1.6580,4.341
9.7920,3.9360,0.9870,1.9240,4.491
9.8010,4.0300,0.9980,2.2200,4.708
9.8130,4.1670,0.9320,2.5450,4.971
9.8230,4.4130,0.8870,2.8610,5.334
9.8310,4.6400,0.9620,3.1900,5.712
9.8630,4.9360,1.1660,3.5300,6.179
9.8630,5.2660,1.3590,3.8200,6.646
9.8640,5.6790,1.4590,4.1570,7.188
9.8710,6.0550,1.4830,4.4440,7.656
9.8810,6.4540,1.4160,4.6820,8.098
9.8920,6.7840,1.2970,4.7970,8.409
9.9010,7.0090,1.1810,4.7570,8.553
9.9110,7.2400,0.9600,4.5880,8.625
9.9210,7.4570,0.6560,4.3790,8.673
9.9310,7.6080,0.2650,4.2490,8.718
9.9410,7.7880,-0.1780,4.2340,8.866
9.9650,7.8900,-0.6740,4.3130,9.017
9.9660,7.7750,-1.0090,4.4520,9.016
9.9720,7.4700,-1.0070,4.6270,8.844
9.9810,7.1580,-0.7450,4.7990,8.650
9.9920,6.8340,-0.4500,4.9170,8.431
10.0010,6.3970,-0.0810,5.0310,8.139
10.0120,5.8800,0.5520,5.1190,7.816
10.0230,5.3760,1.3370,5.1500,7.564
10.0500,5.0140,2.1020,5.1240,7.471
10.0500,4.7400,2.7500,4.8260,7.302
10.0550,4.5330,3.1750,4.3730,7.053
10.0610,4.5250,3.2960,3.8730,6.807
10.0720,4.5970,3.1060,3.4690,6.543
10.0810,4.7060,2.6390,3.1340,6.240
10.0910,4.7080,1.9940,2.8670,5.862
10.1010,4.6030,1.2690,2.5860,5.430
10.1100,4.3780,0.5060,2.2040,4.928
10.1220,4.1540,-0.2770,1.7240,4.506
10.1300,3.8380,-1.0790,1.3670,4.215
10.1600,3.4660,-1.9070,1.1980,4.133
10.1600,3.0290,-2.6150,1.2780,4.201
10.1610,2.5620,-2.8830,1.5000,4.138
10.1710,2.1500,-2.8140,1.7130,3.934
10.1810,1.8080,-2.5310,1.9460,3.669
10.1910,1.5410,-2.1690,2.1450,3.418
10.2010,1.2490,-1.7300,2.3630,3.184
10.2110,0.8840,-1.2910,2.6200,3.052
10.2210,0.4920,-0.8620,2.8940,3.059
10.2300,0.1010,-0.5190,3.1100,3.155
10.2620,-0.2400,-0.2810,3.1700,3.191
10.2620,-0.5320,-0.1670,3.0560,3.106
10.2620,-0.8360,-0.1790,2.7560,2.886
10.2710,-1.0630,-0.3000,2.2530,2.509
10.2800,-1.2170,-0.5470,1.6570,2.127
10.2920,-1.2830,-0.8850,1.1220,1.920
10.3000,-1.4050,-1.2030,0.7200,1.985
10.3110,-1.5670,-1.3550,0.3760,2.105
10.3200,-1.6710,-1.4780,-0.0020,2.231
10.3300,-1.6900,-1.6410,-0.4020,2.390
10.3640,-1.7610,-1.7770,-0.7680,2.617
10.3640,-1.9270,-1.8510,-1.0370,2.866
10.3650,-2.1100,-1.8490,-1.2170,3.058
10.3710,-2.3340,-1.8480,-1.3970,3.289
10.3800,-2.5630,-1.8570,-1.5310,3.516
10.3910,-2.8100,-1.8520,-1.6050,3.729
10.4000,-3.0660,-1.7800,-1.6610,3.915
10.4100,-3.2320,-1.7390,-1.6970,4.043
10.4290,-3.2630,-1.8120,-1.7350,4.116
10.4300,-3.2680,-1.8660,-1.7260,4.140
10.4610,-3.2850,-1.9480,-1.7600,4.205
10.4620,-3.3390,-2.0390,-1.7750,4.296
10.4620,-3.4590,-2.1290,-1.8370,4.458
10.4710,-3.5620,-2.2180,-1.8620,4.591
10.4810,-3.6850,-2.2440,-1.8670,4.701
10.4910,-3.8260,-2.2660,-1.8250,4.807
10.5010,-3.9330,-2.3070,-1.7630,4.889
10.5120,-4.0070,-2.2950,-1.7000,4.921
10.5210,-4.0310,-2.2160,-1.6300,4.880
10.5450,-3.8330,-2.1970,-1.5390,4.678
10.5450,-3.3470,-2.3780,-1.4550,4.356
10.5510,-2.7210,-2.7220,-1.4860,4.126
10.5610,-2.2240,-3.0790,-1.6310,4.134
10.5710,-1.9680,-3.3620,-1.9690,4.365
10.5810,-1.9520,-3.4140,-2.3590,4.586
10.5920,-1.9710,-3.4060,-2.6870,4.765
10.6010,-2.0190,-3.4530,-2.9420,4.965
10.6160,-2.1560,-3.4180,-3.1590,5.129
10.6210,-2.4320,-3.1040,-3.2000,5.078
10.6320,-2.8250,-2.5100,-3.0790,4.875
10.6640,-3.2110,-1.7080,-2.7680,4.571
10.6650,-3.4310,-0.8250,-2.2320,4.175
10.6660,-3.1800,-0.0430,-1.4980,3.515
10.6710,-2.4480,0.5390,-0.7620,2.620
10.6800,-1.5510,0.8360,-0.2700,1.783
10.6900,-0.7310,0.8980,-0.1080,1.163
10.7000,-0.0850,0.7460,-0.1480,0.765
10.7100,0.4500,0.5180,-0.3450,0.768
10.7210,0.8360,0.2800,-0.4770,1.002
10.7300,1.1960,-0.0180,-0.5310,1.309
10.7690,1.5520,-0.4180,-0.5540,1.700
10.7700,1.8900,-0.8690,-0.5180,2.144
10.7700,2.2540,-1.2670,-0.4090,2.618
10.7700,2.6090,-1.6050,-0.1510,3.067
10.7810,2.8930,-1.7570,0.1510,3.388
10.7910,2.9800,-1.6970,0.5310,3.470
10.8010,2.9480,-1.4440,0.9080,3.406
10.8100,2.9380,-1.0380,1.2390,3.353
10.8220,2.8520,-0.5450,1.5070,3.271
10.8310,2.7600,0.0080,1.7070,3.245
10.8660,2.7260,0.4900,1.8320,3.321
10.8660,2.7100,0.8780,1.9350,3.444
10.8660,2.7490,1.2350,2.1080,3.678
10.8700,2.7930,1.5240,2.3600,3.961
10.8810,2.9050,1.6920,2.5890,4.243
10.8900,3.1290,1.8020,2.8140,4.578
10.9000,3.4180,1.8650,2.9620,4.892
10.9110,3.7420,1.8480,3.0580,5.174
10.9190,4.0460,1.7670,3.1330,5.414
10.9300,4.2370,1.6580,3.1640,5.542
10.9590,4.2710,1.5270,3.1470,5.521
10.9590,4.1680,1.4150,3.0520,5.356
10.9590,3.9430,1.2890,2.9210,5.074
10.9700,3.7650,1.1570,2.8140,4.841
10.9800,3.6350,1.0220,2.7360,4.663
10.9910,3.5580,0.9640,2.7070,4.573
11.0000,3.5970,0.9030,2.7720,4.630
11.0100,3.7180,0.8980,2.9330,4.820
11.0220,3.8660,0.9890,3.1440,5.080
11.0320,4.0530,1.1460,3.3270,5.367
11.0650,4.2490,1.3180,3.4790,5.648
11.0650,4.4440,1.4610,3.6040,5.905
11.0660,4.6140,1.4970,3.6440,6.067
11.0700,4.7440,1.5270,3.6350,6.169
11.0800,4.9540,1.4830,3.5630,6.280
11.0900,5.1600,1.3970,3.4940,6.386
11.1000,5.3720,1.2940,3.4640,6.522
11.1100,5.6150,1.1020,3.3930,6.652
11.1190,5.8580,0.9150,3.3340,6.802
11.1310,6.0310,0.7320,3.3370,6.931
11.1610,6.2150,0.4410,3.3990,7.097
11.1620,6.4620,-0.0170,3.4440,7.322
11.1620,6.7540,-0.5940,3.4650,7.614
11.1710,6.9780,-1.0190,3.5390,7.890
11.1800,7.0270,-1.1410,3.7960,8.068
11.1900,7.0640,-1.0560,3.9770,8.175
11.2000,7.0750,-0.8550,4.1480,8.246
11.2110,6.9880,-0.3540,4.2730,8.199
11.2270,6.7570,0.3490,4.3990,8.070
11.2300,6.3790,1.2060,4.5510,7.928
11.2580,6.0120,2.0070,4.6780,7.878
11.2580,5.8660,2.6160,4.7620,7.996
11.2600,5.7650,2.9620,4.8040,8.068
11.2710,5.6910,3.1050,4.8470,8.095
11.2800,5.6210,2.9430,4.7530,7.928
11.2900,5.5780,2.4800,4.6250,7.659
11.3010,5.4350,1.8250,4.4420,7.253
11.3100,5.0450,1.0940,4.1580,6.629
11.3280,4.6030,0.3160,3.5360,5.813
11.3290,4.2700,-0.4450,3.0930,5.291
11.3680,3.7820,-1.1590,2.7700,4.829
11.3690,3.1650,-1.7510,2.3670,4.323
11.3690,2.5270,-2.1950,2.0390,3.919
11.3690,1.9120,-2.5260,1.8870,3.687
11.3810,1.2780,-2.6800,1.8540,3.500
11.3900,0.7120,-2.5940,1.8410,3.260
11.4000,0.2710,-2.2830,1.8900,2.976
11.4100,-0.0920,-1.8850,1.9850,2.739
11.4200,-0.3870,-1.4700,2.1200,2.609
11.4300,-0.5470,-1.0250,2.1670,2.459
11.4610,-0.5780,-0.6520,2.1380,2.309
11.4610,-0.5700,-0.3680,2.1350,2.240
11.4620,-0.5900,-0.1060,2.0900,2.174
11.4700,-0.6720,0.0660,1.9410,2.055
11.4790,-0.7210,0.1190,1.6390,1.795
11.4900,-0.6900,0.1120,1.3420,1.513
11.5000,-0.6490,0.0990,1.0030,1.199
11.5100,-0.6310,0.0550,0.6040,0.875
11.5200,-0.6420,-0.0500,0.2280,0.683
11.5300,-0.7360,-0.1390,-0.1440,0.763
11.5640,-0.9040,-0.2390,-0.4070,1.020
11.5650,-1.0930,-0.3500,-0.5810,1.286
11.5650,-1.2800,-0.4870,-0.6940,1.535
11.5690,-1.4400,-0.5650,-0.8210,1.751
11.5790,-1.5950,-0.6070,-0.9100,1.934
11.5900,-1.7310,-0.6410,-0.9340,2.069
11.6000,-1.8450,-0.7600,-0.9370,2.204
11.6140,-1.9240,-1.0130,-0.9250,2.363
11.6200,-2.0870,-1.1590,-0.8920,2.548
11.6290,-2.3220,-1.2380,-0.8730,2.772
11.6640,-2.4960,-1.4210,-0.9300,3.019
11.6640,-2.6710,-1.7190,-1.0020,3.331
11.6640,-2.9170,-1.8650,-1.0640,3.622
11.6710,-3.1270,-1.9630,-1.1370,3.863
11.6800,-3.2470,-2.1430,-1.2550,4.088
11.6890,-3.4000,-2.2540,-1.3950,4.311
11.7000,-3.5400,-2.2860,-1.5120,4.477
11.7100,-3.6070,-2.4040,-1.5830,4.615
11.7200,-3.6280,-2.5070,-1.6260,4.700
11.7300,-3.5620,-2.4520,-1.6370,4.624
11.7640,-3.3100,-2.4600,-1.7080,4.464
11.7650,-2.8960,-2.6340,-1.8360,4.324
11.7650,-2.4930,-2.9020,-2.0270,4.330
11.7690,-2.2220,-3.1110,-2.1590,4.391
11.7800,-2.1330,-3.1210,-2.2550,4.402
11.7890,-2.0530,-3.1410,-2.2860,4.394
11.7990,-1.8940,-3.2650,-2.3720,4.458
11.8100,-1.8120,-3.2100,-2.5050,4.457
11.8190,-1.8850,-2.8700,-2.6030,4.309
11.8290,-2.0500,-2.2350,-2.5690,3.975
11.8590,-2.2430,-1.4380,-2.3730,3.568
11.8590,-2.3750,-0.6550,-2.0540,3.208
11.8590,-2.2180,0.0150,-1.6170,2.745
11.8700,-1.7020,0.4150,-1.1720,2.108
11.8790,-1.0370,0.6500,-0.7180,1.419
11.8890,-0.3780,0.7240,-0.4260,0.921
11.8990,0.2200,0.6750,-0.3090,0.774
11.9110,0.7960,0.5610,-0.2080,0.996
11.9190,1.3230,0.3910,-0.0960,1.383
11.9300,1.8470,0.0950,-0.0030,1.849
11.9580,2.2950,-0.2850,0.0840,2.314
11.9580,2.5950,-0.6410,0.2060,2.681
11.9590,2.7440,-0.9020,0.3410,2.909
11.9710,2.7850,-1.0960,0.4710,3.030
11.9790,2.7110,-1.1640,0.5660,3.004
11.9890,2.5270,-1.0750,0.6840,2.830
11.9990,2.2990,-0.7990,0.7760,2.555
12.0100,2.0770,-0.4380,0.7920,2.266
12.0200,1.8650,-0.0550,0.7180,1.999
12.0300,1.6600,0.3410,0.7350,1.847
12.0570,1.5070,0.6880,0.8470,1.861
12.0580,1.4290,0.9800,1.0910,2.048
12.0580,1.4890,1.2420,1.3560,2.366
12.0700,1.6120,1.4520,1.6050,2.699
12.0800,1.7370,1.6410,1.8620,3.029
12.0900,1.9710,1.7960,2.0870,3.386
12.1000,2.2340,1.8590,2.2180,3.656
12.1090,2.4560,1.8820,2.2840,3.846
12.1210,2.6140,1.9260,2.3500,4.008
12.1290,2.7480,1.9860,2.3220,4.109
12.1590,2.8870,1.9580,2.2190,4.134
12.1600,3.0010,1.8150,2.0730,4.074
12.1600,3.1020,1.6330,1.9780,4.025
12.1700,3.1740,1.4940,1.9640,4.020
12.1800,3.2460,1.4010,2.0650,4.094
12.1890,3.3870,1.2680,2.2940,4.283
12.2000,3.6340,1.1020,2.6640,4.639
12.2180,3.8510,1.0300,3.1010,5.050
12.2190,4.0190,1.0540,3.4840,5.422
12.2360,4.1850,1.0490,3.7610,5.724
12.2400,4.3370,0.9880,3.9650,5.959
12.2530,4.4590,0.9470,4.1130,6.140
12.2600,4.6030,0.8780,4.2140,6.302
12.2990,4.7510,0.8040,4.3240,6.474
12.2990,4.8700,0.7650,4.4340,6.630
12.2990,4.9650,0.7030,4.5670,6.783
12.2990,5.0660,0.5940,4.6130,6.877
12.3090,5.0930,0.5020,4.6220,6.896
12.3180,5.0590,0.4100,4.5710,6.830
12.3290,5.1230,0.2460,4.4890,6.816
12.3560,5.3460,-0.1190,4.4340,6.947
12.3570,5.6510,-0.6680,4.3860,7.184
12.3580,5.7960,-1.0820,4.4200,7.369
12.3700,5.8490,-1.1500,4.5660,7.509
12.3790,5.8710,-1.0770,4.7340,7.618
12.3890,5.8330,-0.8160,4.9140,7.671
12.4000,5.6760,-0.2940,5.0680,7.615
12.4140,5.3430,0.4910,5.2090,7.478
12.4360,4.8980,1.2750,5.2080,7.262
12.4370,4.4850,2.0070,5.1180,7.095
12.4400,4.2040,2.4570,4.9630,6.953
12.4490,4.0230,2.5990,4.7220,6.726
12.4590,3.8490,2.5220,4.3870,6.358
12.4970,3.6780,2.2790,4.0200,5.906
12.4970,3.4760,1.8890,3.7100,5.424
12.4970,3.2180,1.4220,3.4030,4.895
12.4990,2.9550,0.9240,3.0940,4.377
12.5090,2.7500,0.4030,2.8040,3.948
12.5220,2.5820,-0.1390,2.5970,3.665
12.5300,2.3070,-0.6530,2.4710,3.443
12.5600,1.9240,-1.0810,2.3400,3.217
12.5600,1.4920,-1.4230,2.2220,3.031
12.5610,1.1720,-1.6150,2.1420,2.927
12.5690,0.9160,-1.6490,2.1000,2.823
12.5800,0.6570,-1.4870,2.0910,2.649
12.5900,0.4210,-1.2480,2.1240,2.499
12.5980,0.2320,-0.8870,2.2150,2.397
12.6090,0.1060,-0.4390,2.3510,2.394
12.6250,0.0590,-0.0700,2.5270,2.529
12.6280,0.0100,0.2180,2.7050,2.714
12.6540,-0.0610,0.4180,2.8180,2.849
12.6540,-0.1840,0.5880,2.7720,2.840
12.6590,-0.2970,0.6950,2.5700,2.679
12.6700,-0.4010,0.6490,2.1840,2.313
12.6790,-0.4910,0.5050,1.7490,1.885
12.6890,-0.5670,0.3530,1.3090,1.470
12.6990,-0.5950,0.1960,0.8590,1.063
12.7090,-0.6200,0.0450,0.3850,0.731
12.7220,-0.6780,-0.1060,-0.0400,0.687
12.7290,-0.7700,-0.2540,-0.3720,0.892
12.7470,-0.8950,-0.3530,-0.6160,1.142
12.7490,-0.9670,-0.4880,-0.7700,1.329
12.7590,-1.0160,-0.6000,-0.8290,1.442
12.7710,-1.1070,-0.6750,-0.8100,1.529
12.7790,-1.2010,-0.7520,-0.7670,1.611
12.7890,-1.2630,-0.8820,-0.7330,1.706
12.7990,-1.2990,-1.0490,-0.7620,1.835
12.8130,-1.3780,-1.2610,-0.7810,2.025
12.8240,-1.4880,-1.5160,-0.8590,2.291
12.8280,-1.6170,-1.8270,-0.9960,2.635
12.8410,-1.7400,-2.0900,-1.1450,2.951
12.8490,-1.9130,-2.3690,-1.2980,3.310
12.8580,-2.1190,-2.6780,-1.4060,3.693
12.8690,-2.4120,-2.9660,-1.5750,4.135
12.8780,-2.8340,-3.0460,-1.8010,4.534
12.8890,-3.1400,-2.8820,-1.9910,4.704
12.8990,-3.1730,-2.7080,-2.0900,4.666
12.9080,-2.8660,-2.8020,-2.1740,4.560
12.9230,-2.4740,-3.0350,-2.2510,4.517
12.9280,-2.0940,-3.3330,-2.1890,4.504
12.9460,-1.5970,-3.8050,-2.0580,4.611
12.9480,-1.2840,-4.3090,-1.9310,4.893
12.9590,-1.3550,-4.6020,-1.8680,5.148
12.9690,-1.6530,-4.7230,-1.8730,5.343
12.9780,-1.9770,-4.6820,-1.9850,5.456
12.9890,-2.4290,-4.2930,-2.1660,5.387
12.9980,-3.0340,-3.4750,-2.3540,5.179
13.0090,-3.5210,-2.4240,-2.4520,4.928
13.0240,-3.8360,-1.2680,-2.4160,4.707
13.0290,-3.8290,-0.2290,-2.2200,4.432
13.0510,-3.4690,0.5140,-1.8760,3.977
13.0510,-2.8960,0.8880,-1.4290,3.349
13.0590,-2.1110,0.9600,-1.0360,2.540
13.0700,-1.1020,0.8800,-0.8220,1.632
13.0790,-0.0590,0.8060,-0.7040,1.072
13.0890,0.8820,0.6920,-0.7380,1.342
13.0980,1.7100,0.4980,-0.9180,2.004
13.1080,2.3030,0.1820,-1.2490,2.626
13.1180,2.5020,-0.1840,-1.6350,2.995
13.1280,2.3130,-0.5140,-1.9860,3.092
13.1510,1.8130,-0.8050,-2.2300,2.985
13.1520,1.2730,-1.0420,-2.3060,2.833
13.1580,0.8360,-1.2040,-2.1760,2.624
13.1690,0.4750,-1.1120,-1.7500,2.127
13.1780,0.1790,-0.7730,-1.2200,1.455
13.1890,0.0450,-0.2970,-0.6420,0.709
13.1990,0.1030,0.1200,-0.0940,0.184
13.2090,0.3230,0.4770,0.4560,0.735
13.2240,0.5700,0.8130,0.9910,1.403
13.2290,0.8420,1.0980,1.4570,2.009
13.2610,1.2240,1.2640,1.7720,2.497
13.2610,1.5970,1.3670,1.9420,2.862
13.2610,1.8570,1.4860,2.0740,3.156
13.2680,2.0580,1.5300,2.2100,3.385
13.2780,2.2400,1.5400,2.3000,3.561
13.2890,2.4340,1.5540,2.3760,3.740
13.2980,2.6580,1.5640,2.4680,3.950
13.3080,2.9090,1.5870,2.6000,4.212
13.3200,3.1900,1.6480,2.7420,4.518
13.3290,3.4530,1.6670,2.8200,4.760
13.3530,3.7190,1.7040,2.9460,5.041
13.3540,3.9030,1.7380,3.0930,5.275
13.3580,4.0110,1.7400,3.2780,5.465
13.3680,4.1190,1.7480,3.4670,5.661
13.3780,4.1540,1.7660,3.6450,5.802
13.3880,4.1530,1.8060,3.7830,5.901
13.3980,4.1530,1.7800,3.8250,5.920
13.4080,4.1590,1.7240,3.8660,5.934
13.4180,4.1580,1.6260,3.9230,5.943
13.4290,4.2040,1.4300,3.9920,5.971
13.4530,4.2700,1.1940,4.0510,6.006
13.4540,4.3770,0.9670,4.0910,6.069
13.4580,4.5320,0.7110,4.0980,6.151
13.4680,4.6860,0.5460,4.1530,6.285
13.4780,4.8350,0.4600,4.2020,6.422
13.4890,4.9670,0.3610,4.1940,6.511
13.4990,4.9400,0.2720,4.1150,6.435
13.5080,4.8610,0.1460,4.0220,6.311
13.5190,4.9670,-0.2230,3.9210,6.332
13.5280,5.0790,-0.6710,3.8850,6.430
13.5580,5.0430,-0.9070,3.9370,6.462
13.5580,4.9370,-0.7890,4.0860,6.457
13.5580,5.0100,-0.5300,4.2200,6.572
13.5680,5.0960,-0.1050,4.2950,6.665
13.5780,4.9780,0.5900,4.3660,6.648
13.5880,4.8250,1.2890,4.3590,6.629
13.6000,4.8260,1.8720,4.2230,6.680
13.6080,4.8940,2.2670,3.9990,6.714
13.6210,4.9890,2.5460,3.7930,6.765
13.6290,5.1050,2.5800,3.6440,6.782
13.6650,5.2030,2.3400,3.5530,6.721
13.6650,5.2530,1.9150,3.4750,6.583
13.6650,5.2000,1.4430,3.3690,6.362
13.6680,5.0970,1.0280,3.2100,6.111
13.6790,4.9120,0.5540,2.9650,5.764
13.6890,4.6750,-0.1270,2.7050,5.403
13.6980,4.3330,-0.8560,2.4930,5.072
13.7080,3.8800,-1.5130,2.4730,4.843
13.7200,3.3340,-1.9720,2.6020,4.666
13.7290,2.8320,-2.2200,2.7540,4.531
13.7610,2.3370,-2.2900,2.8610,4.346
13.7620,1.8080,-2.1770,2.9330,4.076
13.7620,1.2850,-1.8760,2.9780,3.747
13.7680,0.8260,-1.4840,2.9610,3.414
13.7780,0.4350,-1.0500,2.8480,3.066
13.7880,0.0270,-0.6390,2.7270,2.801
13.8000,-0.3420,-0.3000,2.5900,2.630
13.8080,-0.6190,-0.0450,2.4320,2.510
13.8200,-0.8430,0.1180,2.2620,2.417
13.8290,-0.9950,0.2130,2.0490,2.288
13.8560,-1.0810,0.2050,1.7270,2.048
13.8560,-1.1360,0.0970,1.3280,1.750
13.8570,-1.2070,-0.0630,0.9090,1.512
13.8670,-1.3210,-0.2090,0.4710,1.418
13.8780,-1.4130,-0.3010,0.0010,1.445
13.8880,-1.5090,-0.4600,-0.4360,1.637
13.8980,-1.6770,-0.6230,-0.8500,1.981
13.9080,-1.8450,-0.7220,-1.1840,2.308
13.9240,-2.0230,-0.7110,-1.3780,2.549
13.9280,-2.1170,-0.6770,-1.4870,2.674
13.9440,-2.1790,-0.6350,-1.4660,2.702
13.9480,-2.2460,-0.6160,-1.4770,2.758
13.9570,-2.4070,-0.6130,-1.4900,2.896
13.9680,-2.5940,-0.6920,-1.5260,3.088
13.9770,-2.7240,-0.8420,-1.5910,3.265
13.9880,-2.7960,-1.0690,-1.6270,3.407
13.9980,-2.8810,-1.2840,-1.6560,3.562
14.0080,-2.9020,-1.5630,-1.6910,3.705
14.0230,-2.8820,-1.8620,-1.7560,3.854
14.0290,-2.8400,-2.1930,-1.8420,4.033
14.0500,-2.7960,-2.5250,-1.9440,4.239
14.0510,-2.8100,-2.7100,-2.0340,4.402
14.0580,-2.8930,-2.6140,-2.0370,4.399
14.0680,-2.8890,-2.4060,-1.9900,4.254
14.0780,-2.6920,-2.3920,-1.8930,4.068
14.0890,-2.3640,-2.6630,-1.8580,4.016
14.1000,-2.0520,-3.1160,-1.8790,4.177
14.1090,-1.8530,-3.5200,-1.9580,4.434
14.1190,-1.8770,-3.6790,-2.0230,4.599
14.1280,-2.0260,-3.7330,-2.0940,4.735
14.1660,-2.0490,-3.8680,-2.2160,4.906
14.1670,-1.9720,-3.8590,-2.3850,4.947
14.1670,-2.1170,-3.5060,-2.5020,4.799
14.1680,-2.4210,-2.9260,-2.5540,4.577
14.1770,-2.7320,-2.1550,-2.5350,4.305
14.1870,-2.9290,-1.2310,-2.3140,3.931
14.1980,-2.8510,-0.4610,-1.9220,3.469
14.2080,-2.4000,-0.0240,-1.3640,2.761
14.2280,-1.7350,0.1770,-0.7530,1.900
14.2290,-0.9720,0.2000,-0.2670,1.028
14.2740,-0.1360,0.1440,0.0120,0.198
14.2750,0.6670,0.0280,0.1180,0.678
14.2750,1.4240,-0.1410,0.0780,1.433
14.2760,2.1160,-0.4250,-0.1340,2.162
14.2770,2.6660,-0.7530,-0.3990,2.799
14.2880,2.9840,-0.9950,-0.6470,3.211
14.2980,3.0360,-1.1030,-0.8270,3.334
14.3080,2.8420,-1.0620,-0.8780,3.158
14.3220,2.6610,-0.9460,-0.8490,2.949
14.3280,2.5550,-0.6980,-0.6870,2.736
14.3550,2.4780,-0.2740,-0.4130,2.527
14.3560,2.3830,0.3050,-0.0860,2.404
14.3570,2.2620,0.8500,0.2770,2.432
14.3680,2.1170,1.3130,0.6340,2.571
14.3770,2.0840,1.6860,0.9980,2.860
14.3880,2.1740,2.0020,1.3980,3.269
14.3990,2.3370,2.2300,1.7000,3.650
14.4070,2.4840,2.3580,1.9080,3.921
14.4230,2.6410,2.4130,2.0450,4.121
14.4270,2.7670,2.4430,2.1030,4.248
14.4550,2.8350,2.4360,2.1400,4.307
14.4560,2.8380,2.3220,2.1660,4.259
14.4570,2.8260,2.1480,2.1790,4.165
14.4670,2.7880,1.9420,2.1630,4.028
14.4790,2.8180,1.7180,2.1870,3.959
14.4880,2.8630,1.4680,2.2500,3.926
14.4970,2.9420,1.2260,2.4620,4.027
14.5080,3.0940,0.9800,2.7570,4.258
14.5240,3.2540,0.7590,3.0720,4.539
14.5270,3.3940,0.6350,3.3790,4.831
14.5480,3.5440,0.6480,3.6930,5.159
14.5480,3.6910,0.7110,4.0120,5.498
14.5570,3.8120,0.8550,4.2810,5.796
14.5670,3.8650,1.0340,4.4570,5.989
14.5770,3.8120,1.2200,4.5060,6.027
14.5890,3.8330,1.4140,4.5170,6.091
14.5970,3.9630,1.4560,4.5110,6.179
14.6080,4.2070,1.3730,4.5070,6.316
14.6220,4.4200,1.2790,4.6280,6.526
14.6280,4.6430,1.1410,4.8020,6.776
14.6520,4.8760,0.9530,4.8860,6.968
14.6530,5.0940,0.7900,4.8240,7.060
14.6570,5.3300,0.5830,4.6820,7.118
14.6680,5.5800,0.2850,4.4720,7.157
14.6780,5.8520,-0.0870,4.2660,7.242
14.6880,6.0890,-0.4800,4.1420,7.380
14.6980,6.2080,-0.8310,4.1340,7.505
14.7070,6.1230,-0.8900,4.2670,7.516
14.7230,5.9730,-0.6650,4.4650,7.487
14.7270,5.9660,-0.4750,4.5720,7.531
14.7620,5.8960,-0.2030,4.5990,7.480
14.7630,5.6630,0.3030,4.6390,7.327
14.7630,5.3530,1.0150,4.6530,7.165
14.7680,5.0660,1.7530,4.5720,7.046
14.7780,4.8020,2.4250,4.5450,7.043
14.7880,4.5850,2.8870,4.5120,7.051
14.7970,4.4380,3.0790,4.3930,6.962
14.8080,4.3860,3.0210,4.2300,6.801
14.8170,4.4030,2.7080,3.9670,6.516
14.8280,4.4640,2.1880,3.5490,6.108
14.8600,4.4610,1.5700,3.0500,5.627
14.8600,4.4080,0.9060,2.5390,5.167
14.8610,4.3400,0.1760,1.9980,4.781
14.8680,4.2760,-0.5700,1.5750,4.592
14.8770,4.0180,-1.3090,1.2570,4.409
14.8910,3.5490,-1.9020,1.1210,4.180
14.8970,2.9790,-2.3660,1.2240,3.996
14.9080,2.4360,-2.6160,1.4220,3.847
14.9170,2.0120,-2.6530,1.6890,3.734
14.9280,1.6910,-2.3940,1.9020,3.494
14.9360,1.3330,-1.9850,1.9880,3.110
14.9470,0.9420,-1.5690,1.9160,2.650
14.9740,0.5150,-1.1180,1.8890,2.255
14.9740,0.1260,-0.6950,1.9560,2.080
14.9770,-0.2130,-0.3890,2.0560,2.103
14.9870,-0.5140,-0.1690,2.2280,2.293
14.9970,-0.7420,0.0060,2.3420,2.457
15.0070,-0.8870,0.0630,2.2830,2.450
15.0160,-1.0190,0.0670,2.0130,2.257
15.0270,-1.1590,0.0050,1.7800,2.124
15.0370,-1.2730,-0.1360,1.4100,1.905
15.0700,-1.3560,-0.3320,0.9940,1.714
15.0710,-1.4800,-0.5320,0.5980,1.683
15.0710,-1.6070,-0.7150,0.2900,1.783
15.0770,-1.7410,-0.8300,-0.0050,1.929
15.0870,-1.8580,-0.9130,-0.4090,2.110
15.1000,-2.0460,-0.9420,-0.7420,2.372
15.1080,-2.2190,-0.9610,-0.8780,2.573
15.1170,-2.2760,-1.0400,-0.9600,2.680
15.1270,-2.3490,-1.1110,-1.1290,2.833
15.1410,-2.4670,-1.1050,-1.3500,3.022
15.1470,-2.5880,-1.1710,-1.6030,3.262
15.1560,-2.6500,-1.2790,-1.8490,3.475
15.1670,-2.7120,-1.4190,-2.1000,3.712
15.1770,-2.8330,-1.5700,-2.3610,4.008
15.1870,-2.9400,-1.7240,-2.6140,4.295
15.1970,-3.0200,-1.8920,-2.8250,4.548
15.2070,-3.1830,-1.9210,-2.9830,4.767
15.2170,-3.3460,-1.9330,-3.0680,4.934
15.2270,-3.4410,-1.9890,-3.1210,5.053
15.2380,-3.4800,-2.0560,-3.1300,5.112
15.2480,-3.4360,-2.1020,-3.0660,5.062
15.2640,-3.2540,-2.1900,-2.8690,4.860
15.2670,-2.8390,-2.4070,-2.5600,4.517
15.2760,-2.3810,-2.7540,-2.2270,4.268
15.2870,-1.9730,-3.2130,-2.0660,4.299
15.2980,-1.7120,-3.7060,-2.0400,4.564
15.3080,-1.6820,-3.8270,-2.0540,4.658
15.3170,-1.6850,-3.7580,-2.0650,4.607
15.3270,-1.5580,-3.8300,-2.1260,4.649
15.3390,-1.3910,-3.8860,-2.1700,4.663
15.3570,-1.4220,-3.4760,-2.0530,4.280
15.3570,-1.6030,-2.6470,-1.7340,3.547
15.3700,-1.8280,-1.6430,-1.2640,2.764
15.3760,-2.0100,-0.6400,-0.7660,2.244
15.3870,-1.9530,0.2780,-0.2930,1.994
15.3970,-1.6910,0.9310,0.0510,1.931
15.4080,-1.0780,1.2390,0.2380,1.659
15.4160,-0.1110,1.2720,0.1450,1.285
15.4270,0.9040,1.1780,-0.1200,1.490
15.4370,1.7820,1.1010,-0.4980,2.153
15.4500,2.4270,0.9330,-0.9410,2.765
15.4560,2.8000,0.6760,-1.3900,3.198
15.4680,3.0180,0.2730,-1.7250,3.487
15.4770,3.1350,-0.2120,-1.9240,3.684
15.4870,3.1120,-0.7550,-2.0390,3.796
15.4970,2.9710,-1.1500,-1.9170,3.718
15.5080,2.8010,-1.4220,-1.6560,3.551
15.5180,2.5990,-1.4780,-1.1900,3.218
15.5280,2.3620,-1.2650,-0.6640,2.760
15.5370,2.0760,-0.8360,-0.1370,2.242
15.5470,1.9080,-0.3610,0.3870,1.980
15.5560,1.8200,0.1330,1.0320,2.096
15.5750,1.8010,0.6080,1.7170,2.562
15.5770,1.7880,1.0380,2.2880,3.084
15.5880,1.8250,1.4200,2.6200,3.494
15.5960,1.9720,1.5930,2.7640,3.750
15.6100,2.1910,1.6360,2.9150,3.997
15.6160,2.3260,1.6790,2.9890,4.143
15.6270,2.4020,1.7600,3.0080,4.233
15.6360,2.4770,1.7820,2.9590,4.250
15.6560,2.5700,1.6970,2.8440,4.192
15.6570,2.6500,1.5710,2.7790,4.149
15.6660,2.7300,1.5120,2.7650,4.169
15.6770,2.8470,1.5010,2.7780,4.252
15.6870,2.9520,1.4470,2.7980,4.317
15.6970,3.0240,1.3460,2.7790,4.322
15.7080,3.0100,1.2750,2.8020,4.305
15.7160,2.9580,1.2340,2.9000,4.322
15.7270,2.9090,1.2320,2.9950,4.353
15.7360,2.8890,1.2670,3.0620,4.396
15.7570,2.9570,1.2640,3.0890,4.459
15.7580,3.0560,1.3290,3.1380,4.577
15.7670,3.1490,1.3710,3.2250,4.711
15.7760,3.1760,1.4480,3.3120,4.812
15.7870,3.2240,1.4580,3.3810,4.894
15.7980,3.3820,1.3070,3.4060,4.975
15.8070,3.5500,1.0870,3.4260,5.052
15.8170,3.6930,0.8440,3.4040,5.093
15.8260,3.8580,0.5510,3.3730,5.154
15.8360,4.0190,0.2560,3.3700,5.251
15.8580,4.1390,0.0310,3.5160,5.431
15.8580,4.3370,-0.1320,3.7710,5.749
15.8670,4.5560,-0.2230,4.1050,6.137
15.8760,4.7270,-0.3330,4.3570,6.437
15.8860,4.9680,-0.5610,4.5210,6.741
15.8980,5.1440,-0.8620,4.6950,7.018
15.9060,5.2140,-0.9440,4.9510,7.252
15.9170,5.2770,-0.7460,5.3260,7.535
15.9280,5.4590,-0.5120,5.6560,7.877
15.9370,5.6080,-0.1920,5.8570,8.111
15.9530,5.6980,0.1980,5.9960,8.274
15.9560,5.6530,0.7930,6.2430,8.459
15.9850,5.4970,1.4500,6.4010,8.561
15.9850,5.3580,2.1350,6.4320,8.639
15.9860,5.2350,2.6160,6.4370,8.700
15.9960,5.1170,2.9540,6.3100,8.644
16.0070,5.0170,3.0280,5.9720,8.367
16.0160,4.9060,2.7840,5.5280,7.898
16.0270,4.7080,2.3670,4.8990,7.195
16.0410,4.4990,1.8440,4.2460,6.455
16.0640,4.3300,1.2560,3.6630,5.809
16.0650,4.2740,0.6200,3.0890,5.310
16.0660,4.2360,-0.0430,2.6340,4.988
16.0850,4.0720,-0.6920,2.2630,4.710
16.0900,3.8000,-1.4350,2.0740,4.561
16.1130,3.4900,-2.1960,2.0900,4.623
16.1170,3.1180,-2.7620,2.2850,4.751
16.1170,2.6940,-3.0570,2.5080,4.785
16.1270,2.2320,-3.0550,2.6490,4.619
16.1360,1.7770,-2.8500,2.7980,4.371
16.1460,1.3740,-2.5680,2.9770,4.165
16.1560,1.0170,-2.1720,3.1320,3.945
16.1840,0.7160,-1.7050,3.2430,3.733
16.1850,0.4400,-1.2810,3.1420,3.422
16.1860,0.0950,-0.9310,2.9350,3.081
16.1960,-0.2890,-0.6390,2.6590,2.750
16.2060,-0.6660,-0.4320,2.3340,2.465
16.2160,-0.9650,-0.2950,2.0380,2.274
16.2280,-1.1570,-0.2500,1.7170,2.085
16.2360,-1.2560,-0.2750,1.3920,1.895
16.2490,-1.3270,-0.3910,1.0390,1.730
16.2560,-1.3460,-0.5260,0.7030,1.607
16.2930,-1.3320,-0.7040,0.3130,1.539
16.2930,-1.3700,-0.9210,-0.0310,1.651
16.2940,-1.4620,-1.1560,-0.3870,1.904
16.2960,-1.6960,-1.3260,-0.6680,2.254
16.3060,-1.9910,-1.4020,-0.8920,2.593
16.3170,-2.2630,-1.4920,-1.1090,2.929
16.3270,-2.5740,-1.5450,-1.2600,3.256
16.3370,-2.8840,-1.4930,-1.4110,3.541
16.3520,-3.1260,-1.4190,-1.4980,3.746
16.3560,-3.3120,-1.3970,-1.5770,3.925
16.3980,-3.4070,-1.3990,-1.6500,4.036
16.3980,-3.4460,-1.4570,-1.7170,4.117
16.3990,-3.4120,-1.5680,-1.7840,4.157
16.3990,-3.3030,-1.7450,-1.9030,4.192
16.4060,-3.2370,-1.9060,-1.9900,4.251
16.4160,-3.2310,-2.0220,-2.1010,4.352
16.4270,-3.2680,-2.1040,-2.2230,4.478
16.4360,-3.3650,-2.0520,-2.3240,4.575
16.4460,-3.3740,-1.8960,-2.3950,4.551
16.4570,-3.3010,-1.8090,-2.3360,4.430
16.4940,-3.1280,-1.8440,-2.1770,4.234
16.4940,-2.7830,-2.0400,-1.9220,3.950
16.4950,-2.3550,-2.3300,-1.6490,3.701
16.4960,-1.8640,-2.7000,-1.4230,3.576
16.5070,-1.4280,-3.1220,-1.3310,3.682
16.5170,-1.2090,-3.3160,-1.3680,3.785
16.5260,-1.2330,-3.1970,-1.5220,3.749
16.5360,-1.2360,-3.1090,-1.8240,3.811
16.5480,-1.1090,-3.1570,-2.1930,4.001
16.5570,-1.0390,-3.0470,-2.5100,4.082
16.5890,-1.1880,-2.6270,-2.6470,3.914
16.5890,-1.4380,-1.8330,-2.5520,3.455
16.5890,-1.6290,-0.8550,-2.2690,2.921
16.5960,-1.5940,0.0010,-1.8280,2.425
16.6060,-1.2760,0.7150,-1.2790,1.943
16.6160,-0.8650,1.2000,-0.7240,1.647
16.6300,-0.3880,1.3590,-0.3200,1.449
16.6360,0.1950,1.2560,-0.1350,1.278
16.6450,0.7540,1.0540,-0.1620,1.306
16.6550,1.2260,0.8950,-0.3200,1.551
16.6660,1.6170,0.6910,-0.5860,1.854
16.6750,1.9870,0.3420,-0.9230,2.217
16.7040,2.2460,-0.0640,-1.2720,2.582
16.7050,2.2850,-0.4820,-1.5100,2.781
16.7050,2.1620,-0.8630,-1.5910,2.820
16.7170,1.9740,-1.1650,-1.4550,2.715
16.7260,1.7940,-1.3520,-1.1490,2.523
16.7350,1.6490,-1.3740,-0.6490,2.242
16.7510,1.5060,-1.1330,-0.1530,1.891
16.7560,1.3920,-0.7090,0.2570,1.583
16.7920,1.3280,-0.2040,0.5360,1.447
16.7920,1.2540,0.3180,0.8190,1.531
16.7930,1.2370,0.7800,1.0870,1.822
16.7950,1.3210,1.1240,1.2630,2.146
16.8050,1.4570,1.3860,1.3800,2.439
16.8160,1.6590,1.6040,1.4480,2.724
16.8270,1.8660,1.7400,1.4590,2.939
16.8350,2.0620,1.8090,1.4040,3.081
16.8480,2.2450,1.8210,1.3940,3.209
16.8550,2.4170,1.7930,1.5290,3.376
16.8850,2.5920,1.7340,1.6910,3.547
16.8860,2.7300,1.6270,1.8930,3.699
16.8860,2.8740,1.5150,2.0890,3.863
16.8960,3.0450,1.4020,2.1780,3.998
16.9060,3.2850,1.2620,2.3070,4.208
16.9160,3.5420,1.1080,2.4940,4.471
16.9250,3.8380,0.9790,2.6540,4.768
16.9350,4.1390,0.8510,2.8590,5.102
16.9520,4.3860,0.7690,3.1430,5.450
16.9550,4.6120,0.7480,3.4910,5.832
16.9890,4.8110,0.7370,3.7650,6.153
16.9890,5.0020,0.7940,3.9990,6.453
16.9900,5.1470,0.9400,4.1120,6.655
16.9950,5.2320,1.0810,4.1530,6.767
17.0060,5.2840,1.1860,4.2030,6.855
17.0150,5.3590,1.3150,4.2640,6.974
17.0260,5.5160,1.3770,4.3990,7.188
17.0350,5.7140,1.3160,4.4280,7.348
17.0490,5.8750,1.2340,4.4420,7.468
17.0550,5.9570,1.1450,4.4100,7.500
17.0870,5.9940,1.0570,4.3480,7.480
17.0870,6.1160,0.8530,4.1250,7.426
17.0880,6.2520,0.4800,3.9360,7.403
17.0950,6.4220,0.0720,3.7890,7.457
17.1050,6.4880,-0.4930,3.7750,7.522
17.1150,6.5040,-0.8850,3.8390,7.604
17.1260,6.3980,-0.9890,3.9590,7.589
17.1350,6.3210,-0.9220,4.1460,7.615
17.1450,6.3700,-0.7500,4.3880,7.771
17.1560,6.3390,-0.4680,4.5630,7.825
17.1880,6.0520,0.0250,4.6640,7.641
17.1890,5.6740,0.7490,4.8200,7.482
17.1890,5.3620,1.5750,4.8760,7.417
17.1960,5.0920,2.3420,4.8530,7.414
17.2060,5.0010,2.9600,4.8730,7.584
17.2150,4.8970,3.2640,4.8760,7.643
17.2250,4.9690,3.3340,5.0700,7.843
17.2350,5.0340,3.0310,5.2230,7.862
17.2480,4.9840,2.5740,5.2440,7.679
17.2550,4.8140,1.9870,4.9870,7.211
17.2880,4.5080,1.3120,4.6750,6.626
17.2880,4.2130,0.4780,4.3520,6.076
17.2890,4.0230,-0.3450,3.8170,5.556
17.2940,3.7400,-1.1020,3.3500,5.140
17.3050,3.3690,-1.7200,2.9550,4.800
17.3150,2.9690,-2.1580,2.5540,4.472
17.3270,2.5980,-2.4260,2.2550,4.210
17.3350,2.2400,-2.5180,2.0080,3.923
17.3480,1.9050,-2.3890,1.8860,3.591
17.3550,1.5250,-2.1280,1.8700,3.217
17.3920,1.1680,-1.7820,2.0470,2.955
17.3930,0.8910,-1.3960,2.2920,2.828
17.3930,0.5550,-1.0390,2.4320,2.702
17.3950,0.2300,-0.7400,2.5650,2.680
17.4060,0.0180,-0.5300,2.5110,2.566
17.4150,-0.1700,-0.4100,2.3400,2.382
17.4260,-0.3090,-0.3540,2.0250,2.079
17.4350,-0.4270,-0.3490,1.6480,1.738
17.4500,-0.4930,-0.3940,1.3140,1.458
17.4550,-0.5850,-0.4970,0.8960,1.180
17.4890,-0.7340,-0.6270,0.4600,1.069
17.4890,-0.8780,-0.7930,0.1460,1.192
17.4890,-0.9560,-0.9540,-0.1890,1.364
17.4940,-1.0980,-1.1020,-0.4870,1.630
17.5050,-1.2920,-1.1690,-0.7580,1.900
17.5150,-1.5040,-1.1830,-0.9060,2.117
17.5250,-1.7470,-1.1920,-1.0560,2.364
17.5350,-1.9780,-1.2190,-1.1770,2.605
17.5490,-2.2060,-1.2140,-1.3620,2.863
17.5550,-2.4870,-1.1810,-1.5160,3.143
17.5880,-2.7110,-1.1480,-1.7040,3.402
17.5880,-2.8410,-1.2240,-1.8460,3.602
17.5890,-2.9720,-1.3460,-1.9410,3.796
17.5940,-3.1210,-1.4560,-2.0380,4.002
17.6050,-3.2500,-1.6030,-2.1940,4.236
17.6160,-3.3180,-1.7910,-2.3380,4.437
17.6260,-3.3200,-2.0380,-2.5140,4.636
17.6340,-3.2840,-2.3620,-2.7150,4.872
17.6490,-3.3260,-2.5770,-2.8750,5.096
17.6550,-3.5270,-2.5680,-3.0380,5.316
17.6850,-3.7900,-2.2770,-3.0820,5.390
17.6860,-3.7970,-2.1100,-2.9780,5.267
17.6860,-3.3910,-2.1620,-2.6710,4.828
17.6940,-2.7190,-2.3180,-2.2030,4.198
17.7040,-2.0050,-2.6330,-1.8490,3.791
17.7150,-1.4110,-3.0770,-1.7870,3.828
17.7280,-1.1640,-3.4060,-1.9260,4.082
17.7350,-1.3190,-3.5570,-2.2040,4.387
17.7470,-1.3960,-3.6310,-2.4670,4.606
17.7550,-1.2610,-3.6760,-2.6270,4.691
17.7650,-1.3890,-3.4910,-2.7360,4.648
17.7750,-1.7190,-2.9830,-2.7430,4.402
17.8010,-2.1690,-2.1500,-2.6520,4.045
17.8010,-2.5720,-1.1720,-2.2740,3.628
17.8050,-2.6880,-0.2950,-1.7160,3.203
17.8150,-2.3970,0.3330,-0.9970,2.617
17.8260,-1.8130,0.7720,-0.2700,1.989
17.8340,-1.1580,0.9800,0.1880,1.529
17.8470,-0.3730,0.9810,0.3660,1.112
17.8550,0.4420,0.9540,0.2740,1.087
17.8860,1.1510,0.8920,0.0540,1.457
17.8860,1.7510,0.7030,-0.1970,1.897
17.8870,2.2250,0.4200,-0.5370,2.327
17.8950,2.5030,0.0720,-0.8860,2.656
17.9060,2.5690,-0.2550,-1.2290,2.859
17.9150,2.4660,-0.5500,-1.4240,2.900
17.9250,2.2580,-0.8100,-1.4240,2.790
17.9350,1.9860,-0.9700,-1.2210,2.525
17.9470,1.7170,-0.9720,-0.8320,2.141
17.9550,1.5020,-0.7670,-0.5030,1.760
17.9770,1.3510,-0.4050,-0.2520,1.433
17.9780,1.2610,0.0280,0.0000,1.261
17.9850,1.2350,0.4020,0.1950,1.313
17.9940,1.2090,0.7010,0.3680,1.445
18.0050,1.1820,0.9700,0.6170,1.649
18.0150,1.2040,1.1800,0.7840,1.859
18.0250,1.3280,1.2890,0.8300,2.028
18.0350,1.5200,1.3760,0.7970,2.200
18.0460,1.6750,1.4740,0.8810,2.399
18.0550,1.9110,1.5220,0.9210,2.611
18.0890,2.1960,1.4030,1.0770,2.820
18.0890,2.4480,1.2550,1.3250,3.053
18.0900,2.6690,1.1570,1.5130,3.279
18.0940,2.8930,1.1210,1.6910,3.533
18.1050,3.0420,1.0260,1.9110,3.736
18.1140,3.2090,0.9620,2.1410,3.976
18.1250,3.3870,0.9180,2.2150,4.150
18.1360,3.5910,0.9350,2.2360,4.332
18.1480,3.8210,0.9690,2.2860,4.557
18.1550,4.0560,1.0150,2.4590,4.851
18.1820,4.2810,1.0810,2.6770,5.164
18.1830,4.5380,1.2150,2.8250,5.482
18.1840,4.8050,1.3330,2.9800,5.809
18.1960,5.1190,1.3940,3.2740,6.234
18.2060,5.5730,1.4100,3.5300,6.746
18.2150,6.0800,1.3400,3.7140,7.250
18.2250,6.5510,1.2030,3.8610,7.699
18.2350,6.9540,1.1090,4.0740,8.135
18.2460,7.3440,0.8650,4.2240,8.516
18.2560,7.5590,0.7520,4.2800,8.719
18.2810,7.5860,0.6800,4.3480,8.770
18.2820,7.5480,0.5690,4.3550,8.733
18.2850,7.4330,0.3650,4.1310,8.512
18.2950,7.2110,0.0620,3.8020,8.152
18.3040,7.0170,-0.4290,3.4840,7.846
18.3140,6.8410,-0.8450,3.3200,7.651
18.3260,6.6400,-0.9620,3.2960,7.475
18.3360,6.5440,-0.9060,3.2860,7.379
18.3460,6.5400,-0.7320,3.4320,7.422
18.3550,6.4440,-0.3560,3.7280,7.453
18.3650,6.2240,0.3160,4.0090,7.410
18.3810,5.9180,1.1470,4.2070,7.351
18.3850,5.5680,1.9460,4.2260,7.256
18.4140,5.3620,2.5720,4.0650,7.204
18.4150,5.2350,3.0370,4.2350,7.387
18.4150,5.1390,3.2730,4.2920,7.453
18.4250,5.1080,3.3200,4.1140,7.351
18.4340,5.1580,3.1320,3.9720,7.224
18.4490,5.1910,2.7720,3.8550,7.035
18.4570,5.2000,2.2810,3.6490,6.750
18.4730,5.2130,1.6480,3.4020,6.439
18.4740,5.1390,0.9320,3.0540,6.050
18.4850,4.8530,0.1700,2.7240,5.568
18.4950,4.5310,-0.6320,2.3950,5.164
18.5050,4.2470,-1.4140,2.1550,4.968
18.5150,3.8340,-2.0500,2.0500,4.807
18.5240,3.2870,-2.4360,2.0060,4.557
18.5350,2.7520,-2.6170,2.0920,4.336
18.5450,2.2510,-2.5750,2.2080,4.071
18.5550,1.7950,-2.4070,2.2740,3.767
18.5650,1.3780,-2.1210,2.5010,3.557
18.5950,0.9580,-1.7470,2.7140,3.367
18.5960,0.5360,-1.3700,2.8890,3.242
18.5960,0.1330,-1.0590,2.9380,3.126
18.6090,-0.2420,-0.8140,2.8750,2.998
18.6150,-0.5680,-0.6300,2.8540,2.977
18.6260,-0.8060,-0.5330,2.7520,2.917
18.6340,-0.9870,-0.5210,2.5020,2.740
18.6450,-1.0810,-0.5800,2.0810,2.416
18.6540,-1.1510,-0.6970,1.6250,2.110
18.6640,-1.1940,-0.8290,1.1400,1.847
18.6870,-1.2290,-0.9880,0.7460,1.744
18.6870,-1.2540,-1.1490,0.3730,1.741
18.6950,-1.3030,-1.2790,-0.0250,1.826
18.7040,-1.4190,-1.3760,-0.3710,2.011
18.7140,-1.5790,-1.4490,-0.6710,2.246
18.7260,-1.6860,-1.5300,-0.9380,2.462
18.7340,-1.7770,-1.5780,-1.2560,2.688
18.7440,-1.8850,-1.6220,-1.4790,2.893
18.7570,-2.0430,-1.7380,-1.6150,3.131
18.7650,-2.1860,-1.8720,-1.7360,3.361
18.7860,-2.3790,-1.9860,-1.8110,3.589
18.7870,-2.5890,-2.0410,-1.9230,3.817
18.7940,-2.7150,-2.1810,-2.0980,4.066
18.8080,-2.8450,-2.2800,-2.2830,4.302
18.8140,-3.0130,-2.3490,-2.5140,4.573
18.8250,-3.2360,-2.4180,-2.6900,4.853
18.8340,-3.4640,-2.4640,-2.8390,5.112
18.8450,-3.7060,-2.4790,-2.9360,5.339
18.8550,-3.9610,-2.4650,-2.9830,5.538
18.8650,-4.1790,-2.4150,-2.9750,5.670
18.8870,-4.3470,-2.2490,-2.9110,5.695
18.8890,-4.3990,-2.1450,-2.7760,5.627
18.8940,-4.1680,-2.1870,-2.6510,5.402
18.9040,-3.5640,-2.5010,-2.5730,5.057
18.9150,-2.7990,-2.8700,-2.5640,4.759
18.9250,-2.2370,-3.0630,-2.6350,4.618
18.9340,-1.9840,-3.0420,-2.8600,4.623
18.9450,-1.8410,-2.9510,-3.1820,4.714
18.9530,-1.5990,-3.0250,-3.5830,4.954
18.9640,-1.4840,-3.1150,-3.9090,5.214
18.9840,-1.5660,-2.9600,-4.0450,5.251
18.9850,-1.8090,-2.5610,-3.9220,5.021
18.9940,-2.2150,-1.9240,-3.5440,4.601
19.0040,-2.5180,-1.1680,-2.9780,4.071
19.0140,-2.5030,-0.4760,-2.2260,3.383
19.0240,-2.1150,0.0770,-1.5200,2.606
19.0340,-1.5050,0.5070,-0.9500,1.851
19.0440,-0.8540,0.8030,-0.6480,1.339
19.0540,-0.1490,0.7980,-0.5950,1.006
19.0640,0.5480,0.6150,-0.7130,1.089
19.0920,1.1090,0.4980,-0.8170,1.465
19.0930,1.5950,0.3680,-0.9040,1.870
19.0930,2.1720,0.0500,-1.0370,2.407
19.1050,2.6740,-0.3390,-1.1860,2.945
19.1140,2.9800,-0.6540,-1.2610,3.301
19.1240,3.2170,-0.9330,-1.2510,3.576
19.1340,3.3310,-1.1140,-1.1670,3.701
19.1450,3.2310,-1.1460,-1.0940,3.599
19.1560,3.0310,-1.0740,-1.0540,3.384
19.1670,2.8400,-0.8610,-0.9820,3.126
19.1740,2.6110,-0.4810,-0.8650,2.792
19.1840,2.4080,-0.0620,-0.8020,2.539
19.1940,2.2510,0.3220,-0.7130,2.383
19.2040,2.2340,0.6180,-0.5950,2.393
19.2140,2.2620,0.8890,-0.2990,2.449
19.2250,2.3370,1.1220,0.2170,2.601
19.2340,2.4880,1.2850,0.7160,2.890
19.2460,2.6220,1.4000,1.1880,3.201
19.2550,2.7220,1.4470,1.4980,3.427
19.2740,2.8400,1.4260,1.6360,3.574
19.2750,2.9780,1.4140,1.7140,3.716
19.2840,3.0140,1.3890,1.6810,3.720
19.2940,2.9320,1.3250,1.5690,3.580
19.3050,2.7860,1.2280,1.3700,3.339
19.3140,2.7180,1.1160,1.1480,3.155
19.3240,2.6770,1.0430,1.0430,3.056
19.3330,2.6860,1.0160,1.0870,3.071
19.3450,2.8390,0.9740,1.2030,3.234
19.3560,3.0260,0.9450,1.4160,3.472
19.3640,3.2280,0.9160,1.6450,3.737
19.3830,3.4350,0.8820,1.9130,4.029
19.3840,3.6540,0.8280,2.1740,4.332
19.3930,3.8380,0.7460,2.3830,4.579
19.4050,3.9950,0.7230,2.4960,4.766
19.4140,4.1670,0.7020,2.5840,4.953
19.4240,4.3140,0.6790,2.6820,5.125
19.4350,4.4420,0.6380,2.8440,5.313
19.4450,4.5930,0.5170,2.8850,5.449
19.4540,4.6600,0.4220,2.8820,5.495
19.4780,4.6820,0.3330,2.9120,5.524
19.4780,4.6570,0.2220,3.0180,5.554
19.4840,4.6110,0.0390,3.2420,5.637
19.4950,4.5700,-0.2040,3.4640,5.738
19.5050,4.5910,-0.5880,3.6360,5.886
19.5140,4.7410,-1.1070,3.8580,6.212
19.5240,4.8870,-1.5530,4.1000,6.565
19.5350,4.9760,-1.6750,4.3520,6.820
19.5440,5.1550,-1.6020,4.5200,7.041
19.5640,5.3130,-1.3140,4.6770,7.199
19.5650,5.2720,-0.7250,4.8010,7.167
19.5840,4.9210,0.1880,4.9080,6.953
19.5850,4.5510,1.2370,4.8770,6.784
19.5950,4.3840,2.1420,4.8140,6.854
19.6040,4.3620,2.8630,4.7180,7.034
19.6140,4.4870,3.3590,4.8130,7.388
19.6240,4.7420,3.5310,4.9460,7.708
19.6340,5.0520,3.4720,4.8120,7.793
19.6440,5.2820,3.3320,4.5080,7.702
19.6560,5.4340,3.0090,4.1320,7.460
19.6640,5.5380,2.4440,3.6960,7.092
19.6940,5.4240,1.7720,3.2200,6.552
19.6940,5.1320,1.0640,2.6370,5.867
19.6950,4.8450,0.2860,1.9970,5.248
19.7040,4.5870,-0.4680,1.5230,4.856
19.7140,4.2090,-1.1560,1.3510,4.569
19.7230,3.7230,-1.6110,1.4880,4.321
19.7330,3.2370,-1.8750,1.7850,4.145
19.7440,2.8420,-2.0080,2.0560,4.042
19.7560,2.4070,-2.0400,2.3510,3.935
19.7630,1.9380,-1.8910,2.7230,3.840
19.7860,1.5130,-1.5780,2.9290,3.655
19.7870,1.1230,-1.2830,2.8980,3.362
19.7930,0.6860,-0.9950,2.9250,3.165
19.8070,0.2920,-0.7460,3.0980,3.200
19.8170,-0.0430,-0.5630,3.2090,3.258
19.8240,-0.3350,-0.4690,3.1490,3.201
19.8330,-0.5780,-0.4290,2.9250,3.012
19.8440,-0.7210,-0.4560,2.5660,2.704
19.8540,-0.7390,-0.5790,2.0830,2.285
19.8640,-0.7500,-0.7430,1.5400,1.867
19.8830,-0.8420,-0.9570,0.9800,1.608
19.8830,-1.0070,-1.1170,0.5390,1.598
19.8950,-1.1170,-1.2550,0.1560,1.687
19.9060,-1.1980,-1.3870,-0.2680,1.852
19.9130,-1.3620,-1.4750,-0.6950,2.125
19.9230,-1.6040,-1.5220,-1.0390,2.443
19.9330,-1.7520,-1.5770,-1.2820,2.683
19.9430,-1.8740,-1.6350,-1.4370,2.872
19.9530,-2.0140,-1.6690,-1.6550,3.095
19.9640,-2.2250,-1.6110,-1.9130,3.347
19.9870,-2.3690,-1.6190,-2.1310,3.574
19.9880,-2.3960,-1.7020,-2.3980,3.793
19.9930,-2.4580,-1.8130,-2.6400,4.037
20.0040,-2.5700,-1.9050,-2.8130,4.260
20.0130,-2.7600,-2.0520,-2.9200,4.512
20.0250,-3.0000,-2.1600,-2.9890,4.754
20.0330,-3.1770,-2.3100,-3.0300,4.961
20.0440,-3.2450,-2.4830,-3.0400,5.093
20.0530,-3.3530,-2.5950,-3.0630,5.231
20.0640,-3.4490,-2.5790,-3.0980,5.305
20.0840,-3.4250,-2.4850,-3.1290,5.263
20.0840,-3.1200,-2.4880,-3.0950,5.050
20.0930,-2.5560,-2.6930,-2.9700,4.755
20.1050,-1.8840,-2.9130,-2.6630,4.373
20.1130,-1.3430,-3.0570,-2.3360,4.075
20.1240,-0.9960,-3.1600,-2.1360,3.942
20.1330,-0.7960,-3.1000,-2.0440,3.798
20.1440,-0.6670,-2.9480,-1.9770,3.612
20.1540,-0.5870,-2.9690,-1.9590,3.605
20.1630,-0.7440,-2.9890,-2.0610,3.706
20.1890,-1.1980,-2.8120,-2.2390,3.789
20.1890,-1.8240,-2.2590,-2.3020,3.705
20.1920,-2.3580,-1.4840,-2.2040,3.552
20.2040,-2.6470,-0.6440,-1.8680,3.303
20.2130,-2.6740,0.0820,-1.4090,3.024
20.2240,-2.3170,0.5380,-0.9650,2.567
20.2320,-1.7680,0.7880,-0.5720,2.018
20.2430,-1.3370,0.8510,-0.4540,1.649
20.2530,-0.9890,0.8840,-0.5010,1.418
20.2630,-0.6040,0.8020,-0.6250,1.183
20.2930,-0.2530,0.6500,-0.7110,0.996
20.2940,0.1080,0.4520,-0.8130,0.936
20.2940,0.4830,0.1320,-0.9870,1.107
20.3040,0.8380,-0.2660,-1.1910,1.480
20.3130,1.1840,-0.6450,-1.3570,1.913
20.3230,1.4810,-0.9170,-1.5410,2.326
20.3330,1.6100,-1.1170,-1.7020,2.595
20.3430,1.5980,-1.2200,-1.7080,2.638
20.3530,1.4460,-1.1550,-1.5420,2.409
20.3630,1.1460,-0.9640,-1.2620,1.958
20.3930,0.8390,-0.7310,-0.9750,1.479
20.3940,0.6750,-0.3510,-0.6600,1.007
20.3940,0.6220,0.0710,-0.3820,0.733
20.4030,0.6510,0.4000,-0.1060,0.771
20.4130,0.6440,0.6600,0.2290,0.950
20.4240,0.6730,0.8690,0.6020,1.253
20.4330,0.8090,1.0410,0.9880,1.648
20.4430,1.0010,1.1360,1.2990,1.995
20.4530,1.2460,1.2190,1.5670,2.344
20.4640,1.4480,1.2910,1.8670,2.692
20.4900,1.6380,1.2800,2.1470,2.988
20.4900,1.8510,1.1760,2.2820,3.165
20.4920,2.0070,1.0890,2.3520,3.278
20.5030,2.1460,1.0640,2.3690,3.369
20.5130,2.2900,0.9460,2.3330,3.403
20.5240,2.5570,0.7240,2.2640,3.491
20.5330,2.7930,0.4400,2.2010,3.583
20.5430,2.9450,0.2300,2.2570,3.718
20.5520,3.0150,0.1730,2.3680,3.838
20.5640,3.1290,0.2100,2.5260,4.027
20.5890,3.2820,0.3070,2.7610,4.300
20.5890,3.4110,0.4800,3.0520,4.602
20.5930,3.5230,0.6990,3.3510,4.912
20.6030,3.6480,0.9280,3.5990,5.208
20.6120,3.7670,1.1550,3.7510,5.440
20.6230,3.9090,1.4430,3.9390,5.734
20.6320,4.0160,1.6060,4.0780,5.945
20.6450,4.1280,1.6450,4.2400,6.142
20.6530,4.3290,1.6590,4.3580,6.363
20.6640,4.5870,1.5390,4.4720,6.588
20.6810,4.9450,1.3120,4.4940,6.810
20.6840,5.3210,1.0280,4.5330,7.065
20.6930,5.6960,0.7530,4.5530,7.331
20.7050,6.0820,0.4140,4.4980,7.576
20.7120,6.4480,0.0300,4.3720,7.791
20.7230,6.7720,-0.4060,4.3490,8.058
20.7330,7.0390,-0.9000,4.5250,8.416
20.7440,7.1440,-1.2610,4.8640,8.734
20.7530,7.0250,-1.2570,5.2530,8.861
20.7630,6.7840,-1.0290,5.5560,8.829
20.7860,6.4970,-0.6940,5.7060,8.675
20.7860,6.0890,-0.0740,5.7520,8.377
20.7930,5.6110,0.7950,5.6480,8.001
20.8030,5.1320,1.6550,5.4300,7.653
20.8130,4.7740,2.3640,5.1980,7.443
20.8240,4.5540,2.8760,4.9770,7.334
20.8320,4.5010,3.1490,4.8400,7.321
20.8420,4.5670,3.1610,4.7560,7.312
20.8530,4.8060,3.0160,4.6760,7.352
20.8630,5.2090,2.5650,4.5270,7.363
20.8810,5.6420,1.9560,4.2540,7.332
20.8820,5.8870,1.2240,3.7880,7.107
20.8930,5.8800,0.4130,3.2010,6.708
20.9030,5.6450,-0.4330,2.6370,6.246
20.9130,5.2280,-1.1730,2.3340,5.844
20.9220,4.7870,-1.8870,2.1990,5.596
20.9330,4.2540,-2.4670,2.1610,5.371
20.9440,3.5850,-2.8740,2.2520,5.117
20.9530,2.9100,-2.9790,2.3650,4.789
20.9620,2.2730,-2.8730,2.5240,4.449
20.9860,1.6200,-2.6040,2.5930,4.016
20.9860,1.0260,-2.2130,2.5530,3.531
20.9930,0.4920,-1.7620,2.4870,3.087
21.0030,0.0250,-1.3640,2.3810,2.744
21.0120,-0.3300,-1.0880,2.1680,2.448
21.0240,-0.6120,-0.9410,1.9100,2.215
21.0320,-0.8230,-0.8140,1.6130,1.985
21.0450,-0.9150,-0.7700,1.2360,1.720
21.0580,-0.9330,-0.7440,0.8080,1.441
21.0630,-0.9870,-0.7570,0.3870,1.303
21.0830,-1.0540,-0.8420,-0.0400,1.350
21.0850,-1.0750,-0.9730,-0.4910,1.531
21.0930,-1.2410,-1.1360,-1.0080,1.961
21.1030,-1.4840,-1.2000,-1.4700,2.409
21.1120,-1.7420,-1.2560,-1.8790,2.854
21.1230,-1.9620,-1.2860,-2.2940,3.281
21.1330,-2.1470,-1.3120,-2.5990,3.617
21.1440,-2.3770,-1.3670,-2.8120,3.928
21.1590,-2.5800,-1.3870,-2.9030,4.124
21.1630,-2.7270,-1.4240,-2.9600,4.269
21.1950,-2.9400,-1.4800,-3.0330,4.476
21.1950,-3.1420,-1.5220,-3.0880,4.661
21.1960,-3.2530,-1.6220,-3.1510,4.811
21.2030,-3.2900,-1.7470,-3.1380,4.871
21.2130,-3.2840,-1.8490,-3.0130,4.825
21.2250,-3.2860,-1.9570,-2.7940,4.736
21.2320,-3.3160,-2.2020,-2.6270,4.769
21.2440,-3.4020,-2.4440,-2.5290,4.893
21.2520,-3.5480,-2.6400,-2.4340,5.048
21.2620,-3.5870,-2.8100,-2.3370,5.121
21.2950,-3.5440,-2.8270,-2.2250,5.050
21.2950,-3.4930,-2.7090,-2.1500,4.916
21.2960,-3.4290,-2.4640,-2.0750,4.705
21.3030,-3.3660,-2.2120,-2.0380,4.514
21.3120,-3.2550,-2.1480,-2.0380,4.400
21.3220,-2.9880,-2.3900,-2.1600,4.394
21.3330,-2.5430,-2.9240,-2.2970,4.505
21.3420,-2.1770,-3.4590,-2.4450,4.763
21.3520,-1.9650,-3.6430,-2.6030,4.890
21.3620,-1.8100,-3.5960,-2.7450,4.873
21.3860,-1.5610,-3.6690,-2.9270,4.946
21.3860,-1.2100,-3.8180,-3.1240,5.079
21.3930,-1.0190,-3.7950,-3.2940,5.127
21.4020,-1.1350,-3.3980,-3.3320,4.893
21.4120,-1.4610,-2.7050,-3.1780,4.422
21.4220,-1.8700,-1.8710,-2.8020,3.853
21.4330,-2.2180,-1.0320,-2.2430,3.319
21.4510,-2.4060,-0.3370,-1.6490,2.936
21.4520,-2.2460,0.0520,-1.1420,2.520
21.4620,-1.7740,0.1880,-0.7430,1.932
21.4890,-1.2270,0.1870,-0.4890,1.334
21.4900,-0.6670,0.0980,-0.3290,0.750
21.4930,-0.0130,-0.0020,-0.3500,0.350
21.5030,0.7010,-0.2270,-0.4660,0.872
21.5120,1.5220,-0.6710,-0.6430,1.783
21.5220,2.3090,-1.1370,-0.9340,2.738
21.5350,2.8320,-1.4530,-1.2250,3.411
21.5420,3.0980,-1.6780,-1.3230,3.763
21.5580,3.1250,-1.8520,-1.2770,3.850
21.5620,2.8380,-1.9080,-1.0220,3.569
21.5910,2.4150,-1.8070,-0.6380,3.083
21.5910,1.9330,-1.5480,-0.2190,2.486
21.5920,1.4520,-1.1340,0.1480,1.848
21.6020,1.0300,-0.6720,0.5340,1.341
21.6120,0.7870,-0.2240,0.9280,1.237
21.6220,0.6510,0.2030,1.4010,1.558
21.6320,0.6020,0.6020,1.7820,1.975
21.6440,0.7640,0.8510,2.1070,2.397
21.6580,1.0400,1.0610,2.3670,2.795
21.6620,1.3270,1.3040,2.5120,3.126
21.6850,1.6520,1.4490,2.5070,3.334
21.6850,1.9100,1.5570,2.4230,3.456
21.6930,2.0970,1.6220,2.3430,3.538
21.7120,2.2500,1.5490,2.3410,3.598
21.7130,2.3690,1.4550,2.3770,3.658
21.7330,2.5020,1.3370,2.3820,3.704
21.7340,2.7000,1.1750,2.3330,3.757
21.7420,2.9420,1.0240,2.2730,3.856
21.7530,3.1670,0.8530,2.3200,4.017
21.7630,3.3760,0.6450,2.4660,4.230
21.7730,3.5860,0.4230,2.6700,4.491
21.7830,3.8000,0.2510,2.9840,4.838
21.7930,4.0310,0.1400,3.2980,5.210
21.8190,4.3380,0.0620,3.6300,5.657
21.8200,4.5670,0.1420,3.9710,6.054
21.8210,4.7520,0.2290,4.2590,6.385
21.8320,4.9700,0.2680,4.4610,6.684
21.8410,5.2110,0.3740,4.6990,7.027
21.8550,5.5010,0.5030,4.9750,7.434
21.8620,5.7550,0.6050,5.3480,7.880
21.8840,6.0670,0.7580,5.6550,8.328
21.8840,6.5270,0.8230,5.7700,8.751
21.8930,6.9920,0.8400,5.7890,9.116
21.9030,7.3440,0.8350,5.7600,9.371
21.9120,7.5750,0.7670,5.7440,9.537
21.9230,7.6610,0.5880,5.8120,9.634
21.9320,7.7230,0.2340,5.5800,9.531
21.9420,7.6330,-0.2180,5.3050,9.298
21.9580,7.4590,-0.5200,5.1330,9.069
21.9620,7.1830,-0.5450,5.0080,8.773
21.9850,6.9460,-0.4000,4.9530,8.540
21.9850,6.7870,-0.1520,4.9160,8.382
21.9940,6.5620,0.0340,5.0170,8.260
22.0020,6.3410,0.4280,5.3040,8.278
22.0120,6.1140,1.0080,5.5850,8.342
22.0220,5.9030,1.6220,5.8220,8.448
22.0340,5.6860,2.2230,5.9150,8.501
22.0420,5.4350,2.7100,5.8650,8.443
22.0550,5.3530,2.9180,5.7070,8.351
22.0620,5.2190,2.9610,5.2620,7.981
22.0770,5.2980,2.7290,4.9170,7.726
22.0820,5.0830,2.4000,4.8580,7.429
22.0920,4.8880,1.8410,4.7090,7.033
22.1020,4.7800,1.4980,4.3250,6.618
22.1130,4.7720,0.9800,3.9570,6.276
22.1230,4.2600,-0.0510,3.9740,5.826
22.1330,3.0980,-0.9270,3.6820,4.900
22.1420,2.3550,-1.6750,3.2980,4.385
22.1540,1.8760,-2.3340,2.8020,4.101
22.1620,1.5640,-2.6410,2.2260,3.792
22.1810,1.5590,-2.9980,1.8010,3.829
22.1820,1.6470,-3.2670,1.5420,3.970
22.1920,1.7870,-3.1190,1.4680,3.883
22.2010,2.0570,-2.9870,1.5250,3.934
22.2120,2.0530,-2.7230,1.5660,3.753
22.2220,1.7890,-2.3960,1.5800,3.382
22.2320,1.5310,-2.0650,1.4850,2.969
22.2420,1.2330,-1.8050,1.2990,2.543
22.2560,0.9030,-1.6250,1.0380,2.129
22.2610,0.5940,-1.4690,0.8980,1.821
22.2950,0.2490,-1.4290,0.7450,1.631
22.2950,-0.2610,-1.3930,0.5820,1.532
22.2960,-0.7950,-1.4730,0.4260,1.727
22.3010,-1.2510,-1.5480,0.2160,2.002
22.3130,-1.6480,-1.7150,-0.0540,2.379
22.3220,-2.0340,-1.8020,-0.4030,2.747
22.3360,-2.4590,-1.9050,-0.7870,3.209
22.3420,-2.8800,-2.0070,-1.0770,3.672
22.3520,-3.2690,-2.0560,-1.3030,4.076
22.3610,-3.5940,-2.0280,-1.4900,4.387
22.3720,-3.8670,-2.0240,-1.6270,4.658
22.3830,-4.1630,-2.0380,-1.7630,4.959
22.3920,-4.4290,-2.0740,-2.0080,5.287
22.4230,-4.7570,-2.0810,-2.2550,5.661
22.4230,-5.0800,-1.8820,-2.3530,5.906
22.4240,-5.1400,-1.8040,-2.3040,5.915
22.4320,-4.9240,-2.0110,-2.1630,5.742
22.4420,-4.6440,-2.2000,-2.1350,5.565
22.4530,-4.4190,-2.3540,-2.2800,5.502
22.4630,-4.2580,-2.4840,-2.5030,5.529
22.4750,-4.1100,-2.4990,-2.7230,5.527
22.4810,-3.9690,-2.4410,-2.8440,5.459
22.5060,-3.7640,-2.4270,-2.8660,5.317
22.5070,-3.5700,-2.3830,-2.8040,5.127
22.5130,-3.4090,-2.2380,-2.6820,4.881
22.5210,-3.2390,-2.2360,-2.6020,4.718
22.5330,-3.0650,-2.4070,-2.6770,4.728
22.5410,-2.7720,-2.8120,-2.7450,4.809
22.5520,-2.4310,-3.2710,-2.8290,4.961
22.5610,-2.1120,-3.6490,-2.8860,5.109
22.5730,-2.0510,-3.8450,-2.9770,5.278
22.5810,-2.0910,-3.6710,-3.0340,5.201
22.5950,-1.9860,-3.5250,-3.0970,5.095
22.6010,-1.8800,-3.3690,-3.1420,4.976
22.6130,-2.0070,-2.9640,-3.0410,4.697
22.6210,-2.2380,-2.3540,-2.7510,4.257
22.6340,-2.3480,-1.7840,-2.4190,3.814
22.6410,-2.3180,-1.2980,-2.0610,3.362
22.6520,-2.1410,-0.9450,-1.6580,2.868
22.6620,-1.7640,-0.8230,-1.2930,2.337
22.6720,-1.3120,-0.8780,-1.0220,1.881
22.6810,-0.9540,-0.9430,-0.9410,1.639
22.6910,-0.6940,-0.9080,-0.9100,1.461
22.7160,-0.4170,-0.9460,-0.9230,1.386
22.7160,-0.1680,-1.0690,-0.9380,1.432
22.7210,0.0310,-1.2530,-0.9070,1.547
22.7310,0.1470,-1.4110,-0.7930,1.625
22.7430,0.2020,-1.4830,-0.5800,1.605
22.7680,0.2550,-1.4460,-0.3380,1.507
22.7690,0.3800,-1.3140,-0.0850,1.370
22.7720,0.5610,-1.1250,0.0980,1.261
22.7810,0.7700,-0.8920,0.2330,1.201
22.7930,0.9160,-0.5950,0.3350,1.142
22.8110,1.0670,-0.2780,0.4480,1.190
22.8110,1.2230,0.0550,0.5850,1.357
22.8210,1.4520,0.3150,0.6930,1.639
22.8320,1.7410,0.5110,0.7900,1.979
22.8430,1.9930,0.6150,0.8550,2.254
22.8520,2.3320,0.6350,0.9360,2.592
22.8620,2.6790,0.6700,1.1160,2.978
22.8720,2.9620,0.6560,1.3280,3.312
22.8820,3.2280,0.6570,1.5940,3.660
22.8910,3.3780,0.7140,1.8710,3.927
22.9090,3.4510,0.7500,2.2610,4.193
22.9110,3.5470,0.7350,2.5890,4.452
22.9210,3.6330,0.6670,2.8860,4.687
22.9330,3.7010,0.5160,3.0590,4.829
22.9410,3.7670,0.3420,3.2450,4.984
22.9520,3.8740,0.2310,3.4150,5.169
22.9610,4.0160,0.2930,3.5710,5.382
22.9720,4.1960,0.3520,3.6260,5.557
22.9880,4.4340,0.3530,3.6080,5.727
22.9910,4.7160,0.3500,3.5620,5.920
23.0120,4.9850,0.4740,3.6780,6.213
23.0120,5.3200,0.6860,3.9310,6.650
23.0210,5.6440,0.8740,4.2450,7.116
23.0320,5.9590,1.0380,4.5310,7.558
23.0430,6.2980,1.1780,4.7710,7.988
23.0510,6.5910,1.3050,5.0200,8.387
23.0620,6.7840,1.3700,5.2630,8.695
23.0740,6.8430,1.3870,5.4000,8.827
23.0810,6.8590,1.3230,5.3250,8.784
23.1040,6.8410,1.2340,5.1590,8.657
23.1090,6.7660,1.1490,4.9700,8.473
23.1110,6.6830,0.9940,4.7770,8.275
23.1220,6.6990,0.6790,4.6930,8.207
23.1310,6.7560,0.2300,4.6860,8.225
23.1410,6.8340,-0.3180,4.8090,8.362
23.1500,6.8740,-0.7540,4.9990,8.533
23.1610,6.6900,-0.9460,5.2780,8.574
23.1720,6.4740,-0.9700,5.5900,8.608
23.1970,6.2820,-1.0100,5.7940,8.605
23.1970,5.8830,-0.8840,5.9850,8.439
23.2000,5.2850,-0.4800,6.2270,8.182
23.2110,4.6810,0.1440,6.4480,7.969
23.2210,4.1660,0.8550,6.6110,7.861
23.2310,3.8420,1.4880,6.6450,7.819
23.2410,3.6830,1.9070,6.5620,7.763
23.2510,3.5560,2.1850,6.3880,7.631
23.2610,3.5190,2.2150,6.0360,7.330
23.2710,3.4810,2.0920,5.6480,6.957
23.2810,3.4990,1.8540,5.2510,6.577
23.2950,3.5610,1.5240,4.9130,6.256
23.3010,3.5530,1.1290,4.5650,5.894
23.3110,3.4370,0.6850,4.1720,5.449
23.3210,3.2360,0.1860,3.6730,4.899
23.3330,3.0420,-0.3730,3.1600,4.402
23.3420,2.6880,-0.9010,2.7350,3.939
23.3500,2.2050,-1.4360,2.3470,3.526
23.3610,1.7850,-1.8930,1.9890,3.275
23.3710,1.4130,-2.0490,1.6450,2.983
23.3810,1.2530,-1.9330,1.4290,2.711
23.3960,1.3530,-1.6540,1.3580,2.532
23.4000,1.4380,-1.2730,1.4470,2.405
23.4110,1.5590,-0.9110,1.6240,2.429
23.4200,1.6520,-0.6160,1.8360,2.545
23.4330,1.6520,-0.3480,2.0650,2.667
23.4400,1.5630,-0.1070,2.1860,2.689
23.4510,1.5420,0.0690,2.2330,2.715
23.4600,1.4030,0.2500,2.1890,2.612
23.4710,1.2890,0.2810,1.9970,2.393
23.4810,1.1980,0.0800,1.6270,2.022
23.5000,0.9270,-0.1400,1.1760,1.504
23.5010,0.6600,-0.3920,0.6960,1.036
23.5110,0.4070,-0.6310,0.2580,0.794
23.5200,0.1200,-0.7630,-0.0270,0.773
23.5310,-0.1810,-0.9240,-0.0950,0.946
23.5420,-0.5250,-1.0990,-0.0410,1.219
23.5500,-0.9360,-1.2630,0.0240,1.572
23.5610,-1.4430,-1.3740,-0.0050,1.993
23.5710,-1.9980,-1.4380,-0.0680,2.463
23.5810,-2.4040,-1.4960,-0.1750,2.837
23.5920,-2.7990,-1.5880,-0.4340,3.247
23.6000,-3.1740,-1.7080,-0.8310,3.699
23.6100,-3.5380,-1.8240,-1.2510,4.172
23.6210,-3.8340,-1.9070,-1.6980,4.606
23.6310,-4.0380,-2.0880,-2.1250,5.018
23.6420,-4.1680,-2.2760,-2.5220,5.377
23.6520,-4.1910,-2.4200,-2.7810,5.582
23.6610,-4.0690,-2.6200,-2.9570,5.671
23.6700,-3.8920,-2.8370,-3.0860,5.720
23.6810,-3.5800,-3.0220,-3.1600,5.651
23.6910,-3.3920,-3.0490,-3.1340,5.534
23.7200,-3.3570,-2.8240,-3.0010,5.315
23.7200,-3.2880,-2.6220,-2.8270,5.067
23.7210,-3.1590,-2.7110,-2.7280,4.977
23.7310,-2.9330,-3.0080,-2.7090,4.999
23.7400,-2.6670,-3.3880,-2.6900,5.082
23.7510,-2.4380,-3.5600,-2.6670,5.073
23.7610,-2.4790,-3.4180,-2.6750,4.998
23.7710,-2.6750,-3.1860,-2.7880,5.008
23.7820,-2.7800,-3.1670,-2.9820,5.162
23.7950,-2.7720,-3.2700,-3.1750,5.335
23.8000,-2.8870,-3.1950,-3.2930,5.421
23.8100,-3.0700,-2.7760,-3.2060,5.235
23.8200,-3.2500,-2.0800,-2.8320,4.786
23.8300,-3.3270,-1.3520,-2.2390,4.232
23.8410,-3.2060,-0.8350,-1.4830,3.630
23.8510,-2.8910,-0.5240,-0.7660,3.036
23.8600,-2.4070,-0.4360,-0.2370,2.458
23.8710,-1.8470,-0.4760,-0.0290,1.908
23.8800,-1.2530,-0.5720,-0.0460,1.378
23.8900,-0.6630,-0.7260,-0.1830,1.000
23.9010,-0.0980,-0.9430,-0.4070,1.032
23.9100,0.4170,-1.2240,-0.6830,1.462
23.9200,0.8310,-1.5130,-0.9040,1.949
23.9310,1.0390,-1.7520,-1.0140,2.275
23.9410,1.0290,-1.8670,-0.9910,2.351
23.9510,0.8650,-1.8410,-0.8570,2.207
23.9610,0.6900,-1.6740,-0.6490,1.923
23.9710,0.6280,-1.4350,-0.4140,1.620
23.9800,0.6620,-1.1140,-0.1660,1.306
23.9980,0.7690,-0.6300,0.0730,0.997
24.0010,0.8290,-0.0980,0.2630,0.875
24.0110,0.8610,0.3950,0.3670,1.016
24.0210,0.8620,0.7930,0.3840,1.233
24.0310,1.0590,1.0180,0.3850,1.519
24.0430,1.3440,1.1840,0.4160,1.839
24.0510,1.7290,1.3370,0.4970,2.241
24.0600,2.1790,1.4400,0.5940,2.679
24.0710,2.5620,1.5500,0.6840,3.072
24.0870,2.8390,1.6070,0.7270,3.342
24.0900,3.0670,1.5910,0.7930,3.545
24.1100,3.1960,1.5370,0.8330,3.643
24.1100,3.3080,1.4360,0.8310,3.701
24.1200,3.4730,1.3060,0.8620,3.809
24.1300,3.6780,1.1370,0.9520,3.966
24.1400,3.8510,1.0150,1.1200,4.137
24.1500,4.0020,1.0380,1.2800,4.328
24.1600,4.1720,1.0860,1.4880,4.561
24.1710,4.3670,1.0780,1.6680,4.797
24.1980,4.5310,1.1010,1.8830,5.029
24.1980,4.7080,1.1360,2.1110,5.283
24.2000,4.9200,1.2120,2.3940,5.604
24.2100,5.1180,1.3460,2.5880,5.891
24.2210,5.2700,1.5620,2.7840,6.161
24.2310,5.5320,1.6840,2.9850,6.508
24.2400,5.8870,1.7140,3.1790,6.907
24.2520,6.2320,1.6770,3.3200,7.258
24.2600,6.5600,1.6040,3.3690,7.547
24.2700,6.8720,1.5060,3.3010,7.771
24.3050,7.1710,1.3640,3.1150,7.936
24.3050,7.3900,1.1760,2.9140,8.030
24.3060,7.5110,0.9630,2.7560,8.058
24.3110,7.5730,0.5550,2.5960,8.025
24.3200,7.6450,0.0580,2.5270,8.052
24.3320,7.7520,-0.5160,2.6220,8.200
24.3400,7.7590,-0.9460,2.9470,8.354
24.3500,7.6090,-1.0120,3.3200,8.363
24.3610,7.4660,-0.9250,3.6720,8.371
24.3700,7.4490,-0.6790,3.9730,8.470
24.3870,7.3700,-0.3060,4.2350,8.506
24.3910,6.9970,0.2820,4.5060,8.327
24.4170,6.4640,1.0720,4.7130,8.071
24.4170,5.9220,1.9550,4.8210,7.883
24.4190,5.4850,2.6970,4.8850,7.824
24.4300,5.1970,3.2740,4.8350,7.817
24.4400,4.9760,3.6380,4.6530,7.723
24.4500,4.9020,3.6590,4.3280,7.493
24.4600,4.8720,3.3880,3.9090,7.106
24.4700,4.8640,2.8680,3.5260,6.657
24.4800,4.8950,2.1910,3.2130,6.252
24.4910,4.8930,1.3790,2.8970,5.851
24.5100,4.8730,0.5630,2.4880,5.500
24.5120,4.8410,-0.2230,2.0360,5.256
24.5200,4.8160,-1.0010,1.6770,5.197
24.5310,4.6310,-1.7530,1.4510,5.160
24.5400,4.3260,-2.3330,1.4470,5.124
24.5500,4.0050,-2.6360,1.6270,5.063
24.5600,3.6060,-2.6090,1.9440,4.857
24.5730,3.3250,-2.4310,2.2110,4.675
24.5800,3.0800,-2.0910,2.4440,4.453
24.5890,2.8910,-1.6540,2.7310,4.307
24.6150,2.5590,-1.1960,2.9920,4.115
24.6150,2.0490,-0.8770,3.1070,3.824
24.6200,1.4220,-0.7060,2.9900,3.385
24.6310,0.7670,-0.5930,2.7650,2.930
24.6390,0.2790,-0.5310,2.5060,2.577
24.6500,-0.1770,-0.5320,2.1090,2.182
24.6600,-0.5540,-0.5790,1.5950,1.785
24.6700,-0.8150,-0.6840,1.0600,1.502
24.6850,-1.0820,-0.8060,0.6180,1.484
24.6900,-1.3540,-0.9450,0.3020,1.679
24.7140,-1.5700,-1.2050,-0.0400,1.980
24.7150,-1.8550,-1.3690,-0.4340,2.346
24.7200,-2.1880,-1.4420,-0.7510,2.726
24.7310,-2.4580,-1.5360,-1.0330,3.077
24.7400,-2.7700,-1.5630,-1.2830,3.430
24.7500,-3.1070,-1.5510,-1.5140,3.788
24.7600,-3.4080,-1.4680,-1.7090,4.085
24.7690,-3.6780,-1.3460,-1.7980,4.310
24.7810,-3.8580,-1.3010,-1.8320,4.465
24.7890,-3.9810,-1.3790,-1.8930,4.619
24.8110,-4.1330,-1.5250,-2.0300,4.851
24.8110,-4.2840,-1.7120,-2.2640,5.139
24.8210,-4.4930,-1.8610,-2.5900,5.510
24.8310,-4.6310,-2.0440,-2.9760,5.872
24.8400,-4.5560,-2.3460,-3.3600,6.128
24.8500,-4.4290,-2.4940,-3.6400,6.252
24.8630,-4.3400,-2.4850,-3.7810,6.270
24.8690,-4.2560,-2.4750,-3.7910,6.214
24.8810,-4.1250,-2.4900,-3.6650,6.054
24.8910,-3.9760,-2.5200,-3.3180,5.759
24.9000,-3.8460,-2.5100,-2.8200,5.389
24.9090,-3.5940,-2.5770,-2.3350,5.001
24.9220,-3.2330,-2.8330,-1.9810,4.733
24.9290,-2.8380,-3.2440,-1.8740,4.700
24.9390,-2.3870,-3.7080,-1.9640,4.827
24.9510,-2.0690,-3.9780,-2.1220,4.961
24.9620,-2.0950,-3.7850,-2.1990,4.853
24.9690,-2.0100,-3.6560,-2.3090,4.768
24.9860,-1.6360,-3.7860,-2.4600,4.802
24.9900,-1.4840,-3.8130,-2.5660,4.830
25.0080,-1.5690,-3.4930,-2.5820,4.618
25.0090,-1.7060,-2.8550,-2.4860,4.152
25.0190,-1.8330,-1.9600,-2.3140,3.543
25.0300,-1.7800,-1.0200,-2.0030,2.867
25.0390,-1.5570,-0.1920,-1.5420,2.200
25.0500,-1.2050,0.3100,-1.1070,1.665
25.0600,-0.6220,0.4140,-0.8000,1.095
25.0710,0.1810,0.2500,-0.6080,0.682
25.0850,1.0740,0.0200,-0.4900,1.181
25.0890,1.9770,-0.1970,-0.5060,2.050
25.1060,2.7430,-0.5140,-0.6450,2.864
25.1100,3.2280,-0.8130,-0.8720,3.441
25.1200,3.4740,-1.1000,-1.0800,3.801
25.1300,3.5860,-1.4440,-1.2150,4.052
25.1390,3.5300,-1.7170,-1.1940,4.103
25.1520,3.3350,-1.7810,-1.0610,3.927
25.1590,3.0940,-1.6210,-0.7810,3.579
25.1690,2.8950,-1.2750,-0.4220,3.191
25.1820,2.6920,-0.7780,-0.0100,2.802
25.1890,2.5150,-0.1920,0.5090,2.573
25.2110,2.3050,0.3570,0.9570,2.521
25.2140,2.1980,0.9090,1.2980,2.710
25.2200,2.2880,1.4090,1.5410,3.098
25.2290,2.5250,1.8120,1.6730,3.530
25.2400,2.7950,2.1910,1.6860,3.931
25.2500,3.0470,2.4830,1.5470,4.224
25.2600,3.2410,2.6410,1.3000,4.378
25.2690,3.3860,2.7010,1.0110,4.448
25.2810,3.5410,2.6690,0.7790,4.502
25.2900,3.7030,2.5600,0.5900,4.540
25.3210,3.8120,2.3770,0.4240,4.512
25.3210,3.8830,2.1210,0.2410,4.431
25.3210,3.9420,1.8570,0.1130,4.359
25.3290,4.0140,1.6010,0.1160,4.323
25.3390,4.1080,1.3430,0.3140,4.333
25.3490,4.1810,1.0240,0.7160,4.364
25.3610,4.1500,0.7530,1.2300,4.393
25.3700,4.0370,0.5480,1.7660,4.440
25.3830,3.9220,0.4710,2.2530,4.548
25.3890,3.8950,0.4580,2.7350,4.781
25.4080,3.9790,0.4490,3.2490,5.157
25.4100,4.0670,0.5450,3.7130,5.534
25.4190,4.1640,0.6660,4.0690,5.860
25.4290,4.2820,0.7090,4.3060,6.114
25.4400,4.3240,0.7990,4.4370,6.247
25.4490,4.3380,0.9130,4.5500,6.353
25.4590,4.4420,0.9690,4.5710,6.447
25.4690,4.6890,0.8920,4.5220,6.575
25.4840,4.9800,0.8350,4.4830,6.752
25.4890,5.1610,0.8880,4.4560,6.876
25.5170,5.4410,0.8860,4.3730,7.037
25.5180,5.8070,0.6820,4.2070,7.203
25.5190,6.1200,0.2660,4.1000,7.371
25.5290,6.3260,-0.1390,4.1830,7.585
25.5390,6.4280,-0.3490,4.5000,7.854
25.5500,6.5490,-0.4130,4.8260,8.146
25.5610,6.7770,-0.4760,5.1160,8.505
25.5690,6.9500,-0.5060,5.3700,8.797
25.5820,6.9350,-0.3120,5.7160,8.992
25.5890,6.8060,0.0460,6.1020,9.141
25.6170,6.5380,0.6190,6.3270,9.119
25.6170,6.1740,1.3640,6.5020,9.069
25.6180,5.7870,2.0680,6.6170,9.031
25.6290,5.4450,2.5850,6.7390,9.041
25.6390,5.2120,2.9250,6.8370,9.081
25.6500,4.9460,2.9400,6.7420,8.863
25.6610,4.5590,2.7460,6.5010,8.402
25.6720,4.1800,2.3700,6.1100,7.773
25.6820,3.8550,1.8340,5.4680,6.937
25.6890,3.5460,1.2400,4.7130,6.027
25.7060,3.3370,0.4970,3.9870,5.223
25.7080,3.2510,-0.3300,3.3500,4.680
25.7190,3.1230,-1.1360,2.8340,4.368
25.7320,2.9110,-1.9100,2.3530,4.202
25.7380,2.6730,-2.5230,1.9090,4.142
25.7500,2.4320,-2.9960,1.5780,4.169
25.7600,2.1660,-3.2320,1.4680,4.158
25.7700,1.9010,-3.2440,1.4210,4.020
25.7840,1.6190,-3.1300,1.5120,3.835
25.7890,1.2740,-2.9120,1.6380,3.576
25.8100,0.9160,-2.6110,1.7890,3.295
25.8120,0.5370,-2.3190,1.9110,3.053
25.8190,0.1260,-2.0170,1.9630,2.817
25.8290,-0.2910,-1.7530,1.9990,2.675
25.8400,-0.6620,-1.6040,1.9900,2.640
25.8490,-0.9790,-1.5260,1.8500,2.590
25.8620,-1.2710,-1.4190,1.6080,2.493
25.8690,-1.5060,-1.3580,1.3090,2.414
25.8800,-1.6870,-1.3570,0.9670,2.371
25.8890,-1.8620,-1.3850,0.5810,2.392
25.9000,-2.0530,-1.4020,0.2450,2.498
25.9090,-2.2800,-1.4020,-0.0700,2.677
25.9280,-2.4890,-1.4390,-0.3900,2.901
25.9290,-2.7040,-1.4350,-0.6550,3.130
25.9390,-2.8890,-1.3770,-0.8370,3.308
25.9490,-3.0600,-1.3020,-1.0170,3.478
25.9590,-3.1850,-1.2230,-1.1970,3.616
25.9690,-3.2220,-1.2590,-1.3620,3.718
25.9820,-3.2140,-1.3110,-1.5120,3.786
25.9880,-3.2330,-1.3620,-1.6820,3.891
26.0170,-3.2810,-1.4120,-1.8710,4.032
26.0170,-3.3820,-1.5620,-2.1040,4.278
26.0190,-3.4760,-1.7560,-2.3510,4.549
26.0280,-3.5590,-1.9850,-2.5900,4.829
26.0380,-3.5990,-2.2360,-2.7370,5.044
26.0500,-3.5950,-2.4780,-2.8860,5.234
26.0620,-3.6510,-2.6960,-3.0060,5.444
26.0700,-3.6640,-2.8400,-3.0630,5.556
26.0790,-3.6710,-2.8840,-3.0770,5.591
26.0890,-3.6650,-2.7920,-3.0080,5.502
26.1010,-3.6410,-2.7040,-2.8320,5.347
26.1090,-3.5760,-2.6590,-2.6480,5.184
26.1180,-3.4410,-2.7980,-2.5290,5.105
26.1350,-3.1400,-3.2030,-2.4370,5.105
26.1390,-2.8720,-3.5550,-2.4800,5.200
26.1480,-2.7970,-3.6390,-2.6200,5.285
26.1600,-2.8110,-3.4700,-2.8620,5.304
26.1690,-2.7730,-3.2580,-3.1530,5.315
26.1780,-2.5740,-3.1380,-3.4560,5.331
26.1890,-2.3580,-3.0030,-3.7170,5.329
26.2100,-2.3840,-2.5880,-3.8420,5.210
26.2110,-2.4100,-1.9220,-3.7440,4.850
26.2180,-2.2550,-1.2210,-3.4110,4.267
26.2280,-2.0160,-0.7000,-2.8920,3.594
26.2380,-1.7140,-0.4070,-2.3320,2.923
26.2490,-1.1310,-0.3790,-1.8780,2.225
26.2590,-0.4290,-0.4340,-1.5290,1.646
26.2680,0.3100,-0.4900,-1.3480,1.467
26.2830,0.9460,-0.5520,-1.3130,1.710
26.2890,1.4390,-0.6430,-1.3300,2.062
26.3200,1.7990,-0.8560,-1.3580,2.411
26.3200,2.1000,-1.1780,-1.3660,2.768
26.3210,2.2810,-1.5070,-1.3340,3.042
26.3280,2.2820,-1.7420,-1.2040,3.113
26.3380,2.1510,-1.8660,-0.9940,3.016
26.3480,1.9620,-1.8510,-0.6760,2.781
26.3580,1.7850,-1.7060,-0.3340,2.492
26.3700,1.6220,-1.4270,0.0430,2.161
26.3790,1.5360,-1.0630,0.3800,1.906
26.3880,1.4970,-0.5850,0.7630,1.779
26.4040,1.4790,-0.0970,0.9930,1.784
26.4080,1.6340,0.2760,1.1400,2.011
26.4190,1.8770,0.6040,1.2760,2.349
26.4290,2.0830,0.8590,1.4500,2.679
26.4380,2.3340,1.0800,1.6370,3.049
26.4480,2.5840,1.2560,1.7970,3.389
26.4580,2.8120,1.3840,1.8390,3.634
26.4690,3.0990,1.3700,1.8590,3.865
26.4800,3.3300,1.2980,1.9290,4.061
26.4890,3.4960,1.2430,2.0780,4.253
26.5080,3.6180,1.1470,2.2110,4.392
26.5090,3.7210,0.9880,2.3690,4.520
26.5180,3.8290,0.7780,2.5240,4.652
26.5290,3.9160,0.6310,2.7250,4.812
26.5380,4.0230,0.5600,2.9490,5.019
26.5480,4.2110,0.5380,3.1960,5.314
26.5580,4.3400,0.6130,3.4060,5.551
26.5690,4.4400,0.7740,3.6010,5.769
26.5810,4.5630,0.8950,3.7940,6.001
26.5890,4.7030,0.9570,3.9830,6.237
26.6080,4.8570,1.0390,4.1790,6.491
26.6080,5.1060,1.0840,4.4120,6.835
26.6180,5.4640,1.0750,4.6890,7.280
26.6280,5.8210,1.0690,5.0290,7.766
26.6380,6.1400,1.0870,5.3710,8.230
26.6490,6.3420,1.0660,5.5800,8.514
26.6580,6.4990,0.9740,5.6450,8.663
26.6680,6.5480,0.9530,5.5780,8.654
26.6800,6.5620,0.8900,5.4310,8.564
26.6890,6.5880,0.6990,5.2170,8.433
26.7110,6.6100,0.4340,4.9520,8.271
26.7110,6.7290,-0.0390,4.6400,8.174
26.7190,6.9300,-0.6780,4.3910,8.232
26.7280,7.0340,-1.2060,4.3320,8.349
26.7380,7.0470,-1.3300,4.4910,8.462
26.7510,7.0990,-1.2580,4.8180,8.671
26.7580,7.1550,-0.9680,5.2080,8.902
26.7690,6.9590,-0.4400,5.4270,8.836
26.7810,6.5870,0.4110,5.5120,8.599
26.7880,6.2830,1.3940,5.5620,8.506
26.8070,6.0690,2.2980,5.6540,8.607
26.8100,5.9960,2.9450,5.7380,8.806
26.8180,6.0310,3.2010,5.7360,8.917
26.8360,6.0720,3.0500,5.6520,8.838
26.8590,6.1190,2.6160,5.4180,8.581
26.8600,6.1730,2.0920,5.1670,8.317
26.8610,6.1450,1.5630,4.7930,7.948
26.8690,6.0040,0.9930,4.2960,7.449
26.8790,5.7490,0.2910,3.6910,6.838
26.8890,5.4840,-0.4350,3.1390,6.334
26.8980,5.0520,-1.1550,2.6860,5.837
26.9080,4.4690,-1.7820,2.3570,5.358
26.9230,3.8340,-2.3380,2.1500,4.979
26.9330,3.2220,-2.7430,2.0410,4.698
26.9370,2.6500,-2.8850,2.0250,4.410
26.9490,2.0960,-2.6830,2.1590,4.031
26.9590,1.6080,-2.3550,2.3810,3.715
26.9680,1.2040,-2.0690,2.5900,3.527
26.9780,0.7460,-1.7740,2.7220,3.334
26.9880,0.2500,-1.3730,2.7530,3.087
26.9980,-0.1620,-1.0220,2.6780,2.871
27.0090,-0.4590,-0.8310,2.5530,2.724
27.0180,-0.6900,-0.7450,2.3720,2.580
27.0440,-0.8310,-0.7250,2.1690,2.433
27.0440,-0.8670,-0.7570,1.8320,2.164
27.0490,-0.8610,-0.8270,1.4500,1.878
27.0590,-0.8600,-0.9400,1.0260,1.636
27.0680,-0.8760,-1.0950,0.6020,1.526
27.0780,-0.9260,-1.2140,0.2070,1.541
27.0890,-0.9980,-1.2650,-0.2340,1.628
27.0990,-1.0560,-1.4140,-0.5880,1.860
27.1260,-1.0640,-1.5370,-0.8090,2.037
27.1260,-1.2120,-1.5980,-0.9720,2.229
27.1270,-1.3090,-1.6270,-1.1550,2.386
27.1380,-1.4710,-1.7000,-1.3700,2.633
27.1480,-1.7420,-1.6870,-1.5400,2.873
27.1580,-2.1310,-1.6900,-1.6110,3.161
27.1680,-2.5180,-1.7530,-1.7940,3.554
27.1800,-2.9080,-1.8860,-2.0420,4.023
27.1880,-3.2660,-2.0650,-2.2560,4.474
27.2080,-3.5820,-2.3280,-2.4190,4.909
27.2090,-3.9050,-2.6330,-2.5890,5.374
27.2180,-4.1740,-2.9520,-2.7910,5.825
27.2290,-4.4940,-3.1520,-3.0800,6.294
27.2380,-4.7220,-3.2400,-3.3360,6.628
27.2480,-4.7750,-3.2790,-3.6080,6.824
27.2570,-4.7470,-3.1990,-3.7450,6.841
27.2670,-4.6380,-3.2010,-3.7360,6.761
27.2780,-4.4180,-3.3730,-3.6510,6.650
27.2880,-4.2030,-3.6910,-3.5060,6.602
27.3090,-3.9220,-4.1980,-3.4390,6.696
27.3090,-3.6020,-4.6760,-3.4340,6.829
27.3180,-3.4760,-4.8210,-3.4670,6.881
27.3290,-3.4530,-4.7060,-3.6290,6.873
27.3380,-3.2760,-4.6400,-3.8520,6.863
27.3480,-3.1260,-4.5590,-4.0780,6.869
27.3580,-3.1190,-4.1250,-4.2660,6.704
27.3680,-3.3030,-3.2020,-4.2880,6.289
27.3780,-3.5420,-2.1770,-4.1500,5.874
27.3880,-3.4920,-1.2740,-3.7750,5.298
27.4100,-2.9920,-0.5780,-3.1270,4.366
27.4100,-2.2150,-0.2870,-2.3620,3.251
27.4190,-1.3610,-0.2040,-1.6300,2.133
27.4280,-0.4190,-0.3050,-1.1380,1.250
27.4380,0.4740,-0.3820,-0.8660,1.059
27.4480,1.3330,-0.4260,-0.7930,1.608
27.4580,2.0700,-0.5680,-0.9080,2.331
27.4680,2.6580,-0.8320,-1.1670,3.020
27.4780,2.9460,-1.1280,-1.4810,3.485
27.4870,2.9230,-1.3740,-1.7960,3.696
27.5060,2.6910,-1.6170,-2.0220,3.734
27.5090,2.4460,-1.8370,-2.0280,3.670
27.5180,2.2090,-1.9410,-1.7720,3.433
27.5280,2.0170,-1.8230,-1.2930,3.011
27.5370,1.8980,-1.5260,-0.7690,2.554
27.5480,1.8870,-1.0820,-0.2470,2.189
27.5580,1.8520,-0.5900,0.2280,1.957
27.5680,1.8290,-0.1280,0.6380,1.941
27.5780,1.9660,0.2860,0.9980,2.223
27.5890,2.2480,0.6130,1.3050,2.671
27.6100,2.5650,0.8690,1.5390,3.115
27.6100,2.8760,1.0830,1.7190,3.521
27.6180,3.1930,1.2270,1.7940,3.863
27.6280,3.4940,1.4340,1.8110,4.189
27.6370,3.6590,1.6050,1.7890,4.378
27.6490,3.7230,1.6260,1.7400,4.420
27.6700,3.7980,1.6230,1.6620,4.452
27.6700,3.9760,1.5880,1.5480,4.553
27.6870,4.1160,1.4690,1.4960,4.619
27.6880,4.1320,1.3010,1.5410,4.598
27.7030,4.1860,1.1490,1.7540,4.682
27.7080,4.2780,0.9920,2.0990,4.867
27.7580,4.5160,0.8230,2.4670,5.211
27.7580,4.7560,0.7240,2.9270,5.631
27.7590,4.9000,0.8060,3.3620,5.997
27.7590,5.0210,0.8730,3.7770,6.343
27.7590,4.9730,0.9030,4.1140,6.517
27.7690,5.0440,0.8980,4.3850,6.744
27.7780,5.2110,0.8940,4.6720,7.056
27.7880,5.4560,0.9010,4.9650,7.432
27.7970,5.8520,0.8690,5.2740,7.926
27.8080,6.3170,0.7970,5.6490,8.512
27.8260,6.7680,0.7370,6.0990,9.140
27.8270,7.1400,0.6990,6.5550,9.718
27.8380,7.4650,0.7270,6.9400,10.219
27.8480,7.6850,0.7040,7.1740,10.537
27.8580,7.8400,0.5050,7.0760,10.573
27.8670,7.9730,0.1180,6.6900,10.409
27.8780,8.1260,-0.3800,6.2310,10.247
27.8870,8.2210,-0.7630,5.8450,10.116
27.9070,8.2060,-0.9180,5.6360,9.997
27.9080,8.2260,-0.9110,5.5920,9.988
27.9180,8.2080,-0.8090,5.5970,9.968
27.9280,8.0650,-0.5020,5.7090,9.894
27.9370,7.6460,0.0770,5.9560,9.692
27.9480,7.1490,0.7780,6.0450,9.394
27.9570,6.6180,1.3960,6.0280,9.060
27.9680,6.0630,1.9160,5.9290,8.694
27.9820,5.5830,2.2570,5.7160,8.303
27.9870,5.1540,2.3980,5.3500,7.806
28.0100,4.8240,2.2940,4.8830,7.237
28.0100,4.4800,2.0420,4.4320,6.624
28.0180,4.1700,1.6860,4.0470,6.051
28.0280,3.9450,1.2590,3.7190,5.566
28.0380,3.8450,0.6890,3.2920,5.108
28.0480,3.7160,0.0720,2.8760,4.699
28.0580,3.5300,-0.5480,2.5780,4.405
28.0680,3.2590,-1.2100,2.3710,4.208
28.0780,2.9460,-1.7930,2.2840,4.136
28.0870,2.6200,-2.3260,2.2230,4.149
28.0980,2.3270,-2.6450,2.2150,4.161
28.1220,2.0590,-2.6840,2.3240,4.104
28.1220,1.8350,-2.5030,2.4330,3.944
28.1290,1.6440,-2.2580,2.3950,3.679
28.1370,1.4100,-1.9220,2.3200,3.326
28.1470,1.0930,-1.5400,2.2550,2.941
28.1590,0.7580,-1.2240,2.1590,2.595
28.1670,0.4420,-1.0410,2.0270,2.321
28.1790,0.1190,-0.8430,1.9260,2.106
28.1870,-0.0860,-0.7460,1.7320,1.888
28.1970,-0.2010,-0.7410,1.5450,1.725
28.2290,-0.3740,-0.7260,1.3290,1.560
28.2290,-0.5180,-0.8280,1.1020,1.473
28.2300,-0.6190,-0.9980,0.7860,1.413
28.2410,-0.7920,-1.1460,0.4360,1.460
28.2540,-1.0140,-1.2570,0.0790,1.617
28.2590,-1.2800,-1.4150,-0.2650,1.926
28.2670,-1.5720,-1.5450,-0.5100,2.262
28.2780,-1.8680,-1.6250,-0.6140,2.551
28.2870,-2.1950,-1.6810,-0.7060,2.853
28.2980,-2.4990,-1.6830,-0.7360,3.101
28.3190,-2.7390,-1.6740,-0.7580,3.298
28.3190,-2.9410,-1.6630,-0.8740,3.490
28.3270,-3.1230,-1.6420,-1.1620,3.715
28.3380,-3.2860,-1.7530,-1.5990,4.053
28.3470,-3.4690,-1.8610,-2.0070,4.419
28.3590,-3.5980,-1.9760,-2.2900,4.700
28.3670,-3.6140,-2.1470,-2.4820,4.882
28.3770,-3.6960,-2.3640,-2.6190,5.110
28.3870,-3.8550,-2.5160,-2.7750,5.375
28.3980,-4.0300,-2.6450,-2.9330,5.643
28.4200,-4.2000,-2.7890,-3.1590,5.950
28.4210,-4.3940,-2.8410,-3.3570,6.217
28.4270,-4.4960,-2.7350,-3.4410,6.288
28.4400,-4.4610,-2.6200,-3.3750,6.177
28.4470,-4.2470,-2.7620,-3.1900,5.987
28.4570,-3.9030,-3.0590,-2.9790,5.785
28.4670,-3.5690,-3.3210,-2.7900,5.617
28.4770,-3.2280,-3.6520,-2.7320,5.588
28.4870,-3.0510,-3.8430,-2.7260,5.613
28.4980,-3.1730,-3.7530,-2.7560,5.635
28.5390,-3.1740,-3.5870,-2.8740,5.586
28.5390,-2.9110,-3.4470,-3.0720,5.458
28.5400,-2.5830,-3.0810,-3.2480,5.169
28.5400,-2.4550,-2.4630,-3.3800,4.850
28.5470,-2.5020,-1.6860,-3.3720,4.525
28.5560,-2.6400,-0.8530,-3.1820,4.222
28.5670,-2.6440,-0.1950,-2.8200,3.871
28.5770,-2.2610,0.2280,-2.3680,3.282
28.5870,-1.4760,0.4620,-1.8860,2.439
28.5960,-0.5490,0.4900,-1.4960,1.667
28.6230,0.3150,0.3160,-1.3710,1.442
28.6240,1.0850,0.0740,-1.4840,1.840
28.6260,1.7340,-0.1950,-1.7460,2.468
28.6370,2.2170,-0.4790,-2.0800,3.077
28.6470,2.5340,-0.8170,-2.3250,3.535
28.6570,2.6810,-1.2200,-2.4720,3.845
28.6670,2.7150,-1.6300,-2.4970,4.033
28.6770,2.6320,-1.9540,-2.3400,4.028
28.6870,2.4990,-2.1510,-1.9380,3.825
28.6970,2.3460,-2.0870,-1.3750,3.428
28.7230,2.2010,-1.7670,-0.8200,2.939
28.7230,2.1610,-1.3120,-0.2880,2.544
28.7260,2.0900,-0.7680,0.2830,2.245
28.7370,1.9740,-0.2410,0.8340,2.156
28.7480,1.9760,0.2200,1.2760,2.362
28.7580,2.0760,0.6660,1.6380,2.727
28.7670,2.2300,1.0320,1.8870,3.098
28.7770,2.4340,1.3250,1.9550,3.391
28.7870,2.6830,1.5110,1.8900,3.613
28.7960,2.9270,1.6590,1.8290,3.829
28.8190,3.1400,1.7310,1.7520,3.991
28.8190,3.3480,1.7350,1.6350,4.110
28.8270,3.5890,1.6600,1.5140,4.234
28.8370,3.7940,1.5610,1.3990,4.335
28.8470,3.9760,1.4210,1.3170,4.423
28.8580,4.1010,1.2840,1.2540,4.477
28.8670,4.2160,1.1110,1.2570,4.538
28.8770,4.2910,0.9480,1.3380,4.594
28.8890,4.3980,0.8130,1.5390,4.730
28.8980,4.5180,0.6980,1.7770,4.905
28.9270,4.6260,0.6130,2.0290,5.088
28.9270,4.6360,0.6120,2.2710,5.199
28.9270,4.6780,0.6680,2.5400,5.365
28.9380,4.8310,0.7600,2.8080,5.639
28.9460,4.9620,0.8340,3.0050,5.861
28.9560,5.0220,0.9190,3.1070,5.976
28.9660,5.1150,1.0100,3.1950,6.115
28.9770,5.3090,1.1030,3.3580,6.378
28.9870,5.4900,1.1290,3.5100,6.613
28.9980,5.7280,1.0330,3.7260,6.911
29.0190,6.0690,0.8530,4.0090,7.323
29.0190,6.3800,0.6580,4.3940,7.775
29.0260,6.6190,0.4750,4.6850,8.123
29.0370,6.8660,0.1980,4.7610,8.358
29.0460,7.1380,-0.1980,4.6660,8.530
29.0570,7.5160,-0.7550,4.7120,8.903
29.0660,7.7950,-1.3490,4.9030,9.307
29.0760,7.8520,-1.6680,5.2380,9.585
29.0890,7.8730,-1.6550,5.6230,9.815
29.0960,7.9280,-1.4520,5.8270,9.946
29.1060,7.8690,-1.1440,5.9680,9.942
29.1170,7.6690,-0.6390,6.1300,9.839
29.1260,7.3340,0.0290,6.3500,9.701
29.1370,6.8650,0.8330,6.5910,9.553
29.1460,6.4100,1.6310,6.7840,9.475
29.1560,6.2290,2.4170,6.9260,9.624
29.1670,6.1490,2.9590,6.9400,9.733
29.1780,5.9590,3.1770,6.8000,9.583
29.1860,5.7390,3.0310,6.4390,9.142
29.1970,5.3280,2.6830,5.8980,8.389
29.2060,4.8440,2.2010,5.2680,7.487
29.2190,4.3970,1.6630,4.6690,6.626
29.2260,4.0870,1.0910,4.1250,5.908
29.2390,3.8370,0.4570,3.5480,5.246
29.2460,3.6080,-0.2290,3.0220,4.712
29.2580,3.3260,-0.8460,2.6030,4.307
29.2680,3.0080,-1.3650,2.2190,3.979
29.2760,2.7460,-1.8110,1.8980,3.798
29.2940,2.3800,-2.0360,1.7150,3.571
29.2970,2.0480,-1.9760,1.6410,3.285
29.3130,1.8470,-1.7900,1.6310,3.046
29.3170,1.6390,-1.5470,1.6380,2.786
29.3260,1.4340,-1.2420,1.7760,2.599
29.3400,1.2540,-0.9180,1.9400,2.486
29.3460,1.1160,-0.6210,2.1470,2.498
29.3570,0.9210,-0.3870,2.2750,2.485
29.3660,0.6980,-0.2260,2.2870,2.402
29.3770,0.5050,-0.1590,2.1940,2.257
29.3870,0.3820,-0.2250,1.9320,1.982
29.3970,0.2570,-0.2650,1.5120,1.556
29.4170,0.1170,-0.3600,1.0580,1.124
29.4170,-0.0790,-0.4840,0.7220,0.873
29.4260,-0.3200,-0.6480,0.5080,0.883
29.4360,-0.5020,-0.9020,0.3380,1.086
29.4460,-0.5710,-1.1570,0.1860,1.304
29.4560,-0.5870,-1.3540,0.1260,1.481
29.4660,-0.7900,-1.3700,0.0720,1.583
29.4770,-1.0570,-1.3770,0.0550,1.737
29.4870,-1.3240,-1.4600,-0.0340,1.971
29.4960,-1.6110,-1.5330,-0.1220,2.227
29.5220,-1.9260,-1.5990,-0.2430,2.515
29.5220,-2.2580,-1.7220,-0.3730,2.864
29.5260,-2.5670,-1.7850,-0.5360,3.172
29.5370,-2.9070,-1.8310,-0.7280,3.512
29.5460,-3.1770,-1.9810,-0.9650,3.866
29.5570,-3.4340,-2.1120,-1.3050,4.237
29.5670,-3.6830,-2.2090,-1.5750,4.574
29.5760,-3.7970,-2.3960,-1.7890,4.833
29.5880,-3.8200,-2.5980,-1.9350,5.009
29.5970,-3.8010,-2.7630,-2.1180,5.154
29.6300,-3.7920,-2.8150,-2.3240,5.264
29.6300,-3.8060,-2.7720,-2.5010,5.331
29.6310,-3.8690,-2.6060,-2.6230,5.352
29.6360,-3.8660,-2.5450,-2.7090,5.363
29.6470,-3.6300,-2.7090,-2.8010,5.326
29.6560,-3.2770,-2.9730,-2.8350,5.255
29.6660,-2.8700,-3.2360,-2.7950,5.150
29.6780,-2.7180,-3.2750,-2.8410,5.117
29.6850,-2.7430,-2.9870,-2.8150,4.937
29.6950,-2.6660,-2.7870,-2.7540,4.739
29.7210,-2.4410,-2.8700,-2.7080,4.640
29.7220,-2.4070,-2.7360,-2.6270,4.492
29.7260,-2.5830,-2.2750,-2.4650,4.234
29.7360,-2.7180,-1.6710,-2.3150,3.942
29.7450,-2.8360,-0.9880,-2.2290,3.740
29.7550,-2.8730,-0.3190,-2.1400,3.597
29.7650,-2.5340,0.0980,-2.0510,3.261
29.7760,-1.8280,0.1830,-1.9340,2.667
29.7880,-1.0680,-0.0380,-1.8900,2.171
29.7950,-0.4040,-0.3460,-1.9210,1.993
29.8080,0.2330,-0.5720,-1.9850,2.079
29.8150,0.7830,-0.7760,-1.9890,2.274
29.8340,1.2620,-1.0000,-2.0070,2.573
29.8360,1.6140,-1.2740,-2.0570,2.908
29.8450,1.6930,-1.4730,-2.0670,3.051
29.8550,1.5840,-1.5930,-1.9650,2.985
29.8650,1.3410,-1.5940,-1.7630,2.729
29.8770,1.1520,-1.5770,-1.5230,2.477
29.8850,1.0490,-1.3940,-1.2100,2.123
29.8970,0.9990,-0.9920,-0.8730,1.657
29.9130,1.0160,-0.4740,-0.6080,1.275
29.9150,1.1110,0.1020,-0.4330,1.197
29.9250,1.2710,0.6110,-0.3120,1.444
29.9370,1.4120,0.9820,-0.2800,1.743
29.9450,1.5010,1.2470,-0.3090,1.976
29.9560,1.5750,1.4720,-0.3980,2.192
29.9650,1.6760,1.6140,-0.5140,2.383
29.9770,1.7620,1.6240,-0.6840,2.492
29.9850,1.8820,1.5600,-0.8040,2.573
30.0040,2.0420,1.4890,-0.8900,2.679
30.0050,2.2540,1.3650,-0.9140,2.789
30.0170,2.4900,1.2230,-0.8960,2.915
30.0270,2.7300,1.0300,-0.8330,3.034
30.0500,2.9370,0.8910,-0.6780,3.143
30.0500,3.2360,0.7130,-0.4660,3.346
30.0610,3.5840,0.4940,-0.1540,3.621
30.1140,3.9180,0.3050,0.2610,3.939
30.1150,4.1910,0.1210,0.6680,4.246
30.1160,4.4270,-0.0200,0.9890,4.536
30.1410,4.6430,-0.1140,1.2070,4.799
30.1570,4.8990,-0.1170,1.4250,5.103
30.1690,5.1520,-0.0740,1.7090,5.429
30.1700,5.4370,0.0020,2.1690,5.854
30.1710,5.6570,0.1420,2.7470,6.290
30.1720,5.9470,0.3970,3.4250,6.874
30.1730,6.3060,0.6570,4.0850,7.542
30.2050,6.6950,0.9790,4.6500,8.210
30.2060,7.1230,1.1770,5.0360,8.802
30.2080,7.5820,1.2620,5.2610,9.314
30.2080,7.9360,1.3400,5.3320,9.654
30.2090,8.3290,1.3090,5.2650,9.940
30.2150,8.5720,1.1320,5.0450,10.011
30.2290,8.6490,1.0360,4.8030,9.947
30.2370,8.7070,0.8460,4.6190,9.893
30.2450,8.7850,0.4370,4.4890,9.875
30.2570,8.7870,-0.1420,4.5020,9.874
30.2660,8.6460,-0.7680,4.5600,9.805
30.2760,8.4030,-1.2160,4.6540,9.682
30.2850,8.2150,-1.4500,4.8590,9.654
30.2960,8.0300,-1.4060,5.1510,9.643
30.3060,7.7210,-0.9920,5.5720,9.573
30.3150,7.3050,-0.3260,5.9450,9.424
30.3250,6.8060,0.5290,6.1930,9.217
30.3360,6.2810,1.3250,6.1840,8.913
30.3450,5.8860,1.9810,5.9120,8.574
30.3550,5.6370,2.4370,5.6050,8.314
30.3650,5.5840,2.6390,5.4260,8.221
30.3750,5.5980,2.6150,5.4160,8.216
30.3850,5.6940,2.3510,5.4000,8.192
30.3990,5.7210,1.8510,5.2390,7.975
30.4150,5.5490,1.3250,4.9120,7.528
30.4160,5.3240,0.6490,4.3190,6.886
30.4260,5.2030,-0.2260,3.6500,6.360
30.4400,4.8980,-1.1210,3.1420,5.926
30.4450,4.3980,-1.8500,2.9370,5.603
30.4610,3.7920,-2.4890,2.8210,5.342
30.4650,3.1420,-2.9100,2.7330,5.080
30.4760,2.4050,-3.0990,2.5710,4.690
30.4960,1.6810,-3.0460,2.4590,4.260
30.4960,0.9530,-2.8970,2.4170,3.891
30.5070,0.2970,-2.4350,2.4620,3.475
30.5160,-0.1960,-1.8980,2.5950,3.221
30.5260,-0.6170,-1.3990,2.6790,3.085
30.5360,-0.8690,-0.9530,2.7650,3.051
30.5450,-0.9150,-0.6520,2.7670,2.986
30.5600,-0.8360,-0.4750,2.6570,2.826
30.5660,-0.6830,-0.4420,2.3720,2.508
30.5810,-0.5730,-0.4410,1.8900,2.024
30.5870,-0.4090,-0.5260,1.4060,1.556
30.5970,-0.3030,-0.6940,0.9180,1.190
30.6040,-0.3580,-0.8520,0.4280,1.018
30.6170,-0.4480,-1.0600,-0.1220,1.157
30.6300,-0.5700,-1.1900,-0.7140,1.500
30.6430,-0.7770,-1.2660,-1.2180,1.921
30.6440,-1.1040,-1.2800,-1.5300,2.280
30.6570,-1.5040,-1.2670,-1.8100,2.673
30.6640,-1.8870,-1.2630,-2.1370,3.118
30.6750,-2.2080,-1.2180,-2.4380,3.508
30.6900,-2.4800,-1.1600,-2.6900,3.838
30.7030,-2.6940,-1.0950,-2.8090,4.043
30.7060,-2.9020,-1.1030,-2.9580,4.288
30.7150,-3.0080,-1.1830,-3.0750,4.461
30.7240,-3.1680,-1.2970,-3.2030,4.688
30.7350,-3.3360,-1.3840,-3.3820,4.948
30.7440,-3.4460,-1.4930,-3.6160,5.213
30.7560,-3.4990,-1.6980,-3.8610,5.480
30.7650,-3.5320,-1.9520,-4.1380,5.780
30.7750,-3.6490,-2.2190,-4.3270,6.080
30.7840,-3.7080,-2.3970,-4.3700,6.212
30.7950,-3.6810,-2.3830,-4.2200,6.086
30.8050,-3.6030,-2.2530,-3.8370,5.725
30.8150,-3.5650,-2.1350,-3.3540,5.340
30.8240,-3.5920,-2.1430,-2.8850,5.081
30.8340,-3.4180,-2.5090,-2.4760,4.910
30.8440,-3.0870,-3.0410,-2.2180,4.868
30.8560,-2.7190,-3.4850,-2.1050,4.896
30.8640,-2.3640,-3.7760,-2.1630,4.952
30.8740,-2.2090,-3.7790,-2.2880,4.939
30.8840,-1.9920,-3.6590,-2.4240,4.820
30.8950,-1.6970,-3.6500,-2.6360,4.812
30.9040,-1.5890,-3.4970,-2.8630,4.791
30.9140,-1.7600,-2.9030,-2.9510,4.498
30.9240,-1.9560,-2.1260,-2.8330,4.046
30.9360,-1.9430,-1.3350,-2.5430,3.468
30.9440,-1.6660,-0.6150,-2.0340,2.700
30.9550,-1.2500,-0.0810,-1.4760,1.936
30.9650,-0.7120,0.1410,-1.0500,1.276
30.9740,-0.0250,0.1290,-0.8190,0.829
30.9850,0.6440,0.0440,-0.7400,0.982
30.9950,1.3360,-0.0810,-0.7090,1.515
31.0040,1.9840,-0.2810,-0.7600,2.143
31.0150,2.5520,-0.5700,-0.8960,2.764
31.0260,3.0550,-0.9450,-1.0150,3.355
31.0360,3.4460,-1.2730,-1.1250,3.842
31.0450,3.6480,-1.4560,-1.1100,4.082
31.0550,3.7250,-1.5300,-0.9770,4.144
31.0650,3.5650,-1.4360,-0.7550,3.917
31.0760,3.2540,-1.1730,-0.5180,3.498
31.0860,2.9050,-0.7660,-0.3120,3.020
31.1120,2.5820,-0.2490,-0.1700,2.600
31.1130,2.3530,0.3040,-0.0710,2.374
31.1140,2.1340,0.8360,-0.0120,2.292
31.1290,2.0750,1.2910,0.0120,2.444
31.1360,2.2050,1.6250,0.0520,2.740
31.1450,2.4970,1.8540,0.0890,3.111
31.1560,2.8790,2.0600,0.1740,3.544
31.1650,3.2500,2.1560,0.1980,3.905
31.1750,3.5620,2.1310,0.1970,4.155
31.1850,3.7670,2.1000,0.2210,4.318
31.1960,3.8850,2.0200,0.2890,4.388
31.2050,3.9590,1.9000,0.3920,4.409
31.2160,3.9220,1.6560,0.4410,4.280
31.2250,3.7610,1.3860,0.5070,4.040
31.2360,3.6170,1.1200,0.6040,3.834
31.2450,3.5870,0.7800,0.7810,3.753
31.2560,3.6410,0.5000,1.0350,3.818
31.2640,3.7110,0.3250,1.3770,3.972
31.2770,3.8300,0.2170,1.7380,4.211
31.2880,4.0110,0.1580,2.0480,4.506
31.2950,4.2020,0.2200,2.3880,4.838
31.3040,4.4730,0.3340,2.7250,5.248
31.3170,4.7000,0.4800,3.0470,5.622
31.3250,4.8930,0.6550,3.2930,5.934
31.3340,5.0630,0.9060,3.4870,6.214
31.3460,5.3140,1.1310,3.6480,6.544
31.3550,5.6710,1.2090,3.8380,6.954
31.3640,6.0570,1.1970,4.1130,7.419
31.3740,6.5130,1.1120,4.4190,7.949
31.3840,6.9840,0.9780,4.7030,8.476
31.3940,7.5340,0.8900,4.9170,9.040
31.4070,7.9930,0.7580,5.0190,9.469
31.4150,8.4090,0.6380,5.0560,9.833
31.4250,8.8030,0.3030,5.0720,10.164
31.4350,9.1730,-0.2800,5.1460,10.522
31.4450,9.4270,-0.9510,5.2950,10.854
31.4550,9.4040,-1.4870,5.4580,10.974
31.4640,9.1160,-1.6460,5.5620,10.805
31.4760,8.7580,-1.5870,5.6210,10.527
31.4880,8.3340,-1.3060,5.5400,10.092
31.4960,7.7490,-0.6370,5.4580,9.500
31.5050,7.1680,0.2530,5.4990,9.038
31.5160,6.6570,1.1780,5.4880,8.708
31.5270,6.2570,1.9250,5.3870,8.478
31.5350,6.0590,2.4360,5.1640,8.325
31.5470,6.0000,2.7310,4.9450,8.241
31.5560,6.0780,2.7660,4.6700,8.149
31.5670,6.1500,2.4610,4.2820,7.888
31.5770,6.1860,1.9730,3.8540,7.551
31.5870,6.1860,1.3020,3.3560,7.157
31.5950,6.0850,0.5340,2.8510,6.741
31.6050,5.9060,-0.3090,2.4680,6.408
31.6150,5.6680,-1.2200,2.1510,6.184
31.6250,5.2610,-2.1040,1.9620,5.996
31.6340,4.5830,-2.8260,1.7820,5.671
31.6490,3.8140,-3.3670,1.7380,5.376
31.6560,3.0060,-3.6720,1.6470,5.023
31.6650,2.1490,-3.6620,1.5790,4.530
31.6760,1.4230,-3.4400,1.6590,4.076
31.6860,0.8580,-3.0670,1.7530,3.635
31.6960,0.3840,-2.5960,1.8040,3.185
31.7060,-0.0100,-2.1580,1.7250,2.763
31.7160,-0.3550,-1.8040,1.7190,2.517
31.7260,-0.6210,-1.5090,1.7830,2.417
31.7350,-0.7600,-1.3520,1.7270,2.321
31.7450,-0.8650,-1.2500,1.5770,2.190
31.7560,-0.9200,-1.1460,1.2820,1.950
31.7650,-0.9200,-1.1720,0.9650,1.775
31.7750,-0.9080,-1.2670,0.6460,1.687
31.7840,-0.9980,-1.4050,0.3000,1.749
31.7950,-1.0930,-1.5540,-0.1420,1.905
31.8050,-1.1760,-1.7040,-0.5930,2.154
31.8150,-1.3700,-1.8320,-1.1080,2.542
31.8250,-1.6170,-1.8880,-1.6320,2.974
31.8370,-1.8800,-1.8930,-2.0660,3.374
31.8460,-2.1850,-1.8980,-2.4110,3.767
31.8570,-2.4810,-1.8270,-2.7170,4.108
31.8650,-2.8400,-1.6650,-2.9980,4.453
31.8760,-3.2200,-1.5210,-3.2910,4.849
31.8840,-3.4870,-1.3670,-3.4860,5.117
31.8970,-3.6740,-1.2730,-3.5840,5.288
31.9040,-3.8500,-1.1800,-3.6420,5.429
31.9160,-3.9830,-1.1810,-3.7780,5.615
31.9250,-4.0110,-1.3260,-3.9480,5.782
31.9360,-3.9350,-1.6000,-4.0900,5.897
31.9440,-3.8480,-1.9930,-4.2660,6.081
31.9550,-3.7990,-2.4470,-4.5090,6.384
31.9640,-3.8620,-2.7090,-4.7210,6.674
31.9740,-3.9420,-2.7440,-4.8320,6.813
31.9830,-3.9880,-2.7370,-4.7610,6.787
31.9960,-4.0020,-2.6880,-4.4920,6.589
32.0040,-3.9960,-2.5900,-4.0280,6.237
32.0150,-3.8640,-2.5530,-3.5060,5.809
32.0280,-3.4540,-2.7040,-2.9630,5.293
32.0340,-2.8560,-3.0430,-2.5660,4.899
32.0480,-2.3270,-3.3350,-2.3870,4.715
32.0550,-2.0860,-3.4130,-2.4860,4.710
32.0650,-2.1580,-3.1820,-2.7140,4.706
32.0740,-2.1930,-2.9620,-2.9960,4.750
32.0850,-1.8830,-3.0650,-3.2960,4.879
32.0980,-1.4590,-3.1270,-3.4910,4.909
32.1050,-1.1580,-2.7650,-3.5200,4.623
32.1140,-0.9190,-2.0730,-3.4280,4.110
32.1240,-0.7780,-1.3000,-3.2280,3.566
32.1340,-0.7090,-0.5710,-2.9590,3.096
32.1450,-0.4200,-0.0820,-2.6300,2.665
32.1530,0.1930,0.0790,-2.3070,2.316
32.1640,1.0230,-0.0160,-2.0900,2.327
32.1740,1.9120,-0.1980,-1.9380,2.730
32.1860,2.6940,-0.4230,-1.8290,3.284
32.1970,3.2850,-0.6560,-1.7570,3.783
32.2050,3.7170,-1.0230,-1.6150,4.180
32.2140,3.9660,-1.4430,-1.4140,4.451
32.2250,4.0310,-1.8770,-1.1540,4.594
32.2340,3.9140,-2.2090,-0.8870,4.581
32.2450,3.6130,-2.3190,-0.5870,4.333
32.2550,3.2560,-2.2400,-0.2820,3.962
32.2640,2.9740,-1.9000,0.0740,3.530
32.2750,2.7580,-1.3490,0.4970,3.110
32.2910,2.5150,-0.7520,0.9120,2.779
32.2950,2.2950,-0.1510,1.2510,2.618
32.3040,2.2590,0.3670,1.5680,2.774
32.3150,2.4440,0.8600,1.8580,3.188
32.3250,2.7370,1.2430,2.1020,3.668
32.3350,3.0700,1.5580,2.2180,4.095
32.3440,3.3880,1.7580,2.2100,4.411
32.3550,3.6430,1.9050,2.1210,4.626
32.3640,3.7930,1.9950,2.0590,4.755
32.3740,3.8670,1.9700,1.9830,4.771
32.3850,3.9250,1.9270,1.9630,4.793
32.3950,3.9320,1.9040,2.0430,4.823
32.4050,3.8470,1.8300,2.1970,4.793
32.4140,3.6820,1.7040,2.3690,4.698
32.4240,3.5370,1.4980,2.5830,4.629
32.4340,3.4620,1.2350,2.8330,4.641
32.4440,3.4170,0.9680,3.1470,4.745
32.4540,3.3710,0.7830,3.4690,4.900
32.4650,3.2790,0.7010,3.8070,5.073
32.4740,3.2700,0.5170,4.0800,5.254
32.4840,3.3300,0.2960,4.3770,5.508
32.4940,3.4020,0.2540,4.7260,5.829
32.5050,3.5620,0.3260,4.9530,6.110
32.5160,3.7810,0.3950,5.0740,6.340
32.5250,3.8810,0.4430,5.0880,6.415
32.5340,3.9420,0.4660,5.0720,6.441
32.5440,4.0950,0.3840,5.0400,6.505
32.5540,4.3110,0.2660,5.0850,6.672
32.5640,4.5740,0.1190,5.1490,6.888
32.5760,4.8780,-0.0520,5.2470,7.164
32.5850,5.1090,-0.1290,5.3150,7.373
32.5950,5.2770,-0.1390,5.3710,7.531
32.6040,5.5660,-0.3280,5.3720,7.743
32.6150,5.8980,-0.7270,5.2850,7.953
32.6310,6.1320,-1.0910,5.2150,8.123
32.6340,6.3170,-1.2240,5.2660,8.315
32.6460,6.4980,-1.2150,5.4020,8.537
32.6550,6.5800,-1.0260,5.5770,8.686
32.6650,6.5780,-0.7070,5.8030,8.800
32.6750,6.6040,-0.4260,6.0250,8.950
32.6850,6.6240,-0.0380,6.2590,9.113
32.6930,6.4890,0.5840,6.4070,9.138
32.7040,6.4300,1.4060,6.4810,9.237
32.7140,6.4210,2.1800,6.4750,9.376
32.7250,6.4600,2.8690,6.5240,9.619
32.7340,6.5180,3.2220,6.6020,9.821
32.7440,6.5050,3.2820,6.6080,9.836
32.7540,6.4590,3.1730,6.5810,9.752
32.7650,6.4850,2.7810,6.5060,9.598
32.7760,6.3340,2.1870,6.2300,9.150
32.7860,5.9240,1.3770,5.6860,8.326
32.7940,5.5340,0.4150,4.8710,7.384
32.8050,5.2560,-0.6060,4.1600,6.730
32.8180,4.9230,-1.6190,3.5800,6.299
32.8270,4.3960,-2.4880,3.1790,5.968
32.8340,3.7920,-3.1180,2.7570,5.630
32.8440,3.2960,-3.6440,2.3990,5.468
32.8560,2.7570,-3.8460,2.1720,5.207
32.8640,2.1600,-3.6450,2.0660,4.714
32.8730,1.6690,-3.3080,2.0750,4.247
32.8840,1.2280,-2.9450,2.0950,3.817
32.8930,0.8010,-2.4890,2.0780,3.340
32.9050,0.3700,-2.0480,1.9780,2.871
32.9140,-0.0330,-1.6360,1.8460,2.467
32.9240,-0.3090,-1.3580,1.6630,2.169
32.9330,-0.4400,-1.2640,1.4950,2.007
32.9430,-0.5220,-1.2400,1.3180,1.883
32.9540,-0.5720,-1.2990,1.0420,1.761
32.9640,-0.6810,-1.3600,0.6360,1.649
32.9750,-0.8140,-1.4040,0.1710,1.632
32.9860,-0.9760,-1.4970,-0.3200,1.815
32.9950,-1.0880,-1.5570,-0.8050,2.063
33.0060,-1.1890,-1.5190,-1.1980,2.271
33.0140,-1.2700,-1.5160,-1.4840,2.473
33.0260,-1.4310,-1.5340,-1.7850,2.754
33.0360,-1.5650,-1.4400,-2.0470,2.952
33.0450,-1.7070,-1.3480,-2.2630,3.139
33.0550,-1.8230,-1.1680,-2.3780,3.216
33.0660,-1.8780,-1.0180,-2.3790,3.197
33.0760,-1.9340,-0.9170,-2.3050,3.146
33.0830,-1.9610,-0.8790,-2.2360,3.101
33.0940,-2.0900,-0.8920,-2.1990,3.162
33.1030,-2.3070,-0.9730,-2.2280,3.352
33.1140,-2.5130,-1.1300,-2.3200,3.602
33.1230,-2.6880,-1.2620,-2.3400,3.781
33.1330,-2.9150,-1.4340,-2.3120,3.987
33.1430,-3.1220,-1.6560,-2.2790,4.205
33.1530,-3.3220,-1.8540,-2.3250,4.459
33.1630,-3.4720,-1.9540,-2.3850,4.643
33.1730,-3.6430,-2.0270,-2.4740,4.848
33.1850,-3.7630,-2.0500,-2.6070,5.016
33.1930,-3.7850,-2.1480,-2.7430,5.144
33.2030,-3.7070,-2.2900,-2.8210,5.191
33.2140,-3.5650,-2.4730,-2.8480,5.190
33.2240,-3.2890,-2.7840,-2.8330,5.157
