time,ax,ay,az,aT
0.0250,-0.9640,0.6640,-0.8180,1.428
0.0260,-0.9750,0.3840,-1.2350,1.620
0.0260,-0.8630,0.1730,-1.5910,1.818
0.0260,-0.7650,0.2860,-1.7050,1.891
0.0370,-0.4370,0.1970,-2.0240,2.080
0.0460,-0.1570,-0.1090,-1.8020,1.812
0.0570,-0.7520,-0.0640,-0.3230,0.821
0.0660,-0.0500,-0.4220,-1.3980,1.461
0.0760,0.3560,-0.7900,-2.8970,3.024
0.0870,0.4560,-1.7770,-2.3740,3.000
0.0960,0.0620,-2.6290,-1.6520,3.106
0.1080,-0.7930,-1.1690,-1.8750,2.348
0.1170,-0.7140,-0.7350,-2.5040,2.706
0.1260,0.2320,-1.4140,-2.0570,2.507
0.1360,0.1630,-1.3010,-1.4490,1.954
0.1540,0.0730,-1.6380,-1.4230,2.171
0.1590,0.2640,-1.8550,-1.1200,2.183
0.1670,0.3150,-2.1530,-1.0570,2.419
0.1870,0.5930,-2.2090,-1.2280,2.596
0.1870,0.0410,-1.4250,-0.9570,1.717
0.1970,-1.5130,1.6750,0.2620,2.272
0.2090,-0.6230,1.8460,0.3090,1.973
0.2170,-0.2020,1.4200,0.5270,1.528
0.2270,-0.1580,1.0170,0.1550,1.041
0.2360,-0.1100,1.0640,-0.6370,1.245
0.2520,0.1750,1.0930,-0.8490,1.395
0.2570,0.5660,0.9700,-1.4900,1.866
0.2670,0.9830,0.8810,-1.9840,2.383
0.2820,1.0810,0.8140,-2.1440,2.535
0.2860,1.1160,0.4470,-1.9670,2.305
0.2970,0.4970,0.6890,1.5270,1.747
0.3070,1.4800,-0.3610,1.7810,2.344
0.3160,-0.1250,-0.2190,0.5310,0.588
0.3330,0.4850,-0.1970,1.0660,1.188
0.3360,0.6500,-0.6850,1.0790,1.434
0.3460,0.7050,-0.5920,-0.1020,0.926
0.3560,0.8460,-0.1080,-0.0010,0.853
0.3670,1.0660,-0.2200,0.8350,1.372
0.3770,1.0900,-0.2210,1.2730,1.690
0.3870,0.8230,-0.2760,1.5720,1.796
0.3960,0.1970,-0.2710,1.6860,1.719
0.4070,-0.1350,-0.1780,1.7010,1.716
0.4160,-0.2670,-0.0340,1.0890,1.122
0.4330,-0.6060,-0.3700,0.8270,1.090
0.4360,-0.9120,-0.8490,1.0080,1.603
0.4490,-0.8290,-0.8820,1.6370,2.036
0.4660,-0.9250,-0.9020,2.9200,3.193
0.4660,-0.9280,-1.3050,1.9990,2.561
0.4790,-1.0440,-0.9590,1.5150,2.075
0.4860,-1.7980,-0.1620,1.6720,2.461
0.4970,-0.5200,0.3310,0.7510,0.972
0.5070,0.7410,0.1100,-0.1190,0.759
0.5170,0.7970,0.0240,-0.1010,0.804
0.5340,0.9370,-0.1270,0.1270,0.954
0.5360,0.6030,-0.4190,0.1030,0.741
0.5470,0.2200,-0.5530,-0.3430,0.687
0.5760,0.2610,-0.6740,-0.6090,0.945
0.5760,0.1070,-0.6530,-0.9680,1.173
0.5770,0.2130,-0.8850,-1.1320,1.453
0.6000,2.1750,-2.0590,-1.0150,3.162
0.6010,0.4630,-1.2880,-0.7460,1.559
0.6070,-0.4320,-0.6130,-0.6190,0.972
0.6230,-0.2160,-0.9830,-0.8130,1.294
0.6290,0.2240,-1.7790,-1.2010,2.158
0.6360,0.7440,-2.1930,-1.0540,2.544
0.6470,0.7680,-2.4470,-0.2160,2.574
0.6610,0.4180,-2.1530,0.0420,2.194
0.6670,-0.0580,-1.9840,0.2260,1.998
0.6780,-0.6160,-1.7860,0.1780,1.898
0.6880,0.1220,-1.3890,-1.5720,2.101
0.6960,0.0410,-1.9260,-2.1910,2.917
0.7070,-0.6200,-1.9940,-2.3840,3.169
0.7160,-1.0200,-1.5890,-2.5290,3.156
0.7260,-1.1630,-1.2510,-2.4840,3.015
0.7360,-1.1300,-1.0470,-2.4340,2.881
0.7520,-0.8150,-1.0550,-2.3670,2.717
0.7570,-0.4960,-0.9850,-2.4290,2.668
0.7670,-0.6960,-0.7640,-2.8120,2.996
0.7820,-1.0760,-0.8910,-3.3260,3.607
0.7860,-1.4310,-0.8090,-3.7730,4.116
0.7960,-1.6220,-0.7200,-4.0190,4.393
0.8070,-1.5150,-1.0060,-4.0190,4.411
0.8160,-1.0470,-1.1810,-3.2970,3.655
0.8260,-0.4740,-0.9210,-2.7860,2.972
0.8390,-0.0030,-0.6690,-2.3580,2.451
0.8490,0.1350,-0.5350,-1.9680,2.044
0.8560,0.1040,-0.5480,-1.7590,1.845
0.8660,-0.1040,-0.6700,-1.6290,1.764
0.8880,-0.4200,-0.7400,-1.4090,1.646
0.8880,-0.5720,-0.5520,-1.2670,1.496
0.9000,-0.7520,-0.3620,-1.3030,1.547
0.9070,-0.9290,-0.2510,-1.4530,1.743
0.9170,-0.7800,-0.1390,-1.6080,1.793
0.9260,-0.2520,-0.3350,-1.7650,1.814
0.9370,-0.1570,-0.2440,-1.8410,1.864
0.9480,-0.5650,0.4550,-1.1340,1.346
1.0030,-0.6770,0.6810,-0.5000,1.083
1.0030,-0.9940,0.6640,-0.1390,1.203
1.0030,-1.1800,0.6970,0.2120,1.387
1.0030,-1.0770,0.6860,0.6350,1.426
1.0040,-0.8410,0.5590,0.8470,1.318
1.0060,-0.6000,0.4540,0.7250,1.045
1.0160,-0.2080,0.2460,0.6040,0.685
1.0270,-0.0080,0.1980,0.3930,0.440
1.0360,0.1210,0.0690,1.0590,1.068
1.0520,0.2690,-0.2440,2.1200,2.151
1.0560,0.2180,-0.8590,2.9340,3.065
1.0670,0.3430,-1.0950,3.8670,4.034
1.0770,0.4780,-1.2560,4.7270,4.914
1.0870,1.1010,-1.2860,5.4870,5.742
1.0970,0.7980,-0.8430,5.9540,6.066
1.1080,0.9320,-0.8530,5.9570,6.090
1.1160,1.3390,-0.6730,5.7350,5.928
1.1270,1.4770,-0.5190,5.1450,5.378
1.1360,1.5080,-0.3480,4.2350,4.509
1.1460,1.4370,-0.2560,3.1800,3.499
1.1560,1.0870,-0.0010,2.0800,2.347
1.1670,0.5130,0.1960,1.1460,1.271
1.1760,-0.1640,-0.0020,0.5960,0.618
1.1870,0.2120,-0.5200,0.4140,0.698
1.1950,1.1070,-0.9760,0.1810,1.487
1.2070,1.8550,-1.5080,-0.1680,2.397
1.2150,1.8590,-1.7190,-0.4150,2.566
1.2270,0.8760,-1.4460,-0.2170,1.705
1.2350,-0.1740,-1.0420,0.2240,1.080
1.2470,-0.6640,-0.9680,0.7680,1.403
1.2650,-0.6990,-1.1620,1.2690,1.857
1.2660,-0.7380,-1.1310,1.6310,2.118
1.2760,-1.0040,-0.9650,1.8650,2.328
1.2870,-1.1570,-0.8290,1.8480,2.333
1.2950,-1.3690,-0.6170,1.6490,2.230
1.3080,-1.5380,-0.5310,1.3910,2.141
1.3160,-1.4530,-0.6070,1.0940,1.917
1.3270,-1.2920,-0.6310,0.9030,1.698
1.3380,-1.1060,-0.5750,0.7670,1.464
1.3450,-0.6700,-0.5930,0.7380,1.160
1.3670,-0.2970,-0.8730,0.6770,1.144
1.3670,-0.0470,-1.0670,0.6800,1.266
1.3760,0.3250,-1.1490,0.7030,1.386
1.3870,0.6780,-1.1960,0.7870,1.584
1.3950,0.8080,-1.1170,0.8460,1.617
1.4070,0.7400,-0.8520,0.9830,1.497
1.4150,0.6920,-0.6740,1.2410,1.573
1.4260,0.6140,-0.6380,1.5750,1.807
1.4350,0.5830,-0.5940,1.8570,2.035
1.4470,0.5360,-0.7190,1.9550,2.151
1.4550,0.3150,-0.9960,1.9310,2.195
1.4700,-0.0680,-1.4080,1.7850,2.274
1.4760,-0.6150,-1.7400,1.5280,2.396
1.4850,-1.2940,-1.9730,1.1310,2.617
1.4960,-1.8430,-2.2860,0.6400,3.005
1.5060,-2.1580,-2.7080,0.0750,3.464
1.5150,-2.3360,-3.0410,-0.4840,3.865
1.5250,-2.3290,-3.1140,-0.8360,3.977
1.5370,-2.1530,-3.0640,-0.9530,3.864
1.5460,-1.7990,-3.0410,-0.9850,3.668
1.5620,-1.2180,-3.2540,-0.9360,3.598
1.5650,-0.5890,-3.5790,-0.7790,3.710
1.5760,0.1120,-3.9210,-0.5990,3.968
1.5850,0.6770,-4.1860,-0.4890,4.268
1.5950,1.0290,-4.2930,-0.5360,4.447
1.6050,1.2070,-4.4400,-0.7340,4.659
1.6150,1.1470,-4.5610,-0.8270,4.775
1.6280,0.4620,-4.5020,-0.8310,4.601
1.6350,-0.5280,-3.8590,-0.4930,3.926
1.6500,-1.6640,-2.7640,0.1280,3.229
1.6550,-2.5840,-1.8420,0.5470,3.220
1.6650,-2.8910,-0.9810,0.8580,3.171
1.6760,-2.7680,-0.1580,1.2620,3.046
1.6850,-2.4940,0.5380,1.6650,3.047
1.6950,-2.2340,1.0730,1.9740,3.168
1.7060,-1.8440,1.3290,2.1930,3.158
1.7160,-1.3950,1.4130,2.3370,3.067
1.7250,-0.8810,1.4880,2.4370,2.988
1.7380,-0.2770,1.4750,2.3210,2.764
1.7450,0.2870,1.2430,1.9670,2.344
1.7760,0.6620,0.8670,1.4930,1.849
1.7760,0.8730,0.5120,0.9920,1.417
1.7760,0.8780,0.2810,0.4950,1.046
1.7860,0.7940,0.2110,0.0580,0.824
1.7960,0.7090,0.2040,-0.2420,0.776
1.8070,0.6920,0.2400,-0.4040,0.836
1.8160,0.8460,0.2710,-0.3540,0.956
1.8250,1.0250,0.4500,-0.2040,1.138
1.8370,0.8950,0.3580,-0.0300,0.964
1.8460,0.4650,0.3470,0.1820,0.608
1.8680,0.2780,0.6480,0.6120,0.934
1.8690,0.0120,0.8930,1.1240,1.436
1.8740,-0.1290,1.0360,1.4210,1.763
1.8850,-0.1420,0.9970,1.5760,1.870
1.8960,-0.1730,0.9800,1.6640,1.939
1.9060,-0.1630,1.0270,1.7300,2.018
1.9150,-0.1800,1.0200,1.8520,2.122
1.9250,-0.3030,1.0170,1.9260,2.199
1.9370,-0.3620,1.0420,1.9490,2.240
1.9460,-0.4060,0.8300,1.9720,2.178
1.9610,-0.5530,0.5990,2.1110,2.263
1.9640,-0.7070,0.5460,2.3420,2.507
1.9750,-0.8410,0.5500,2.5330,2.725
1.9850,-0.8230,0.4950,2.6540,2.822
1.9960,-0.6150,0.3320,2.7230,2.811
2.0050,-0.4350,0.2800,2.8120,2.859
2.0160,-0.3800,0.3460,2.9410,2.986
2.0250,-0.3450,0.3700,3.1910,3.231
2.0370,-0.1510,0.3270,3.5450,3.563
2.0450,0.2170,0.2820,3.9120,3.928
2.0620,0.6240,0.2930,4.2800,4.335
2.0640,1.0530,0.3510,4.6130,4.745
2.0760,1.4780,0.3600,4.9040,5.135
2.0870,1.8560,0.2360,5.1010,5.433
2.0940,2.2260,0.0030,5.1820,5.640
2.1060,2.5880,-0.2640,5.0990,5.724
2.1150,2.8090,-0.5530,4.9170,5.690
2.1250,2.9600,-0.8470,4.7520,5.662
2.1360,2.9860,-1.0030,4.5890,5.566
2.1450,3.1130,-1.1610,4.3850,5.502
2.1620,3.2830,-1.3960,4.1850,5.499
2.1640,3.4860,-1.8290,3.9460,5.574
2.1750,3.6900,-2.2860,3.7010,5.704
2.1850,3.8070,-2.5250,3.5290,5.773
2.1950,3.7540,-2.4490,3.3940,5.622
2.2060,3.5770,-2.1240,3.3070,5.314
2.2140,3.3470,-1.6290,3.3380,5.000
2.2260,3.1080,-1.0460,3.4480,4.758
2.2350,2.9520,-0.4060,3.6150,4.685
2.2460,2.7250,0.0630,3.6630,4.566
2.2540,2.5020,0.3090,3.5670,4.368
2.2660,2.4480,0.3890,3.4800,4.273
2.2750,2.4800,0.3720,3.3300,4.169
2.2870,2.4650,0.2210,3.0840,3.954
2.2950,2.3940,-0.1090,2.7990,3.685
2.3050,2.2480,-0.6120,2.7700,3.620
2.3150,1.7170,-1.2210,3.4240,4.020
2.3250,1.3680,-1.8780,2.2860,3.259
2.3350,1.1380,-2.7800,0.8210,3.114
2.3450,0.8200,-3.8020,-0.2910,3.900
2.3660,0.3010,-4.4490,-0.7310,4.519
2.3670,-0.0130,-5.1230,-1.0340,5.226
2.3750,0.0230,-5.5640,-1.1360,5.679
2.3850,0.0120,-5.5680,-1.1410,5.684
2.3950,-0.3930,-5.4310,-0.8860,5.517
2.4050,-0.6800,-4.8740,-0.4680,4.943
2.4150,-1.0720,-4.1980,0.1000,4.334
2.4240,-1.5430,-3.5800,0.5100,3.932
2.4350,-1.9530,-3.0890,0.7770,3.736
2.4460,-2.1550,-2.6630,0.9890,3.566
2.4650,-2.3870,-2.3120,1.1520,3.517
2.4660,-2.6460,-1.9860,1.2010,3.520
2.4750,-2.8200,-1.7990,1.1150,3.526
2.4880,-2.8720,-1.7550,0.8870,3.481
2.4950,-2.9590,-1.7910,0.5480,3.502
2.5060,-3.1460,-1.8350,0.2350,3.650
2.5150,-3.3000,-1.9330,-0.0900,3.826
2.5260,-3.4740,-2.0980,-0.4570,4.084
2.5360,-3.6550,-2.2740,-0.8060,4.379
2.5450,-3.9190,-2.3920,-1.1440,4.732
2.5630,-4.2940,-2.4280,-1.4920,5.154
2.5640,-4.6450,-2.5790,-1.8100,5.613
2.5750,-4.9450,-2.7260,-2.0100,5.994
2.5860,-5.1860,-2.8050,-2.0870,6.254
2.5960,-5.4090,-2.8280,-1.9810,6.417
2.6040,-5.5690,-2.7020,-1.8660,6.465
2.6150,-5.5960,-2.5980,-1.7250,6.406
2.6240,-5.7680,-2.5390,-1.7270,6.534
2.6350,-5.8570,-2.5420,-1.8680,6.652
2.6450,-5.8540,-2.6420,-2.1040,6.758
2.6620,-5.8870,-2.7720,-2.3560,6.920
2.6650,-5.8650,-2.9520,-2.5630,7.049
2.6740,-5.8230,-3.1770,-2.7400,7.177
2.6850,-5.8510,-3.3720,-2.8860,7.344
2.6950,-5.8520,-3.5340,-2.8560,7.409
2.7040,-5.8290,-3.6450,-2.7250,7.395
2.7140,-5.7060,-3.6180,-2.5110,7.208
2.7310,-5.4190,-3.5160,-2.2150,6.829
2.7350,-4.9790,-3.5120,-1.8680,6.373
2.7470,-4.4260,-3.6520,-1.5550,5.945
2.7680,-3.8420,-3.8960,-1.3570,5.637
2.7680,-3.2130,-4.2850,-1.3870,5.532
2.7750,-2.7200,-4.7610,-1.6000,5.712
2.7860,-2.5420,-5.1110,-1.9280,6.025
2.7950,-2.5570,-5.1980,-2.2200,6.204
2.8050,-2.6600,-5.1860,-2.4220,6.312
2.8160,-2.7100,-5.1360,-2.4280,6.294
2.8260,-2.7420,-4.9800,-2.2620,6.118
2.8350,-2.7100,-4.4410,-2.0440,5.590
2.8450,-2.6240,-3.5490,-1.8020,4.767
2.8620,-2.5010,-2.6700,-1.5100,3.958
2.8650,-2.3030,-1.9850,-1.2700,3.295
2.8750,-1.9640,-1.6000,-1.0700,2.750
2.8870,-1.4190,-1.5390,-1.0010,2.320
2.8950,-0.7220,-1.7130,-0.9370,2.082
2.9050,-0.1340,-1.9280,-0.8980,2.131
2.9140,0.3120,-1.9840,-0.9260,2.212
2.9250,0.6690,-2.0090,-0.9930,2.339
2.9350,0.9930,-2.2570,-1.0800,2.692
2.9460,1.2210,-2.6720,-1.0820,3.131
2.9710,1.3200,-3.0810,-0.9630,3.487
2.9710,1.3190,-3.3850,-0.6770,3.695
2.9740,1.3310,-3.4410,-0.2560,3.698
2.9870,1.3720,-3.2290,0.2990,3.521
2.9950,1.4470,-2.8160,0.8730,3.284
3.0040,1.5580,-2.3780,1.5010,3.215
3.0150,1.6570,-1.8670,2.0620,3.238
3.0240,1.6780,-1.1960,2.4970,3.237
3.0360,1.6650,-0.4660,2.8040,3.294
3.0450,1.6210,0.1300,2.9050,3.329
3.0610,1.7000,0.5480,2.8610,3.373
3.0640,1.8260,0.8340,2.7380,3.395
3.0750,1.9470,1.0420,2.6030,3.414
3.0840,2.0820,1.2140,2.4540,3.440
3.0940,2.2300,1.3550,2.2510,3.446
3.1060,2.3920,1.3960,2.0330,3.436
3.1140,2.5150,1.3860,1.8110,3.395
3.1250,2.5440,1.3390,1.6220,3.301
3.1340,2.4770,1.1920,1.4850,3.124
3.1460,2.2700,1.0890,1.4030,2.882
3.1580,2.0610,0.9540,1.4510,2.695
3.1640,2.0080,0.5940,1.4740,2.561
3.1740,1.9930,0.3890,1.5830,2.575
3.1870,2.0050,0.2410,1.8750,2.756
3.1940,2.1360,0.1610,2.2480,3.105
3.2040,2.2840,0.2550,2.6880,3.537
3.2140,2.4550,0.3860,3.1360,4.001
3.2250,2.6580,0.5070,3.5140,4.435
3.2350,2.8920,0.6570,3.7630,4.791
3.2450,3.1560,0.8010,3.9440,5.114
3.2660,3.4440,0.9650,4.0780,5.424
3.2670,3.7050,1.1290,4.2570,5.755
3.2760,4.0060,1.1860,4.3500,6.031
3.2870,4.3560,1.0770,4.4000,6.284
3.2940,4.5630,0.9890,4.5230,6.501
3.3050,4.7150,0.9080,4.5820,6.637
3.3150,4.8620,0.8060,4.5570,6.712
3.3250,4.9640,0.5910,4.3370,6.618
3.3340,5.0340,0.1850,3.9690,6.413
3.3450,5.0460,-0.4320,3.5920,6.209
3.3610,5.0130,-1.0830,3.2640,6.079
3.3650,4.8730,-1.6190,3.0350,5.965
3.3740,4.7120,-1.9800,2.8830,5.868
3.3860,4.4480,-2.0590,2.7840,5.637
3.3940,4.2530,-2.1000,2.7830,5.499
3.4050,4.1430,-2.0390,2.8880,5.446
3.4140,4.0700,-1.7950,3.1060,5.425
3.4260,3.9660,-1.3990,3.4240,5.423
3.4380,3.7980,-0.7980,3.8220,5.447
3.4440,3.5490,-0.1610,4.1730,5.480
3.4620,3.2780,0.4300,4.4120,5.513
3.4650,3.0280,0.8980,4.5100,5.506
3.4750,2.8230,1.2410,4.4300,5.398
3.4860,2.6750,1.3210,4.1600,5.119
3.4950,2.5340,1.0620,3.6730,4.587
3.5050,2.3070,0.6060,3.0250,3.852
3.5140,1.9960,0.1510,2.3080,3.055
3.5240,1.7460,-0.3250,1.6620,2.432
3.5380,1.4610,-0.8910,1.0540,2.010
3.5440,1.1310,-1.5120,0.5500,1.967
3.5600,0.8130,-2.2930,0.1280,2.436
3.5640,0.3140,-2.9200,-0.2210,2.945
3.5740,-0.2000,-3.3740,-0.4580,3.411
3.5840,-0.6500,-3.5710,-0.6400,3.686
3.5940,-0.9310,-3.6500,-0.7400,3.839
3.6040,-1.2420,-3.5650,-0.8740,3.875
3.6150,-1.4500,-3.4610,-0.9760,3.877
3.6270,-1.5200,-3.1150,-0.9020,3.582
3.6360,-1.5420,-2.7310,-0.6130,3.196
3.6440,-1.5680,-2.3700,-0.2160,2.850
3.6640,-1.5100,-2.0310,0.1960,2.538
3.6640,-1.4010,-1.8000,0.4910,2.333
3.6740,-1.3470,-1.6490,0.6390,2.223
3.6850,-1.3550,-1.5580,0.6420,2.162
3.6950,-1.4300,-1.5730,0.4890,2.181
3.7050,-1.5560,-1.6510,0.1830,2.276
3.7150,-1.7210,-1.7270,-0.2040,2.447
3.7250,-1.9230,-1.8140,-0.5780,2.706
3.7340,-2.1140,-1.9150,-0.8330,2.972
3.7450,-2.3450,-1.9190,-0.9660,3.180
3.7650,-2.6010,-1.8820,-1.0040,3.364
3.7650,-2.8500,-1.8840,-1.0290,3.568
3.7740,-2.9920,-1.8950,-1.0800,3.703
3.7840,-3.1270,-1.9100,-1.1430,3.838
3.7940,-3.2430,-1.9270,-1.2190,3.964
3.8060,-3.3680,-1.9530,-1.3160,4.110
3.8160,-3.5160,-1.9160,-1.3970,4.241
3.8250,-3.6930,-1.9520,-1.5200,4.445
3.8380,-3.8400,-2.0900,-1.7200,4.698
3.8450,-4.0350,-2.2480,-1.9600,5.018
3.8670,-4.2940,-2.3830,-2.1730,5.370
3.8680,-4.6360,-2.4820,-2.3680,5.767
3.8760,-4.9890,-2.5840,-2.5830,6.184
3.8850,-5.2750,-2.7800,-2.8820,6.623
3.8950,-5.4380,-3.0240,-3.1540,6.976
3.9050,-5.5000,-3.2550,-3.3260,7.205
3.9140,-5.5230,-3.3370,-3.2980,7.247
3.9240,-5.4790,-3.3770,-3.1370,7.160
3.9430,-5.2190,-3.3600,-2.8980,6.850
3.9430,-4.6900,-3.3870,-2.7230,6.394
3.9630,-3.9400,-3.4880,-2.6290,5.882
3.9640,-3.1930,-3.7360,-2.7070,5.611
3.9740,-2.5800,-4.1600,-2.9510,5.716
3.9850,-2.2120,-4.7990,-3.3390,6.251
3.9940,-2.2870,-5.3010,-3.6730,6.843
4.0040,-2.5180,-5.6470,-3.8510,7.284
4.0140,-2.7720,-5.7160,-3.7730,7.389
4.0290,-3.0850,-5.4780,-3.4280,7.161
4.0330,-3.3490,-4.8080,-2.8440,6.513
4.0440,-3.4700,-3.8870,-2.1860,5.651
4.0660,-3.3310,-2.9200,-1.5980,4.709
4.0670,-2.9270,-2.0610,-1.0790,3.739
4.0750,-2.4220,-1.3510,-0.6660,2.852
4.0840,-1.8020,-0.9270,-0.4650,2.079
4.0930,-1.0910,-0.7530,-0.3770,1.378
4.1040,-0.3900,-0.6930,-0.4080,0.894
4.1130,0.1870,-0.6190,-0.4590,0.793
4.1240,0.6550,-0.5380,-0.5180,0.993
4.1380,1.0490,-0.5920,-0.6070,1.349
4.1440,1.4160,-0.8200,-0.7520,1.801
4.1600,1.7100,-1.1770,-0.8810,2.255
4.1630,1.8300,-1.6030,-0.8780,2.586
4.1740,1.7840,-1.9770,-0.7550,2.768
4.1850,1.6080,-2.2420,-0.5270,2.809
4.1940,1.3230,-2.2160,-0.1800,2.587
4.2040,1.0120,-1.9320,0.1670,2.187
4.2150,0.6570,-1.5160,0.4200,1.705
4.2240,0.3330,-1.0070,0.5790,1.208
4.2370,0.0670,-0.5230,0.6810,0.861
4.2440,-0.1350,-0.0640,0.7950,0.809
4.2640,-0.2400,0.3590,0.8620,0.964
4.2660,-0.1540,0.6740,0.8700,1.111
4.2740,0.0970,0.8710,0.8710,1.236
4.2850,0.4350,1.0100,0.8580,1.395
4.2950,0.7400,1.1080,0.8530,1.582
4.3040,0.9960,1.1310,0.9420,1.777
4.3130,1.2410,1.0380,1.0790,1.945
4.3230,1.3980,0.9510,1.2240,2.087
4.3370,1.4330,0.7820,1.3750,2.134
4.3440,1.4460,0.5300,1.5510,2.186
4.3670,1.4400,0.3050,1.7050,2.252
4.3670,1.4670,0.1450,1.8390,2.357
4.3750,1.5480,-0.0110,1.9370,2.480
4.3850,1.6410,-0.1590,2.0670,2.644
4.3940,1.7510,-0.1950,2.2230,2.837
4.4030,1.8860,-0.0960,2.4960,3.130
4.4140,2.0730,0.0760,2.7610,3.453
4.4240,2.2230,0.2260,2.9540,3.704
4.4370,2.3940,0.3820,3.0880,3.926
4.4440,2.6330,0.4570,3.2040,4.172
4.4600,2.8530,0.5410,3.2810,4.381
4.4630,3.1000,0.5390,3.3830,4.620
4.4750,3.3470,0.3890,3.5020,4.860
4.4850,3.5200,0.2430,3.6060,5.045
4.4930,3.6160,0.0950,3.6280,5.123
4.5040,3.6720,-0.0100,3.5670,5.119
4.5170,3.7050,-0.1270,3.4590,5.070
4.5250,3.7270,-0.3520,3.3490,5.023
4.5370,3.7950,-0.6900,3.2390,5.037
4.5430,3.8920,-1.1520,3.1650,5.147
4.5680,4.0340,-1.7120,3.1220,5.381
4.5690,4.1280,-2.1720,3.2170,5.666
4.5730,4.1720,-2.2570,3.4060,5.840
4.5830,4.2670,-2.0720,3.6720,5.999
4.5950,4.4000,-1.7700,4.0040,6.207
4.6040,4.4600,-1.4070,4.3180,6.365
4.6130,4.3740,-0.9280,4.5870,6.406
4.6240,4.2730,-0.3210,4.7650,6.408
4.6370,4.2660,0.3090,4.8800,6.489
4.6430,4.2600,0.9360,4.9110,6.568
4.6600,4.2960,1.4480,4.8490,6.638
4.6630,4.3970,1.7230,4.6730,6.644
4.6730,4.4650,1.7120,4.3440,6.460
4.6850,4.3810,1.5050,3.9520,6.089
4.6930,4.1810,1.1420,3.4660,5.550
4.7030,3.8250,0.6870,2.9210,4.862
4.7140,3.4440,0.1480,2.4120,4.207
4.7240,3.1430,-0.5070,1.9400,3.728
4.7400,2.8250,-1.2570,1.5450,3.457
4.7430,2.3130,-1.9160,1.2720,3.262
4.7570,1.7140,-2.4430,1.1450,3.196
4.7630,1.0180,-2.8260,1.1030,3.200
4.7740,0.3180,-3.0370,1.0810,3.239
4.7840,-0.2370,-3.1140,1.0340,3.290
4.7930,-0.6540,-3.0590,1.0330,3.294
4.8040,-0.9670,-2.8940,1.0970,3.242
4.8140,-1.2130,-2.6400,1.1980,3.143
4.8230,-1.4250,-2.3130,1.3020,3.013
4.8370,-1.5920,-2.0810,1.3320,2.939
4.8430,-1.7270,-1.8130,1.2920,2.818
4.8600,-1.8410,-1.5870,1.2260,2.722
4.8630,-1.9130,-1.4210,1.0370,2.599
4.8730,-2.0440,-1.3120,0.8140,2.562
4.8840,-2.1650,-1.2850,0.5530,2.578
4.8940,-2.2860,-1.2220,0.3420,2.615
4.9030,-2.4130,-1.1880,0.0970,2.691
4.9140,-2.5400,-1.2480,-0.1530,2.834
4.9230,-2.5780,-1.3370,-0.4720,2.942
4.9360,-2.6100,-1.4220,-0.8010,3.078
4.9430,-2.6630,-1.4810,-1.0760,3.232
4.9620,-2.7670,-1.6360,-1.2840,3.461
4.9630,-2.9240,-1.7610,-1.4520,3.709
4.9730,-3.0380,-1.9370,-1.5730,3.931
4.9840,-3.1600,-2.0300,-1.7850,4.158
4.9930,-3.3520,-2.0740,-1.8590,4.358
5.0040,-3.4830,-2.1930,-1.8530,4.514
5.0130,-3.6440,-2.3020,-1.7850,4.665
5.0230,-3.8520,-2.3580,-1.6430,4.806
5.0370,-3.9620,-2.3750,-1.5010,4.857
5.0430,-4.0190,-2.3820,-1.4400,4.889
5.0680,-4.0540,-2.4710,-1.4620,4.968
5.0680,-4.1240,-2.5740,-1.5450,5.101
5.0730,-4.2170,-2.7780,-1.7090,5.331
5.0840,-4.2880,-3.0210,-1.8630,5.566
5.0920,-4.4010,-3.2100,-1.9700,5.793
5.1030,-4.5540,-3.2910,-2.0050,5.966
5.1130,-4.6780,-3.2540,-1.9740,6.031
5.1230,-4.6160,-3.1470,-1.8590,5.888
5.1370,-4.2960,-3.0800,-1.6660,5.542
5.1430,-3.7770,-3.1520,-1.4520,5.129
5.1590,-3.2490,-3.3800,-1.3310,4.874
5.1630,-2.7630,-3.7100,-1.3510,4.819
5.1730,-2.5300,-3.9580,-1.5340,4.942
5.1840,-2.5510,-4.0160,-1.8290,5.097
5.1930,-2.6070,-4.1220,-2.1850,5.344
5.2040,-2.5580,-4.2750,-2.5350,5.590
5.2130,-2.4380,-4.3720,-2.8480,5.759
5.2230,-2.4010,-4.2500,-3.0970,5.781
5.2340,-2.6270,-3.8160,-3.2020,5.632
5.2430,-2.9330,-3.1150,-3.0350,5.246
5.2550,-3.0830,-2.3680,-2.5340,4.640
5.2640,-2.9770,-1.7220,-1.8440,3.902
5.2740,-2.7210,-1.2140,-1.2070,3.215
5.2830,-2.2410,-0.8330,-0.6980,2.491
5.2930,-1.6550,-0.5670,-0.3700,1.788
5.3040,-1.0670,-0.4280,-0.2540,1.177
5.3130,-0.5490,-0.4020,-0.2360,0.720
5.3230,-0.1960,-0.4590,-0.2350,0.552
5.3330,0.0860,-0.5910,-0.2120,0.634
5.3430,0.3440,-0.8530,-0.1860,0.938
5.3530,0.5540,-1.1970,-0.1570,1.328
5.3630,0.7830,-1.5580,-0.1930,1.754
5.3720,0.9460,-1.8340,-0.2230,2.076
5.3910,0.9460,-1.9100,-0.1720,2.138
5.3920,0.8440,-1.7990,-0.0320,1.987
5.4050,0.6630,-1.5620,0.0770,1.699
5.4120,0.4260,-1.2150,0.1830,1.300
5.4230,0.1700,-0.6940,0.3690,0.804
5.4330,-0.0600,-0.1330,0.4980,0.519
5.4430,-0.1620,0.2560,0.5550,0.632
5.4530,-0.0780,0.4610,0.5970,0.758
5.4630,0.0980,0.6070,0.6280,0.879
5.4730,0.3000,0.7400,0.6480,1.028
5.4940,0.5110,0.8320,0.6680,1.183
5.4940,0.6460,0.8530,0.7180,1.289
5.5020,0.7690,0.7720,0.7810,1.341
5.5140,0.8460,0.7280,0.9100,1.440
5.5250,0.9450,0.6220,1.0630,1.552
5.5350,0.9840,0.5160,1.2320,1.659
5.5430,1.0240,0.3800,1.3770,1.758
5.5570,1.0770,0.2100,1.5000,1.859
5.5620,1.1800,0.0830,1.6340,2.017
5.5730,1.3390,0.0310,1.7910,2.236
5.5830,1.5160,0.0470,1.9370,2.460
5.5930,1.7490,0.1050,2.0660,2.709
5.6040,2.0380,0.2050,2.1760,2.988
5.6130,2.2080,0.3540,2.2200,3.151
5.6220,2.3610,0.4480,2.0620,3.167
5.6330,2.6800,0.5220,1.8680,3.308
5.6420,3.1180,0.6370,1.7870,3.650
5.6530,3.5850,0.7480,1.9490,4.149
5.6630,3.9020,0.7770,2.3440,4.618
5.6730,4.0950,0.7530,2.9410,5.098
5.6840,4.2860,0.6870,3.5730,5.622
5.6930,4.5220,0.5250,4.0910,6.120
5.7030,4.7410,0.3300,4.4790,6.530
5.7130,4.8580,0.1280,4.7360,6.786
5.7230,4.8990,-0.0580,4.8380,6.885
5.7320,4.9350,-0.2660,4.7450,6.851
5.7440,4.8030,-0.5240,4.4850,6.592
5.7540,4.5700,-0.8270,4.0930,6.190
5.7630,4.3870,-1.3570,3.6110,5.842
5.7790,4.2150,-1.9480,3.1760,5.626
5.7820,3.9510,-2.1650,3.0000,5.413
5.7920,3.6780,-2.1470,3.0650,5.247
5.8040,3.4050,-1.8220,3.2610,5.054
5.8130,3.1980,-1.3650,3.5500,4.969
5.8220,3.0140,-0.7940,3.7720,4.893
5.8320,2.9250,-0.1300,3.8930,4.871
5.8430,2.8310,0.5740,3.9680,4.908
5.8530,2.7450,1.1680,3.9970,4.988
5.8640,2.7340,1.5790,3.9370,5.047
5.8720,2.7260,1.7060,3.7310,4.926
5.8820,2.7520,1.5250,3.4310,4.655
5.8930,2.7190,1.1600,3.0880,4.275
5.9030,2.5460,0.7040,2.7670,3.825
5.9140,2.3010,0.2330,2.4060,3.337
5.9270,2.1620,-0.3180,2.0550,3.000
5.9360,2.0540,-1.0080,1.7280,2.867
5.9420,1.8730,-1.8090,1.5050,3.008
5.9550,1.5940,-2.4850,1.4400,3.285
5.9650,1.2220,-3.0050,1.4370,3.548
5.9720,0.7540,-3.2830,1.5190,3.695
5.9830,0.2990,-3.3300,1.6850,3.744
5.9920,-0.1470,-3.2020,1.8930,3.723
6.0030,-0.5190,-2.8880,2.1410,3.632
6.0130,-0.8500,-2.4070,2.3440,3.466
6.0230,-1.1710,-1.8860,2.4020,3.271
6.0360,-1.4110,-1.4640,2.2900,3.062
6.0430,-1.5490,-1.1130,2.1290,2.858
6.0530,-1.6470,-0.8290,1.9390,2.676
6.0630,-1.7410,-0.6600,1.7410,2.549
6.0720,-1.8380,-0.5640,1.5710,2.483
6.0950,-1.8710,-0.5460,1.3820,2.389
6.0960,-1.8900,-0.6100,1.1620,2.301
6.1020,-1.9290,-0.7230,0.9170,2.255
6.1140,-2.0180,-0.9070,0.6790,2.314
6.1220,-2.1370,-1.1090,0.4740,2.454
6.1330,-2.3410,-1.2930,0.2800,2.689
6.1430,-2.5010,-1.4790,0.0840,2.907
6.1520,-2.6360,-1.7470,-0.0960,3.164
6.1640,-2.8080,-1.9760,-0.2800,3.445
6.1720,-3.0100,-2.1680,-0.4460,3.736
6.1910,-3.1310,-2.3390,-0.5910,3.953
6.1920,-3.2390,-2.4540,-0.7420,4.131
6.2030,-3.3400,-2.5310,-0.9100,4.288
6.2120,-3.4040,-2.6190,-1.0630,4.425
6.2220,-3.4720,-2.6620,-1.1670,4.528
6.2320,-3.5100,-2.6710,-1.3050,4.600
6.2430,-3.5770,-2.7060,-1.4960,4.728
6.2520,-3.6710,-2.7420,-1.7190,4.894
6.2620,-3.7040,-2.8200,-1.8770,5.019
6.2850,-3.6920,-2.9380,-2.0180,5.132
6.2860,-3.7290,-3.1240,-2.1500,5.319
6.2920,-3.8160,-3.2380,-2.2300,5.479
6.3030,-3.9110,-3.2480,-2.2160,5.546
6.3130,-4.0670,-3.1730,-2.1400,5.585
6.3230,-4.2210,-3.0280,-1.9810,5.560
6.3320,-4.2290,-2.9390,-1.8210,5.462
6.3460,-4.0090,-3.0000,-1.6540,5.273
6.3530,-3.5800,-3.2350,-1.6220,5.090
6.3660,-3.0430,-3.5950,-1.7890,5.038
6.3800,-2.5540,-4.0990,-2.1670,5.293
6.3870,-2.4120,-4.4210,-2.5670,5.653
6.3920,-2.6030,-4.3760,-2.9300,5.875
6.4130,-2.7970,-4.1610,-3.1960,5.946
6.4130,-2.9980,-3.9910,-3.4290,6.056
6.4230,-3.2360,-3.7130,-3.6000,6.101
6.4320,-3.4330,-3.2150,-3.6360,5.945
6.4430,-3.5250,-2.5040,-3.3760,5.486
6.4520,-3.3950,-1.7660,-2.8740,4.786
6.4620,-3.1040,-1.0150,-2.2420,3.961
6.4720,-2.6860,-0.3880,-1.6620,3.182
6.4960,-2.1150,-0.0390,-1.2290,2.446
6.4960,-1.3920,0.0300,-1.0690,1.755
6.5020,-0.6740,-0.0680,-1.0060,1.213
6.5120,-0.1380,-0.2410,-1.0390,1.075
6.5220,0.2540,-0.4840,-1.1470,1.271
6.5320,0.4810,-0.7930,-1.2510,1.557
6.5420,0.6800,-1.1960,-1.3720,1.943
6.5530,0.8490,-1.6450,-1.4930,2.378
6.5620,0.9770,-1.9820,-1.5300,2.688
6.5720,0.9870,-2.1800,-1.4220,2.784
6.5920,0.8820,-2.2620,-1.2250,2.719
6.5930,0.7490,-2.1610,-0.9710,2.485
6.6020,0.5780,-1.9080,-0.6570,2.099
6.6120,0.4040,-1.5390,-0.3570,1.631
6.6220,0.1990,-1.1240,-0.0560,1.143
6.6320,-0.0100,-0.6160,0.1880,0.644
6.6420,-0.0620,-0.1650,0.4090,0.445
6.6520,-0.0050,0.1830,0.5970,0.624
6.6620,0.0280,0.4830,0.7130,0.862
6.6720,0.0650,0.7570,0.7580,1.073
6.6930,0.1760,0.9370,0.7520,1.214
6.6930,0.3580,1.0090,0.7270,1.294
6.7020,0.5210,1.0030,0.6540,1.306
6.7120,0.6820,0.9660,0.5720,1.314
6.7220,0.7320,0.8570,0.5050,1.235
6.7310,0.6710,0.6950,0.4310,1.058
6.7420,0.6550,0.4620,0.3860,0.890
6.7520,0.7180,0.2220,0.4010,0.852
6.7610,0.7630,-0.0340,0.4510,0.887
6.7810,0.8910,-0.2840,0.5960,1.109
6.7810,1.0970,-0.5140,0.8420,1.475
6.7920,1.3280,-0.5960,1.2050,1.890
6.8020,1.5720,-0.5900,1.5860,2.310
6.8150,1.8700,-0.5370,1.9410,2.748
6.8210,2.0680,-0.3810,2.2400,3.072
6.8310,2.3030,-0.2020,2.5650,3.453
6.8420,2.5730,-0.0090,2.8190,3.817
6.8510,2.8150,0.1980,3.0440,4.151
6.8620,3.0550,0.3680,3.2760,4.495
6.8750,3.3560,0.4730,3.4710,4.851
6.8820,3.7030,0.5140,3.6170,5.202
6.8920,4.1050,0.5020,3.7090,5.555
6.9020,4.5160,0.4870,3.7360,5.881
6.9120,4.8510,0.5150,3.7770,6.170
6.9220,5.0510,0.4630,3.7770,6.324
6.9320,5.2410,0.2610,3.7470,6.448
6.9420,5.4110,-0.0580,3.7280,6.571
6.9510,5.6010,-0.5080,3.6350,6.696
6.9620,5.6780,-1.0890,3.5060,6.761
6.9710,5.6400,-1.6420,3.4580,6.816
6.9950,5.5000,-1.9640,3.5070,6.812
6.9960,5.3560,-1.9080,3.6810,6.773
7.0010,5.1920,-1.5740,3.8850,6.673
7.0120,5.0140,-1.0100,4.0990,6.555
7.0210,4.8440,-0.3270,4.3190,6.498
7.0320,4.6980,0.4230,4.5060,6.523
7.0410,4.6000,1.1230,4.6200,6.616
7.0510,4.6030,1.6210,4.6390,6.733
7.0610,4.6870,1.7810,4.5060,6.741
7.0820,4.7590,1.6630,4.2470,6.592
7.0820,4.6880,1.2950,3.8630,6.211
7.0920,4.3470,0.7890,3.3990,5.574
7.1020,3.9020,0.2410,2.9150,4.877
7.1120,3.5520,-0.4120,2.5000,4.363
7.1220,3.1400,-1.1010,2.1760,3.976
7.1310,2.6470,-1.7750,1.9160,3.719
7.1410,2.0400,-2.4110,1.7600,3.616
7.1520,1.4290,-2.8550,1.7110,3.622
7.1610,0.8610,-3.1440,1.7110,3.682
7.1720,0.3950,-3.2770,1.7770,3.749
7.1980,0.0050,-3.1620,1.8820,3.680
7.1980,-0.5120,-2.9130,1.9140,3.523
7.2010,-0.8610,-2.5200,1.9450,3.298
7.2120,-1.1280,-1.9990,2.0350,3.068
7.2210,-1.3340,-1.4990,2.1320,2.928
7.2310,-1.5260,-1.0620,2.1640,2.853
7.2410,-1.6500,-0.7110,2.1460,2.799
7.2520,-1.6470,-0.4900,2.0590,2.682
7.2620,-1.5980,-0.3780,1.9200,2.526
7.2710,-1.5560,-0.3430,1.7170,2.342
7.3020,-1.5680,-0.3740,1.4320,2.156
7.3030,-1.5640,-0.4330,1.1030,1.962
7.3030,-1.5790,-0.5210,0.7760,1.835
7.3120,-1.6130,-0.6740,0.3730,1.788
7.3210,-1.7010,-0.9070,-0.0440,1.928
7.3320,-1.8130,-1.1100,-0.4580,2.175
7.3410,-1.9540,-1.3250,-0.7630,2.481
7.3510,-2.0620,-1.5380,-0.9690,2.749
7.3620,-2.2110,-1.7020,-1.0990,2.999
7.3710,-2.2630,-1.7640,-1.0500,3.055
7.4040,-2.2340,-2.0270,-1.0080,3.180
7.4050,-2.3350,-2.0580,-0.8760,3.233
7.4050,-2.4540,-2.1070,-0.6400,3.297
7.4120,-2.4960,-2.2230,-0.4230,3.369
7.4210,-2.5110,-2.4040,-0.2710,3.487
7.4320,-2.5370,-2.6880,-0.2320,3.703
7.4410,-2.7300,-2.9560,-0.3870,4.042
7.4510,-3.0630,-3.1730,-0.6940,4.464
7.4620,-3.4170,-3.4530,-1.0020,4.960
7.4710,-3.8310,-3.7720,-1.3180,5.535
7.5010,-4.3370,-3.8200,-1.5880,5.994
7.5010,-4.8170,-3.6170,-1.9170,6.321
7.5020,-5.0750,-3.3920,-2.1380,6.468
7.5120,-5.1270,-3.1800,-2.2500,6.439
7.5210,-5.0340,-3.0520,-2.3080,6.323
7.5310,-4.8330,-3.0930,-2.3500,6.201
7.5410,-4.4490,-3.5740,-2.5070,6.233
7.5520,-4.0320,-4.3080,-2.6960,6.487
7.5620,-3.8000,-4.8050,-2.9730,6.809
7.5710,-3.9380,-4.8310,-3.0380,6.934
7.6010,-4.0410,-4.7330,-3.0760,6.942
7.6020,-4.1150,-4.6000,-3.1400,6.925
7.6020,-4.2420,-4.3480,-3.2510,6.890
7.6120,-4.6090,-3.7820,-3.2870,6.808
7.6210,-5.0020,-2.9250,-3.0990,6.571
7.6310,-5.0920,-2.0370,-2.6600,6.095
7.6410,-4.6920,-1.3550,-2.1300,5.328
7.6510,-3.9870,-0.9120,-1.6330,4.404
7.6610,-3.1290,-0.7570,-1.2790,3.464
7.6720,-2.2040,-0.8570,-1.0860,2.602
7.7000,-1.2410,-1.0540,-1.0290,1.926
7.7000,-0.3410,-1.2390,-1.0020,1.630
7.7000,0.3700,-1.3860,-1.0360,1.770
7.7110,0.9080,-1.6270,-1.1450,2.187
7.7210,1.1630,-1.9550,-1.2810,2.611
7.7310,1.1260,-2.2290,-1.3860,2.856
7.7410,0.8930,-2.3360,-1.3960,2.864
7.7520,0.6270,-2.3500,-1.3090,2.762
7.7610,0.3860,-2.2140,-1.1650,2.531
7.7710,0.1620,-1.9070,-0.9840,2.152
7.8010,-0.0020,-1.4860,-0.7770,1.677
7.8010,-0.0360,-1.0230,-0.4690,1.126
7.8010,-0.0160,-0.5410,-0.0880,0.548
7.8110,0.0540,-0.1020,0.3010,0.322
7.8200,0.1660,0.3140,0.6190,0.714
7.8310,0.3540,0.6590,0.8200,1.110
7.8400,0.5880,0.9390,0.8790,1.414
7.8620,0.8850,1.1590,0.8550,1.690
7.8630,1.1890,1.3130,0.7770,1.934
7.8740,1.4220,1.4120,0.6990,2.122
7.8860,1.6010,1.4300,0.6200,2.234
7.8910,1.6800,1.4030,0.5220,2.250
7.9010,1.7260,1.3060,0.4080,2.203
7.9120,1.7780,1.1140,0.3210,2.123
7.9210,1.8530,0.7950,0.2890,2.037
7.9300,2.0240,0.4800,0.2850,2.100
7.9410,2.2370,0.2890,0.3680,2.285
7.9510,2.4900,0.2200,0.5970,2.570
7.9650,2.8030,0.2160,0.8530,2.938
7.9700,3.0550,0.1650,1.0820,3.245
7.9910,3.2490,0.1710,1.2880,3.499
7.9930,3.5250,0.2490,1.4840,3.833
8.0010,3.7830,0.4000,1.7240,4.177
8.0120,4.0240,0.5780,2.0120,4.536
8.0210,4.2850,0.7880,2.3500,4.950
8.0310,4.5040,0.9830,2.6680,5.326
8.0400,4.7680,1.1190,2.9890,5.738
8.0510,5.1060,1.1630,3.2220,6.149
8.0660,5.3980,1.1480,3.3610,6.462
8.0710,5.6510,1.1010,3.4070,6.690
8.0840,5.8460,0.9720,3.2990,6.783
8.0900,6.0430,0.8160,3.1880,6.881
8.1010,6.2230,0.5520,3.0550,6.954
8.1120,6.3900,0.1490,2.8260,6.989
8.1200,6.5590,-0.4280,2.5720,7.058
8.1310,6.6310,-1.0440,2.3550,7.114
8.1400,6.6340,-1.4860,2.1920,7.143
8.1510,6.5920,-1.8150,2.1500,7.167
8.1660,6.5020,-2.0120,2.1650,7.142
8.1700,6.3710,-2.1020,2.2440,7.074
8.1890,6.1490,-1.9840,2.4340,6.904
8.1900,5.7580,-1.4540,2.7310,6.537
8.2000,5.3340,-0.6220,3.0900,6.196
8.2110,4.9490,0.2270,3.3770,5.996
8.2220,4.5970,0.9920,3.5570,5.897
8.2310,4.3920,1.4690,3.6070,5.870
8.2400,4.2050,1.6900,3.6240,5.803
8.2500,3.9220,1.7390,3.5810,5.588
8.2640,3.5630,1.6140,3.4260,5.200
8.2700,3.2050,1.3150,3.1530,4.684
8.2980,2.8890,0.8730,2.7690,4.096
8.2980,2.6140,0.2830,2.3740,3.542
8.3000,2.3190,-0.4300,2.0370,3.116
8.3100,1.9150,-1.1790,1.8420,2.907
8.3200,1.4500,-1.8940,1.7390,2.952
8.3310,0.9690,-2.5420,1.7270,3.222
8.3400,0.3950,-2.9450,1.8130,3.481
8.3510,-0.2390,-3.1380,1.9260,3.690
8.3610,-0.9230,-3.1720,1.7220,3.725
8.3700,-1.4370,-3.1390,1.3520,3.708
8.3930,-1.7960,-2.8180,1.0750,3.510
8.3940,-2.0630,-2.3160,1.0450,3.273
8.4010,-2.1570,-1.7810,1.1610,3.029
8.4110,-2.0900,-1.5160,1.1950,2.845
8.4200,-1.9830,-1.3840,1.2130,2.705
8.4310,-1.9520,-1.2290,1.2620,2.629
8.4410,-2.0180,-1.1300,1.2210,2.615
8.4500,-2.0910,-1.1310,1.0990,2.619
8.4610,-2.1590,-1.1480,0.8940,2.604
8.4700,-2.2440,-1.1640,0.6760,2.617
8.4970,-2.3340,-1.1850,0.4460,2.655
8.4970,-2.4690,-1.1880,0.2330,2.750
8.4990,-2.6260,-1.2250,0.0110,2.898
8.5110,-2.8050,-1.2130,-0.1180,3.058
8.5200,-3.0180,-1.1720,-0.2410,3.247
8.5310,-3.1980,-1.2190,-0.2840,3.434
8.5420,-3.2860,-1.2690,-0.2580,3.532
8.5510,-3.4220,-1.3210,-0.1660,3.672
8.5600,-3.4870,-1.3100,-0.2060,3.731
8.5710,-3.5260,-1.3970,-0.3020,3.805
8.6110,-3.6000,-1.4710,-0.4110,3.911
8.6120,-3.7160,-1.5950,-0.5050,4.075
8.6120,-3.7310,-1.6610,-0.6130,4.130
8.6120,-3.7400,-1.8380,-0.7510,4.234
8.6210,-3.7410,-2.0720,-0.9520,4.381
8.6310,-3.7370,-2.3480,-1.1710,4.566
8.6400,-3.7200,-2.6510,-1.3410,4.761
8.6510,-3.7250,-2.9600,-1.5310,4.998
8.6670,-3.7440,-3.1820,-1.6480,5.183
8.6710,-3.7730,-3.2860,-1.6430,5.266
8.6980,-3.7650,-3.2480,-1.5140,5.198
8.6980,-3.7550,-3.1780,-1.3760,5.108
8.7000,-3.5350,-3.2230,-1.3570,4.972
8.7100,-3.1120,-3.3320,-1.3920,4.767
8.7200,-2.5580,-3.4970,-1.4850,4.580
8.7310,-2.0780,-3.9000,-1.7210,4.742
8.7400,-1.9590,-4.2350,-2.0740,5.106
8.7500,-2.1120,-4.2730,-2.3390,5.309
8.7600,-2.3530,-4.1220,-2.4260,5.330
8.7700,-2.5770,-3.9630,-2.5250,5.359
8.8030,-2.8610,-3.6790,-2.5090,5.293
8.8030,-3.2340,-3.1300,-2.3220,5.064
8.8040,-3.5380,-2.3370,-1.9860,4.682
8.8100,-3.5710,-1.5640,-1.5240,4.186
8.8200,-3.2800,-1.0220,-1.0830,3.602
8.8300,-2.8360,-0.8070,-0.7510,3.043
8.8400,-2.3210,-0.8250,-0.5160,2.517
8.8510,-1.7630,-1.0100,-0.4550,2.082
8.8670,-1.1840,-1.2060,-0.5290,1.771
8.8700,-0.6680,-1.3510,-0.6500,1.641
8.9030,-0.2970,-1.4500,-0.7670,1.667
8.9030,0.0390,-1.6030,-0.9020,1.840
8.9030,0.2570,-1.7940,-1.0360,2.088
8.9110,0.3990,-1.9520,-1.0680,2.261
8.9200,0.4480,-2.0370,-1.0310,2.327
8.9300,0.4330,-1.9630,-0.9110,2.207
8.9400,0.3760,-1.7300,-0.7360,1.917
8.9500,0.3470,-1.4100,-0.5060,1.538
8.9600,0.3100,-1.0200,-0.2070,1.086
8.9700,0.1930,-0.5920,0.1320,0.637
9.0000,0.0770,-0.1500,0.4940,0.522
9.0000,0.0000,0.2460,0.8130,0.849
9.0000,0.0030,0.5940,1.0040,1.167
9.0100,0.0560,0.8970,1.0410,1.375
9.0190,0.2140,1.1120,0.9440,1.474
9.0340,0.4830,1.2880,0.7470,1.565
9.0390,0.8060,1.3650,0.5460,1.677
9.0500,1.0930,1.3850,0.3410,1.797
9.0630,1.2970,1.3380,0.1440,1.869
9.0710,1.4030,1.1620,0.0060,1.822
9.1000,1.4230,0.9250,-0.0560,1.698
9.1000,1.4350,0.6630,-0.0540,1.582
9.1010,1.4960,0.3640,0.0170,1.540
9.1110,1.6670,0.1130,0.1830,1.681
9.1200,1.9360,-0.0720,0.4670,1.993
9.1300,2.2940,-0.1660,0.8680,2.458
9.1400,2.6220,-0.1930,1.2620,2.916
9.1500,2.8580,-0.1190,1.6550,3.305
9.1590,3.0100,-0.0030,1.9760,3.601
9.1700,3.1440,0.1040,2.2490,3.867
9.2000,3.3050,0.2360,2.4850,4.142
9.2000,3.6020,0.3570,2.7020,4.517
9.2010,3.9570,0.4800,2.9680,4.970
9.2100,4.3200,0.6400,3.2730,5.458
9.2200,4.7120,0.8130,3.6140,5.994
9.2300,5.1180,0.9090,3.9100,6.504
9.2400,5.4910,0.9110,4.0740,6.898
9.2500,5.7890,0.8730,4.1390,7.170
9.2600,5.9990,0.8170,4.0150,7.265
9.2700,6.1500,0.6390,3.7320,7.222
9.2980,6.1830,0.3390,3.3340,7.033
9.2990,6.0920,-0.0740,2.8690,6.734
9.2990,6.0720,-0.6950,2.4330,6.578
9.3100,6.0640,-1.3520,2.0590,6.545
9.3200,6.0650,-1.8090,1.8340,6.589
9.3300,6.1040,-2.0520,1.7810,6.681
9.3390,6.1170,-2.0040,1.8980,6.711
9.3500,5.9750,-1.7290,2.1240,6.573
9.3640,5.7970,-1.2040,2.4070,6.391
9.3690,5.4900,-0.4580,2.7360,6.151
9.4010,4.9860,0.4870,3.1160,5.900
9.4010,4.5470,1.3850,3.3660,5.824
9.4020,4.2860,2.0350,3.4900,5.890
9.4090,4.1120,2.3920,3.5390,5.929
9.4190,3.9190,2.4880,3.4760,5.799
9.4300,3.6810,2.3640,3.3080,5.485
9.4390,3.3470,2.1040,3.0500,4.993
9.4500,3.0210,1.7300,2.7120,4.413
9.4600,2.8460,1.2420,2.3220,3.877
9.4700,2.7650,0.6190,1.9460,3.437
9.5040,2.6600,-0.0590,1.6080,3.109
9.5040,2.3950,-0.7050,1.3680,2.847
9.5050,2.0040,-1.2200,1.2270,2.648
9.5100,1.5890,-1.6610,1.1980,2.592
9.5200,1.2570,-2.0170,1.2040,2.664
9.5300,0.9890,-2.1900,1.2820,2.724
9.5400,0.8240,-2.1640,1.4240,2.718
9.5500,0.7550,-1.9690,1.5460,2.615
9.5650,0.7850,-1.7060,1.6410,2.494
9.5720,0.8620,-1.4200,1.7580,2.419
9.5970,0.7780,-1.1340,1.8270,2.287
9.5970,0.5210,-0.9190,1.9040,2.177
9.5990,0.1850,-0.7690,1.9340,2.089
9.6100,-0.1720,-0.6550,1.9190,2.035
9.6200,-0.4620,-0.5910,1.8510,1.997
9.6300,-0.6700,-0.6260,1.7320,1.960
9.6430,-0.8210,-0.6720,1.5560,1.883
9.6490,-0.9160,-0.7720,1.3390,1.797
9.6600,-0.9790,-0.9570,1.1050,1.759
9.6700,-1.0820,-1.1400,0.8180,1.772
9.6790,-1.2480,-1.3600,0.5630,1.930
9.6890,-1.4870,-1.5030,0.3790,2.148
9.6990,-1.7310,-1.6370,0.2880,2.400
9.7300,-2.0130,-1.7550,0.3030,2.688
9.7310,-2.3380,-1.7260,0.3560,2.928
9.7310,-2.5440,-1.6640,0.4560,3.074
9.7400,-2.6870,-1.6080,0.4540,3.164
9.7490,-2.8560,-1.6250,0.3200,3.301
9.7630,-3.0170,-1.7800,0.0850,3.504
9.7700,-3.2460,-2.0550,-0.1820,3.846
9.7960,-3.5470,-2.3390,-0.4380,4.271
9.7970,-3.9060,-2.5780,-0.7000,4.732
9.7990,-4.2000,-2.8290,-0.9540,5.153
9.8100,-4.4060,-3.0690,-1.2570,5.515
9.8190,-4.5950,-3.2860,-1.6310,5.880
9.8300,-4.7980,-3.4060,-2.0100,6.218
9.8420,-4.9500,-3.4100,-2.3860,6.467
9.8490,-4.9470,-3.4170,-2.7000,6.591
9.8630,-4.7880,-3.3730,-2.9010,6.536
9.8690,-4.5430,-3.3460,-3.0040,6.392
9.8920,-4.2550,-3.4340,-3.0300,6.251
9.8920,-3.8640,-3.8090,-3.0200,6.210
9.8990,-3.4600,-4.3550,-2.9420,6.292
9.9100,-3.2300,-4.7640,-2.7210,6.367
9.9190,-3.0400,-5.0330,-2.4700,6.378
9.9290,-2.9190,-5.0880,-2.2050,6.267
9.9390,-2.8850,-4.9540,-1.9280,6.048
9.9490,-3.0140,-4.4110,-1.6000,5.577
9.9590,-3.2530,-3.5500,-1.1950,4.961
9.9690,-3.4160,-2.5370,-0.6810,4.309
9.9840,-3.4140,-1.5950,-0.1910,3.773
9.9890,-3.1540,-0.8860,0.1960,3.282
10.0160,-2.7130,-0.4700,0.4790,2.795
10.0160,-2.1940,-0.2640,0.6080,2.292
10.0190,-1.6930,-0.1620,0.5980,1.803
10.0300,-1.2340,-0.1050,0.4880,1.331
10.0390,-0.7980,-0.0910,0.3270,0.867
10.0500,-0.3880,-0.1650,0.0810,0.429
10.0590,0.0220,-0.3960,-0.2280,0.457
10.0690,0.3670,-0.7730,-0.5600,1.023
10.0800,0.5470,-1.1030,-0.8050,1.471
10.1140,0.5710,-1.3700,-0.9380,1.756
10.1140,0.5130,-1.4810,-1.0030,1.861
10.1140,0.3350,-1.6090,-0.9940,1.921
10.1190,-0.0520,-1.5130,-0.8830,1.753
10.1290,-0.5140,-1.2880,-0.7000,1.553
10.1400,-0.7830,-0.9590,-0.5110,1.339
10.1500,-0.9440,-0.5800,-0.3280,1.155
10.1700,-1.0230,-0.1920,-0.2180,1.063
10.1700,-1.0210,0.1210,-0.1740,1.043
10.1900,-0.9120,0.3460,-0.1440,0.986
10.1910,-0.7580,0.5750,-0.1030,0.957
10.1990,-0.5530,0.7680,-0.0180,0.947
10.2140,-0.3060,0.9150,0.0190,0.965
10.2200,-0.0430,0.9730,0.0120,0.974
10.2480,0.2060,0.9720,-0.0550,0.995
10.2480,0.3930,0.9270,-0.1280,1.015
10.2480,0.5310,0.7960,-0.1760,0.973
10.2590,0.6440,0.6290,-0.1460,0.912
10.2690,0.8040,0.3970,-0.0400,0.898
10.2790,1.0080,0.1170,0.1570,1.027
10.2900,1.3510,-0.1970,0.2630,1.390
10.2990,1.6760,-0.4450,0.3530,1.770
10.3290,2.0160,-0.3860,0.5400,2.122
10.3290,2.3400,-0.1570,0.6590,2.436
10.3300,2.6170,0.0750,0.6730,2.703
10.3390,2.8350,0.3010,0.6800,2.931
10.3490,3.0260,0.5370,0.7630,3.167
10.3590,3.1840,0.7680,0.9520,3.411
10.3700,3.3290,0.9150,1.2400,3.668
10.3790,3.5330,1.0160,1.5640,3.995
10.3900,3.7290,0.9920,1.7970,4.257
10.3990,3.9900,0.8360,1.9200,4.506
10.4330,4.2840,0.6250,1.9400,4.744
10.4340,4.5180,0.5090,1.8980,4.927
10.4340,4.6570,0.4420,1.8460,5.029
10.4390,4.7500,0.3410,1.7450,5.072
10.4490,4.8790,0.1390,1.6030,5.137
10.4580,5.0290,-0.2430,1.4680,5.245
10.4680,5.2410,-0.7610,1.4130,5.481
10.4810,5.4810,-1.2590,1.5200,5.826
10.4890,5.7110,-1.4900,1.7610,6.159
10.5120,5.9300,-1.4420,2.1010,6.454
10.5130,6.2130,-1.2750,2.3620,6.768
10.5190,6.3870,-0.8730,2.5770,6.942
10.5290,6.3930,-0.2410,2.8210,6.992
10.5390,6.2200,0.5820,3.0610,6.957
10.5490,6.0090,1.4070,3.3440,7.019
10.5600,5.8850,1.9870,3.5510,7.155
10.5700,5.8030,2.3490,3.7170,7.281
10.5790,5.7200,2.5130,3.8470,7.337
10.5890,5.5540,2.4980,3.8370,7.198
10.5990,5.2050,2.3850,3.6940,6.814
10.6340,4.8900,2.0410,3.3840,6.287
10.6380,4.5440,1.5790,2.9690,5.653
10.6380,4.2530,1.0470,2.5210,5.054
10.6380,3.9950,0.4260,2.1090,4.538
10.6490,3.6960,-0.2650,1.8770,4.154
10.6590,3.3590,-0.8950,1.7770,3.904
10.6690,3.0750,-1.4720,1.7750,3.844
10.6790,2.8250,-1.8880,1.9090,3.897
10.6890,2.5980,-2.0580,2.1260,3.938
10.6990,2.4280,-2.1230,2.3110,3.968
10.7290,2.2440,-1.9940,2.4440,3.871
10.7300,2.0870,-1.7520,2.6030,3.768
10.7300,1.7590,-1.4470,2.6580,3.500
10.7390,1.4150,-1.2740,2.6530,3.266
10.7490,1.0280,-1.0140,2.7290,3.087
10.7590,0.6200,-0.7910,2.7770,2.953
10.7680,0.3030,-0.6150,2.7630,2.847
10.7790,0.0350,-0.4840,2.6210,2.666
10.7890,-0.1740,-0.4220,2.4150,2.458
10.7990,-0.3600,-0.4360,2.1500,2.223
10.8200,-0.5740,-0.5070,1.8370,1.990
10.8200,-0.7960,-0.6320,1.5130,1.823
10.8300,-1.0470,-0.8180,1.2110,1.798
10.8390,-1.3010,-1.0960,0.9020,1.925
10.8490,-1.5810,-1.3410,0.6590,2.175
10.8590,-1.8750,-1.5430,0.4440,2.469
10.8720,-2.1440,-1.7440,0.2490,2.775
10.8780,-2.4370,-1.8880,0.0210,3.083
10.8940,-2.7440,-1.9320,-0.1490,3.359
10.8990,-3.0130,-1.9760,-0.2600,3.613
10.9200,-3.3140,-2.0310,-0.3510,3.903
10.9200,-3.5310,-2.0810,-0.4960,4.129
10.9280,-3.6750,-2.1640,-0.7080,4.323
10.9390,-3.8080,-2.3030,-0.9310,4.547
10.9490,-4.0930,-2.4670,-1.2630,4.943
10.9580,-4.2370,-2.6530,-1.5990,5.249
10.9680,-4.3810,-2.8500,-1.9600,5.582
10.9780,-4.5690,-3.0520,-2.2750,5.947
10.9880,-4.7930,-3.2670,-2.5940,6.354
10.9980,-4.9360,-3.4310,-2.8240,6.642
11.0340,-5.0350,-3.4700,-2.9230,6.778
11.0340,-5.0930,-3.3330,-2.8790,6.733
11.0340,-4.9850,-3.1080,-2.6630,6.450
11.0380,-4.6540,-3.0240,-2.3490,6.027
11.0480,-4.2150,-3.2210,-2.0510,5.688
11.0580,-3.8430,-3.5950,-1.8440,5.576
11.0690,-3.5010,-4.0860,-1.7480,5.658
11.0810,-3.2260,-4.5210,-1.7840,5.833
11.0880,-3.0940,-4.7240,-1.7930,5.925
11.1080,-2.9900,-4.7610,-1.7170,5.878
11.1090,-2.8860,-4.7420,-1.6390,5.788
11.1190,-2.9560,-4.5100,-1.5330,5.606
11.1290,-3.2440,-3.9800,-1.2940,5.295
11.1390,-3.5940,-3.2240,-0.9050,4.912
11.1480,-3.9350,-2.3240,-0.3770,4.586
11.1580,-4.1090,-1.4350,0.1440,4.355
11.1680,-4.0220,-0.6960,0.5540,4.119
11.1780,-3.6430,-0.2120,0.7840,3.732
11.1970,-2.9590,-0.0210,0.8110,3.068
11.1970,-2.0460,-0.1480,0.5880,2.134
11.2080,-1.2270,-0.3690,0.2190,1.300
11.2180,-0.6030,-0.5770,-0.2080,0.860
11.2290,-0.0390,-0.8370,-0.5820,1.020
11.2390,0.4550,-1.2320,-0.9260,1.607
11.2480,0.7880,-1.6760,-1.2780,2.250
11.2580,1.0220,-2.1630,-1.5070,2.827
11.2690,1.1160,-2.5100,-1.6040,3.181
11.2790,1.2280,-2.6980,-1.5730,3.356
11.2990,1.1330,-2.6920,-1.3480,3.217
11.2990,0.9530,-2.4300,-1.0110,2.799
11.3080,0.7650,-1.9360,-0.6460,2.180
11.3190,0.6040,-1.3030,-0.2830,1.464
11.3280,0.4990,-0.6410,0.0590,0.814
11.3400,0.4840,-0.0780,0.3780,0.619
11.3480,0.5810,0.4230,0.6660,0.980
11.3580,0.7950,0.8470,0.9470,1.499
11.3680,0.9700,1.2880,1.1830,2.000
11.3780,0.9720,1.6860,1.2820,2.330
11.4050,1.0240,1.8820,1.2260,2.469
11.4050,1.1920,1.8620,1.0540,2.449
11.4080,1.3530,1.7700,0.8790,2.395
11.4190,1.3900,1.6830,0.6650,2.282
11.4340,1.3170,1.5410,0.4130,2.069
11.4400,1.2650,1.2780,0.1170,1.802
11.4490,1.3300,0.9120,-0.1430,1.619
11.4570,1.4200,0.5430,-0.3110,1.552
11.4680,1.5050,0.2740,-0.2910,1.557
11.4800,1.5830,0.1230,-0.1250,1.593
11.4950,1.7400,0.0130,0.1560,1.747
11.4970,1.9840,0.0380,0.5330,2.055
11.5080,2.3320,0.0650,0.8030,2.467
11.5190,2.6000,0.2040,0.9170,2.765
11.5280,2.6690,0.3660,0.8890,2.837
11.5390,3.1050,0.4450,0.7460,3.224
11.5490,3.7930,0.5740,0.8760,3.935
11.5580,4.3880,0.6390,1.2280,4.601
11.5680,4.8940,0.8100,1.7960,5.276
11.5790,5.3550,0.9860,2.4330,5.964
11.5880,5.8170,1.0430,2.9400,6.601
11.6040,6.2620,0.9550,3.3460,7.164
11.6080,6.6970,0.8310,3.6380,7.667
11.6170,7.1050,0.6650,3.8600,8.113
11.6280,7.3940,0.3680,4.0410,8.434
11.6390,7.5380,-0.0840,4.2100,8.634
11.6480,7.6180,-0.7320,4.3570,8.806
11.6580,7.6640,-1.4190,4.4370,8.969
11.6680,7.5820,-1.8840,4.5450,9.038
11.6780,7.3710,-2.0420,4.5370,8.893
11.7120,7.1280,-2.1160,4.3630,8.621
11.7120,6.8710,-2.1160,4.0750,8.264
11.7130,6.4220,-1.8720,3.8480,7.717
11.7180,5.7850,-1.2990,3.7440,7.012
11.7280,5.0860,-0.4270,3.8030,6.365
11.7390,4.5250,0.4780,3.8800,5.980
11.7480,4.1310,1.2280,3.8560,5.783
11.7580,3.9340,1.7400,3.7140,5.683
11.7690,3.7690,1.9550,3.5400,5.528
11.7780,3.6640,1.9470,3.3700,5.345
11.7940,3.4980,1.7940,3.2270,5.086
11.7980,3.3390,1.5060,3.0460,4.764
11.8240,3.2590,1.1150,2.8310,4.459
11.8240,3.2120,0.5980,2.5780,4.162
11.8280,3.0470,-0.0220,2.2810,3.806
11.8380,2.7860,-0.7100,1.9540,3.476
11.8480,2.4900,-1.4150,1.6370,3.299
11.8570,2.0390,-2.0270,1.4380,3.215
11.8680,1.5670,-2.4640,1.3320,3.210
11.8780,1.0810,-2.7230,1.3090,3.209
11.8940,0.6950,-2.8830,1.3260,3.249
11.8980,0.5060,-2.9280,1.4200,3.293
11.9270,0.3140,-2.8460,1.4900,3.228
11.9280,0.0960,-2.7180,1.5810,3.146
11.9280,-0.0370,-2.4510,1.7240,2.997
11.9390,-0.1640,-2.2090,1.9220,2.933
11.9540,-0.2190,-2.0390,2.1290,2.956
11.9590,-0.3720,-1.9010,2.3100,3.015
11.9680,-0.6070,-1.7860,2.4170,3.066
11.9790,-0.8700,-1.6940,2.3830,3.050
12.0120,-1.1110,-1.6080,2.2480,2.979
12.0120,-1.3270,-1.5700,2.0340,2.892
12.0120,-1.4860,-1.5830,1.7320,2.777
12.0180,-1.6790,-1.6450,1.2840,2.678
12.0280,-1.8770,-1.7270,0.8110,2.676
12.0390,-2.1030,-1.7810,0.4240,2.788
12.0470,-2.3790,-1.8700,0.1230,3.028
12.0590,-2.7120,-1.9610,-0.0940,3.348
12.0680,-3.0360,-2.0520,-0.3000,3.677
12.0770,-3.3350,-2.1360,-0.4660,3.988
12.0950,-3.6310,-2.1620,-0.5650,4.264
12.0970,-3.9900,-2.1000,-0.6990,4.563
12.1260,-4.3800,-2.1170,-0.8920,4.946
12.1260,-4.7580,-2.2250,-1.2220,5.393
12.1270,-5.0710,-2.3900,-1.5350,5.812
12.1390,-5.3150,-2.5920,-1.8590,6.199
12.1470,-5.6450,-2.8040,-2.1150,6.648
12.1580,-5.9560,-2.9950,-2.4320,7.096
12.1680,-6.0790,-3.2170,-2.7770,7.417
12.1780,-6.0940,-3.3400,-3.1770,7.641
12.1930,-6.0800,-3.3100,-3.4920,7.753
12.1980,-5.9450,-3.2750,-3.7190,7.739
12.2270,-5.7100,-3.1800,-3.8230,7.572
12.2280,-5.3050,-3.0680,-3.7550,7.187
12.2280,-4.7510,-3.0280,-3.5190,6.643
12.2380,-4.3060,-3.1280,-3.2240,6.223
12.2470,-3.8930,-3.4480,-2.9960,6.002
12.2580,-3.3640,-4.0590,-2.9050,6.019
12.2680,-2.9430,-4.5520,-2.9140,6.154
12.2780,-2.7690,-4.7340,-2.9500,6.227
12.2940,-2.6540,-4.7520,-2.9180,6.176
12.2970,-2.5450,-4.6780,-2.8780,6.053
12.3280,-2.5720,-4.3930,-2.8110,5.815
12.3290,-2.7860,-3.8550,-2.6870,5.463
12.3290,-3.0400,-3.1070,-2.3850,4.958
12.3380,-3.2020,-2.2350,-1.8760,4.332
12.3470,-3.1670,-1.4320,-1.3110,3.715
12.3580,-2.8190,-0.8160,-0.8190,3.047
12.3700,-2.1590,-0.5150,-0.4480,2.264
12.3770,-1.3960,-0.4690,-0.2510,1.494
12.3920,-0.6420,-0.6020,-0.1790,0.898
12.3970,-0.0190,-0.8190,-0.1840,0.840
12.4310,0.4260,-1.0100,-0.2330,1.121
12.4320,0.7980,-1.2980,-0.3920,1.573
12.4320,1.1220,-1.6950,-0.6560,2.136
12.4380,1.3330,-2.1320,-0.9030,2.672
12.4480,1.3820,-2.5140,-1.0940,3.070
12.4570,1.3370,-2.7790,-1.1340,3.286
12.4670,1.1940,-2.8750,-0.9650,3.259
12.4770,1.0180,-2.6850,-0.6000,2.934
12.4870,0.9130,-2.2510,-0.1350,2.433
12.4970,0.8030,-1.6330,0.3320,1.850
12.5340,0.6710,-0.9870,0.6990,1.383
12.5350,0.6040,-0.3860,0.9510,1.191
12.5350,0.6790,0.1000,1.1700,1.356
12.5370,0.8710,0.4840,1.3770,1.700
12.5480,1.0060,0.8270,1.5730,2.042
12.5570,1.1210,1.0500,1.6510,2.255
12.5680,1.3000,1.1790,1.6660,2.420
12.5780,1.5310,1.2410,1.6000,2.539
12.5940,1.7730,1.2380,1.5260,2.647
12.5970,1.9630,1.1930,1.4710,2.728
12.6180,2.0820,1.0830,1.4260,2.746
12.6220,2.1250,0.9200,1.3560,2.683
12.6280,2.1530,0.7460,1.3320,2.639
12.6380,2.1810,0.4790,1.3580,2.613
12.6480,2.2720,0.2370,1.4070,2.683
12.6580,2.4230,0.0250,1.5190,2.860
12.6690,2.6290,-0.0620,1.6380,3.098
12.6770,2.8620,-0.0710,1.8100,3.387
12.6890,3.1460,-0.0090,2.0660,3.764
12.6980,3.3950,0.1070,2.3480,4.129
12.7090,3.6150,0.2890,2.5730,4.447
12.7170,3.7990,0.5150,2.7720,4.731
12.7280,4.0770,0.6900,2.9430,5.075
12.7370,4.4370,0.8140,3.0380,5.439
12.7480,4.8360,0.9620,3.1940,5.875
12.7590,5.2610,1.0290,3.3100,6.300
12.7680,5.6430,1.0350,3.4100,6.674
12.7790,5.9860,1.0100,3.4840,6.999
12.7900,6.2800,0.9270,3.4900,7.244
12.7970,6.4830,0.8100,3.4510,7.389
12.8240,6.6600,0.5330,3.3830,7.489
12.8250,6.7590,0.1690,3.3620,7.551
12.8270,6.8640,-0.3670,3.3740,7.657
12.8370,7.0080,-1.1110,3.3650,7.853
12.8470,7.1490,-1.7450,3.3830,8.099
12.8570,7.2460,-2.0370,3.5680,8.330
12.8670,7.2380,-2.0090,3.8290,8.431
12.8770,7.1460,-1.7680,4.0370,8.396
12.8910,6.9330,-1.3150,4.2930,8.260
12.8960,6.6460,-0.6920,4.5700,8.095
12.9250,6.3350,0.0690,4.8280,7.965
12.9260,5.9550,0.8190,4.9760,7.803
12.9270,5.5970,1.4350,5.0200,7.654
12.9370,5.3720,1.7960,4.9540,7.525
12.9470,5.0980,1.8590,4.7950,7.241
12.9570,4.7760,1.7070,4.5210,6.794
12.9690,4.4900,1.3560,4.1650,6.273
12.9770,4.2450,0.8780,3.7130,5.708
12.9890,4.0660,0.3320,3.2280,5.202
12.9970,3.9210,-0.3220,2.7400,4.794
13.0290,3.7420,-1.0850,2.3570,4.554
13.0290,3.4620,-1.9270,2.0740,4.472
13.0290,2.9960,-2.6810,1.8660,4.432
13.0370,2.4510,-3.2690,1.7640,4.450
13.0470,1.9080,-3.7160,1.7290,4.521
13.0570,1.3470,-3.9060,1.7420,4.484
13.0710,0.8770,-3.8870,1.8190,4.380
13.0780,0.4500,-3.7180,1.9260,4.211
13.0870,-0.0190,-3.4290,1.9620,3.951
13.0960,-0.4020,-3.0640,2.0000,3.681
13.1100,-0.7070,-2.6870,2.0240,3.437
13.1170,-0.8870,-2.3060,2.0270,3.196
13.1460,-1.0260,-1.9850,1.9890,2.991
13.1470,-1.0720,-1.7410,1.8970,2.789
13.1470,-1.1250,-1.5580,1.7460,2.596
13.1570,-1.2730,-1.4200,1.5100,2.432
13.1670,-1.4550,-1.3990,1.2260,2.362
13.1770,-1.6060,-1.3850,0.8990,2.303
13.1960,-1.7510,-1.4160,0.5530,2.319
13.1970,-1.9600,-1.5650,0.1870,2.515
13.2490,-2.2810,-1.7200,-0.1980,2.864
13.2490,-2.6410,-1.8180,-0.5980,3.262
13.2500,-3.0410,-1.9500,-0.9580,3.737
13.2500,-3.4570,-2.0880,-1.2390,4.224
13.2500,-3.8970,-2.1930,-1.4410,4.698
13.2570,-4.3490,-2.1910,-1.5650,5.115
13.2680,-4.7860,-2.1690,-1.6930,5.521
13.2760,-5.1440,-2.1460,-1.8400,5.870
13.2930,-5.3160,-2.1450,-2.0180,6.077
13.2960,-5.4080,-2.1730,-2.2160,6.235
13.3160,-5.4890,-2.2560,-2.5500,6.459
13.3170,-5.4770,-2.4520,-2.9060,6.667
13.3270,-5.4730,-2.6110,-3.1810,6.848
13.3370,-5.3870,-2.7830,-3.3900,6.947
13.3470,-5.3170,-2.9970,-3.5380,7.055
13.3570,-5.3000,-3.1130,-3.5100,7.078
13.3690,-5.2610,-3.1500,-3.4070,7.015
13.3810,-5.1910,-3.1350,-3.1620,6.839
13.3890,-5.0520,-3.0670,-2.8050,6.542
13.3960,-4.8470,-3.0680,-2.3770,6.209
13.4310,-4.5530,-3.2550,-2.0470,5.959
13.4320,-4.2160,-3.5360,-1.8360,5.801
13.4320,-3.7840,-3.9600,-1.7810,5.760
13.4360,-3.3740,-4.4200,-1.9070,5.879
13.4460,-3.1380,-4.7830,-2.1380,6.107
13.4560,-3.0510,-5.0000,-2.3520,6.312
13.4700,-2.9320,-5.1890,-2.5220,6.472
13.4770,-2.8910,-5.2510,-2.5960,6.532
13.4920,-3.0480,-4.8980,-2.5240,6.297
13.4960,-3.2830,-4.1210,-2.2130,5.715
13.5270,-3.3880,-3.1180,-1.7490,4.925
13.5280,-3.2920,-2.1650,-1.2010,4.119
13.5280,-3.0480,-1.4280,-0.7360,3.445
13.5360,-2.4830,-0.9720,-0.3990,2.696
13.5470,-1.7120,-0.8130,-0.2730,1.915
13.5570,-0.8800,-0.7630,-0.2410,1.189
13.5670,-0.0570,-0.7550,-0.3200,0.822
13.5770,0.5800,-0.8030,-0.4400,1.084
13.5870,1.0570,-0.9440,-0.6590,1.563
13.5960,1.4350,-1.2410,-0.9300,2.113
13.6280,1.7660,-1.6300,-1.2360,2.702
13.6320,1.9570,-2.0340,-1.4620,3.179
13.6320,2.0150,-2.2500,-1.5870,3.412
13.6350,1.9410,-2.2550,-1.5730,3.366
13.6470,1.7570,-2.0930,-1.3990,3.070
13.6560,1.4970,-1.7720,-1.0910,2.563
13.6690,1.2380,-1.3200,-0.7100,1.944
13.6760,1.0320,-0.7740,-0.2700,1.318
13.6860,0.9120,-0.1850,0.1590,0.944
13.6960,0.9150,0.3330,0.5270,1.107
13.7080,0.9500,0.7690,0.7930,1.457
13.7420,1.0270,1.0760,0.9800,1.781
13.7430,1.1440,1.3010,1.1230,2.065
13.7430,1.2050,1.4390,1.1980,2.227
13.7460,1.1450,1.5000,1.1750,2.223
13.7570,1.1650,1.4900,1.0830,2.179
13.7670,1.2450,1.3690,1.0000,2.103
13.7760,1.2370,1.2480,0.9110,1.979
13.7910,1.2030,1.1010,0.8670,1.847
13.7950,1.2430,0.8820,0.8290,1.735
13.8090,1.4230,0.5950,0.8890,1.780
13.8180,1.6160,0.2840,0.9900,1.916
13.8260,1.8590,0.0310,1.1360,2.179
13.8360,2.2140,-0.2150,1.3160,2.585
13.8470,2.5800,-0.3630,1.5070,3.010
13.8560,2.8950,-0.3630,1.7550,3.405
13.8670,3.1470,-0.2750,2.0890,3.787
13.8760,3.3640,-0.0830,2.3860,4.125
13.8890,3.5470,0.1640,2.6640,4.439
13.8960,3.7730,0.3840,2.9270,4.791
13.9230,4.1250,0.5110,3.0960,5.183
13.9240,4.5480,0.5880,3.1890,5.586
13.9260,4.9410,0.6690,3.2910,5.974
13.9360,5.3520,0.7270,3.3360,6.348
13.9460,5.8160,0.7010,3.3730,6.760
13.9560,6.2060,0.6510,3.3850,7.099
13.9680,6.5340,0.6250,3.3340,7.362
13.9760,6.8040,0.5500,3.2390,7.556
13.9860,7.0370,0.3550,3.0990,7.697
13.9960,7.2300,0.0440,2.9800,7.820
14.0070,7.4590,-0.3810,2.9420,8.027
14.0170,7.6630,-0.9780,2.9470,8.268
14.0390,7.6640,-1.4470,3.1140,8.398
14.0390,7.4570,-1.6360,3.3650,8.343
14.0470,7.2370,-1.5260,3.5890,8.221
14.0560,7.0180,-1.3750,3.7150,8.059
14.0670,6.6530,-1.0460,3.7680,7.717
14.0760,6.1430,-0.4930,3.8560,7.270
14.0870,5.5900,0.2590,3.9380,6.843
14.0970,5.1120,0.9790,3.9740,6.549
14.1240,4.7890,1.4990,3.8870,6.347
14.1240,4.6480,1.8300,3.7300,6.234
14.1250,4.5400,1.9800,3.5410,6.089
14.1360,4.4190,1.8670,3.3030,5.824
14.1470,4.2950,1.5970,3.0360,5.497
14.1560,4.1750,1.2000,2.7130,5.122
14.1660,4.1190,0.6890,2.3630,4.798
14.1760,4.0830,0.0760,2.0030,4.548
14.1890,3.9060,-0.5840,1.6700,4.288
14.1960,3.6710,-1.2290,1.4290,4.127
14.2280,3.3370,-1.8420,1.3550,4.045
14.2280,2.9460,-2.3610,1.3440,4.007
14.2280,2.5060,-2.6850,1.4320,3.942
14.2360,2.0580,-2.8070,1.6210,3.840
14.2470,1.6620,-2.7410,1.8530,3.703
14.2550,1.3150,-2.4970,2.0760,3.503
14.2690,1.0580,-2.1970,2.2320,3.306
14.2760,0.8640,-1.8860,2.3920,3.166
14.2850,0.5990,-1.5680,2.5690,3.069
14.2970,0.2760,-1.3070,2.7410,3.049
14.3060,-0.1460,-1.0680,2.8460,3.043
14.3160,-0.4810,-0.9930,2.8040,3.013
14.3400,-0.7230,-0.9800,2.5910,2.863
14.3400,-0.9100,-0.9920,2.2620,2.632
14.3460,-1.0610,-1.0390,1.8800,2.396
14.3560,-1.2820,-1.1210,1.4840,2.259
14.3670,-1.7260,-1.2260,1.1010,2.386
14.3760,-2.2700,-1.2800,0.6830,2.694
14.3860,-2.9210,-1.3950,0.3230,3.253
14.3960,-3.6450,-1.4250,-0.0380,3.914
14.4270,-4.0860,-1.4830,-0.3900,4.364
14.4280,-4.2130,-1.5260,-0.6460,4.527
14.4280,-4.1780,-1.6220,-0.8760,4.567
14.4350,-4.1950,-1.6550,-1.0350,4.627
14.4460,-4.2500,-1.7040,-1.0650,4.701
14.4560,-4.4110,-1.7400,-1.0370,4.854
14.4660,-4.5530,-1.9110,-0.9640,5.031
14.4760,-4.5720,-1.9760,-1.1110,5.103
14.4890,-4.7250,-1.9630,-1.2170,5.259
14.4950,-4.9340,-2.0340,-1.2790,5.488
14.5200,-4.9940,-2.1950,-1.3810,5.627
14.5200,-4.8750,-2.3930,-1.4920,5.632
14.5260,-4.6600,-2.6120,-1.5340,5.558
14.5350,-4.5190,-2.8500,-1.4720,5.542
14.5460,-4.2940,-3.0580,-1.3130,5.433
14.5560,-4.0730,-3.3000,-1.0730,5.351
14.5660,-3.9630,-3.3990,-0.8130,5.284
14.5760,-3.8800,-3.3040,-0.5470,5.125
14.5900,-3.6230,-3.3040,-0.3450,4.915
14.5950,-3.3030,-3.5060,-0.2600,4.824
14.6070,-2.9920,-3.9100,-0.3370,4.935
14.6170,-2.7910,-4.3720,-0.5840,5.220
14.6260,-2.8200,-4.6530,-0.7960,5.499
14.6350,-2.9530,-4.7530,-0.8820,5.665
14.6450,-3.0960,-4.8150,-0.9280,5.799
14.6560,-3.3000,-4.7710,-1.0020,5.887
14.6650,-3.6510,-4.3630,-1.0410,5.784
14.6760,-4.0090,-3.6560,-1.0110,5.519
14.6890,-4.3120,-2.7990,-0.8420,5.209
14.6950,-4.5610,-1.9380,-0.6620,5.000
14.7090,-4.4830,-1.2490,-0.4320,4.674
14.7150,-3.9350,-0.8020,-0.1680,4.019
14.7270,-3.2020,-0.5410,0.0990,3.249
14.7350,-2.4790,-0.3750,0.3120,2.527
14.7450,-1.7890,-0.3970,0.4020,1.876
14.7550,-1.0130,-0.4980,0.4210,1.205
14.7650,-0.2830,-0.5980,0.3530,0.750
14.7750,0.3540,-0.7480,0.1780,0.846
14.7880,0.8330,-1.0550,-0.0690,1.346
14.7950,1.1440,-1.4540,-0.4200,1.897
14.8110,1.3900,-1.8720,-0.7630,2.453
14.8150,1.4700,-2.1290,-1.0200,2.781
14.8260,1.3560,-2.1200,-1.0660,2.733
14.8350,1.2020,-1.9170,-0.9500,2.454
14.8440,1.0810,-1.5570,-0.7580,2.041
14.8550,0.9800,-1.0730,-0.5800,1.565
14.8660,0.9040,-0.5090,-0.3920,1.109
14.8760,0.8280,0.0440,-0.1920,0.851
14.8860,0.7520,0.5140,-0.0080,0.911
14.8950,0.8290,0.9400,0.2800,1.284
14.9100,1.0370,1.2180,0.5570,1.694
14.9150,1.2790,1.4270,0.7730,2.066
14.9240,1.5010,1.5880,0.8470,2.344
14.9350,1.7520,1.6880,0.7760,2.554
14.9500,1.9560,1.7310,0.6010,2.680
14.9540,2.1020,1.6940,0.4170,2.732
14.9640,2.1450,1.5780,0.2430,2.674
14.9750,2.0820,1.4660,0.0790,2.548
14.9880,2.0440,1.3140,0.0040,2.430
14.9950,2.1040,1.1490,-0.0750,2.398
15.0150,2.2600,0.9850,-0.1440,2.470
15.0150,2.4880,0.7930,-0.1310,2.615
15.0250,2.7940,0.6140,-0.0480,2.861
15.0340,3.1090,0.6010,0.1700,3.171
15.0450,3.3570,0.6450,0.3630,3.438
15.0550,3.5910,0.6710,0.5760,3.698
15.0660,3.7590,0.8180,0.8000,3.929
15.0750,4.0140,0.9460,1.0420,4.254
15.0840,4.3140,1.0740,1.3240,4.639
15.0950,4.6200,1.1590,1.5510,5.009
15.1050,4.9700,1.2020,1.7450,5.403
15.1260,5.4020,1.1890,1.9310,5.859
15.1270,5.9030,1.0720,2.0510,6.340
15.1350,6.3010,0.9670,2.2420,6.758
15.1450,6.6360,0.8640,2.4540,7.128
15.1540,6.8680,0.7840,2.5920,7.383
15.1670,6.9780,0.6460,2.6160,7.480
15.1750,7.1650,0.2770,2.4400,7.574
15.1860,7.3760,-0.2780,2.2130,7.706
15.1950,7.6100,-0.8850,2.0210,7.923
15.2060,7.7750,-1.4120,2.0180,8.156
15.2150,7.7950,-1.6670,2.1660,8.260
15.2250,7.7480,-1.7330,2.3950,8.293
15.2470,7.6300,-1.6600,2.6540,8.247
15.2480,7.3370,-1.3490,2.9280,8.014
15.2550,6.8730,-0.6990,3.2220,7.623
15.2660,6.3690,0.1780,3.5470,7.292
15.2750,5.8920,0.9600,3.7740,7.063
15.2840,5.4600,1.4870,3.9000,6.873
15.2950,5.0800,1.8410,3.9490,6.693
15.3050,4.7270,1.9970,3.8470,6.413
15.3290,4.4480,1.9810,3.6680,6.096
15.3300,4.2140,1.8260,3.4060,5.718
15.3350,3.9600,1.5460,3.0540,5.234
15.3450,3.7660,1.1070,2.6170,4.718
15.3550,3.6460,0.4750,2.1130,4.241
15.3650,3.4840,-0.2590,1.6510,3.864
15.3750,3.2100,-0.9420,1.3330,3.601
15.3850,2.7860,-1.5440,1.1520,3.387
15.3950,2.3280,-2.0160,1.0970,3.269
15.4050,1.9400,-2.5040,1.1400,3.366
15.4320,1.6200,-2.8650,1.2730,3.529
15.4320,1.3270,-2.9820,1.4860,3.586
15.4350,1.0210,-2.7530,1.7780,3.433
15.4460,0.6050,-2.3840,2.0450,3.199
15.4540,0.4380,-1.9440,2.2550,3.009
15.4660,0.2900,-1.5730,2.4330,2.912
15.4750,0.0780,-1.2450,2.5590,2.847
15.4860,-0.1730,-1.0390,2.6060,2.811
15.4940,-0.5010,-0.8950,2.5610,2.759
15.5060,-0.8530,-0.7910,2.3500,2.622
15.5320,-1.1100,-0.7720,2.0210,2.432
15.5320,-1.2970,-0.8170,1.6290,2.237
15.5350,-1.4700,-0.9310,1.2280,2.130
15.5450,-1.6270,-1.0610,0.8160,2.107
15.5540,-1.8720,-1.2200,0.3950,2.269
15.5660,-2.2200,-1.3890,-0.0350,2.619
15.5750,-2.5740,-1.5370,-0.3730,3.021
15.5850,-2.9680,-1.6170,-0.6170,3.436
15.5950,-3.4000,-1.6960,-0.7890,3.881
15.6060,-3.7200,-1.6870,-0.9200,4.187
15.6180,-4.0110,-1.6450,-1.0260,4.455
15.6340,-4.2500,-1.6280,-1.1470,4.693
15.6350,-4.4040,-1.6510,-1.3400,4.890
15.6450,-4.5130,-1.6860,-1.5100,5.049
15.6550,-4.6600,-1.7480,-1.6070,5.230
15.6660,-4.8600,-1.8930,-1.7960,5.516
15.6750,-5.0370,-2.0640,-1.9360,5.778
15.6840,-5.0270,-2.2670,-2.1680,5.925
15.6950,-4.9640,-2.5780,-2.3480,6.066
15.7050,-4.9070,-2.8430,-2.4760,6.188
15.7260,-4.7920,-2.9960,-2.5950,6.219
15.7260,-4.6990,-2.9990,-2.6340,6.165
15.7360,-4.5110,-2.8720,-2.5890,5.941
15.7450,-4.2350,-2.7000,-2.3690,5.553
15.7550,-3.9750,-2.7060,-2.1500,5.267
15.7650,-3.8080,-2.9100,-2.0740,5.222
15.7750,-3.5440,-3.4310,-2.1430,5.378
15.7860,-3.1670,-4.1630,-2.4120,5.760
15.7950,-2.9030,-4.7830,-2.7170,6.220
15.8050,-2.7980,-5.0900,-2.8720,6.480
15.8280,-2.7940,-5.1090,-2.8370,6.477
15.8300,-2.8960,-4.9680,-2.7360,6.368
15.8350,-3.1120,-4.5710,-2.4830,6.062
15.8450,-3.3690,-3.8120,-2.0630,5.490
15.8550,-3.4930,-2.8750,-1.4670,4.756
15.8660,-3.3950,-1.9910,-0.7630,4.009
15.8750,-3.0850,-1.3890,-0.1440,3.386
15.8850,-2.4050,-1.0130,0.3020,2.627
15.8950,-1.6500,-0.8380,0.5500,1.931
15.9060,-0.9430,-0.7540,0.6930,1.392
15.9310,-0.2560,-0.7040,0.7790,1.081
15.9310,0.3060,-0.7440,0.7840,1.123
15.9340,0.8310,-0.8650,0.6570,1.368
15.9460,1.3080,-1.1340,0.3190,1.760
15.9550,1.6270,-1.5250,-0.1010,2.232
15.9670,1.7570,-1.8470,-0.5060,2.599
15.9740,1.6980,-1.9950,-0.7960,2.738
15.9850,1.5470,-1.9840,-0.9190,2.678
15.9960,1.3100,-1.8240,-0.9250,2.429
16.0050,1.0140,-1.5220,-0.8090,2.000
16.0340,0.7160,-0.9810,-0.5750,1.344
16.0350,0.5140,-0.3370,-0.3510,0.708
16.0350,0.4030,0.2100,-0.1910,0.493
16.0450,0.3530,0.6810,-0.0390,0.768
16.0550,0.3610,1.0410,0.1630,1.114
16.0660,0.4420,1.3430,0.3790,1.464
16.0750,0.6130,1.5610,0.5580,1.767
16.0860,0.8460,1.7130,0.6500,2.018
16.0960,1.1090,1.7740,0.6300,2.185
16.1100,1.3360,1.7770,0.5570,2.292
16.1150,1.4680,1.6780,0.4070,2.266
16.1350,1.4730,1.4680,0.2640,2.096
16.1360,1.4130,1.1960,0.1930,1.861
16.1450,1.3720,0.9060,0.1920,1.655
16.1540,1.3810,0.6500,0.2610,1.548
16.1660,1.4370,0.4220,0.3960,1.549
16.1740,1.5720,0.1610,0.5880,1.686
16.1850,1.8090,-0.0430,0.8540,2.001
16.1950,2.1190,-0.1170,1.1740,2.425
16.2050,2.5200,-0.0950,1.5630,2.967
16.2230,2.9720,0.0090,1.9340,3.546
16.2240,3.3040,0.1260,2.2240,3.985
16.2340,3.7040,0.2700,2.4820,4.467
16.2450,4.1510,0.3950,2.6720,4.952
16.2540,4.6730,0.5530,2.8480,5.500
16.2640,5.2930,0.6290,2.9940,6.114
16.2740,6.0050,0.6890,3.1210,6.803
16.2840,6.6650,0.7110,3.2840,7.464
16.2940,7.2870,0.7610,3.4260,8.088
16.3060,7.8560,0.7710,3.5760,8.666
16.3400,8.3190,0.7410,3.6450,9.113
16.3400,8.7240,0.5370,3.6640,9.477
16.3410,9.0580,-0.0020,3.5670,9.735
16.3450,9.3610,-0.7610,3.3980,9.988
16.3550,9.4960,-1.4500,3.3260,10.166
16.3650,9.4770,-1.8560,3.3290,10.215
16.3750,9.3260,-2.0040,3.3110,10.097
16.3850,9.0900,-2.0320,3.2950,9.880
16.3940,8.6740,-1.7830,3.2760,9.442
16.4050,8.0250,-1.2090,3.3410,8.776
16.4140,7.3090,-0.4870,3.5510,8.141
16.4270,6.6630,0.2340,3.8130,7.680
16.4340,6.0820,0.8370,3.9850,7.319
16.4440,5.5760,1.1650,3.9570,6.936
16.4540,5.1320,1.1960,3.7990,6.496
16.4650,4.7250,1.0920,3.5790,6.027
16.4750,4.4000,0.8860,3.3730,5.614
16.4850,4.0960,0.5350,3.1780,5.212
16.4950,3.7070,0.1020,2.9130,4.716
16.5040,3.2890,-0.4750,2.5710,4.202
16.5230,2.8560,-1.1020,2.1940,3.766
16.5240,2.3000,-1.7420,1.8250,3.414
16.5340,1.6270,-2.2710,1.5210,3.181
16.5450,0.9220,-2.6640,1.3570,3.129
16.5540,0.2570,-2.8660,1.2870,3.152
16.5650,-0.5420,-2.9000,1.2030,3.186
16.5740,-1.1090,-2.9650,1.0470,3.334
16.5880,-1.5110,-2.7310,0.9930,3.275
16.5950,-1.8970,-2.3880,1.0740,3.233
16.6050,-2.0910,-1.9840,1.1730,3.112
16.6280,-2.1030,-1.6250,1.2890,2.954
16.6290,-1.9170,-1.3160,1.4170,2.723
16.6340,-1.6920,-1.0470,1.5140,2.500
16.6470,-1.6080,-0.8190,1.5340,2.368
16.6550,-1.5500,-0.6940,1.4080,2.206
16.6660,-1.4690,-0.6940,1.1520,1.992
16.6740,-1.4940,-0.6500,0.8260,1.827
16.6860,-1.5870,-0.6300,0.4840,1.775
16.6940,-1.6690,-0.6610,0.1630,1.803
16.7040,-1.8590,-0.6930,-0.1380,1.989
16.7280,-2.0850,-0.6880,-0.3930,2.230
16.7280,-2.2550,-0.7130,-0.6020,2.440
16.7340,-2.3450,-0.7610,-0.6980,2.562
16.7480,-2.4170,-0.8010,-0.7060,2.642
16.7540,-2.5690,-0.8610,-0.6470,2.786
16.7640,-2.8040,-0.9550,-0.5300,3.009
16.7740,-3.0260,-1.0910,-0.4480,3.248
16.7850,-3.1740,-1.2310,-0.3830,3.426
16.8020,-3.2480,-1.4410,-0.3570,3.571
16.8030,-3.3280,-1.6960,-0.3780,3.754
16.8240,-3.4440,-1.9530,-0.4320,3.983
16.8250,-3.5670,-2.2380,-0.5020,4.241
16.8340,-3.7300,-2.6140,-0.6630,4.603
16.8470,-3.8980,-3.0560,-0.9170,5.037
16.8540,-4.1340,-3.3240,-1.1810,5.434
16.8650,-4.4020,-3.4430,-1.3710,5.754
16.8750,-4.6640,-3.3920,-1.5520,5.972
16.8840,-4.9230,-3.2320,-1.7060,6.131
16.8950,-5.0040,-2.9810,-1.7590,6.084
16.9040,-4.8940,-2.7990,-1.8310,5.928
16.9180,-4.5660,-2.8450,-1.9280,5.715
16.9240,-3.9610,-3.2460,-2.0370,5.511
16.9420,-3.4000,-3.8540,-2.1800,5.583
16.9460,-3.2120,-4.2290,-2.3340,5.801
16.9550,-3.2410,-4.3140,-2.4240,5.915
16.9680,-3.3170,-4.2810,-2.5110,5.969
16.9740,-3.4410,-4.1910,-2.6170,6.021
16.9850,-3.6120,-3.8130,-2.7150,5.912
16.9940,-3.7750,-3.0740,-2.6860,5.560
17.0040,-3.7250,-2.2970,-2.4660,5.023
17.0170,-3.4840,-1.4960,-2.0850,4.327
17.0240,-3.0750,-0.9220,-1.6750,3.621
17.0470,-2.5210,-0.6240,-1.3240,2.915
17.0470,-1.8550,-0.5480,-1.0460,2.199
17.0540,-1.1910,-0.5810,-0.8300,1.564
17.0640,-0.5300,-0.7130,-0.6970,1.129
17.0750,0.1470,-0.8210,-0.5900,1.022
17.0850,0.8400,-1.0280,-0.5410,1.434
17.0950,1.4110,-1.3240,-0.5980,2.025
17.1040,1.7810,-1.6260,-0.7380,2.522
17.1160,1.9660,-1.8150,-0.8510,2.808
17.1240,1.9910,-1.8860,-0.9170,2.892
17.1560,1.9470,-1.8210,-0.9150,2.819
17.1560,1.8420,-1.5830,-0.8140,2.562
17.1570,1.6960,-1.2200,-0.6290,2.182
17.1630,1.4980,-0.7390,-0.3870,1.715
17.1740,1.2910,-0.2400,-0.0780,1.315
17.1840,1.1090,0.2940,0.2350,1.171
17.1940,1.0390,0.7490,0.5180,1.382
17.2040,1.0540,1.1340,0.7290,1.711
17.2190,1.1150,1.4640,0.8570,2.030
17.2250,1.2260,1.6940,0.8570,2.260
17.2520,1.4110,1.7970,0.7430,2.403
17.2520,1.6520,1.8170,0.6120,2.531
17.2540,1.8690,1.7940,0.5620,2.651
17.2670,1.9590,1.7450,0.5930,2.690
17.2730,1.9720,1.6090,0.6470,2.626
17.2840,1.9830,1.3480,0.7180,2.503
17.2940,2.0150,1.0290,0.8400,2.413
17.3040,2.0840,0.7250,0.9860,2.417
17.3180,2.2220,0.4430,1.1920,2.560
17.3240,2.4210,0.2330,1.4020,2.807
17.3560,2.6400,0.1330,1.6080,3.094
17.3560,2.8940,0.1310,1.7900,3.405
17.3570,3.1770,0.1880,1.9920,3.755
17.3640,3.4650,0.3030,2.2030,4.117
17.3740,3.6540,0.4360,2.3930,4.390
17.3840,3.8120,0.5920,2.5800,4.641
17.3940,3.9830,0.7340,2.7590,4.901
17.4040,4.2650,0.8620,2.8890,5.223
17.4170,4.6140,0.9560,3.0620,5.619
17.4250,4.9900,0.9390,3.1740,5.988
17.4510,5.4110,0.7940,3.3220,6.399
17.4510,5.8360,0.6680,3.4280,6.801
17.4540,6.1240,0.5190,3.4460,7.046
17.4640,6.3060,0.3400,3.3430,7.145
17.4740,6.4200,-0.0120,3.1860,7.167
17.4870,6.5410,-0.5880,2.9730,7.209
17.4940,6.6180,-1.4210,2.7530,7.307
17.5040,6.6020,-2.1920,2.6510,7.444
17.5180,6.5150,-2.5200,2.7460,7.506
17.5240,6.3970,-2.5070,2.9260,7.468
17.5520,6.3770,-2.2810,3.2160,7.497
17.5530,6.2620,-1.9000,3.5630,7.451
17.5540,5.8790,-1.2580,3.8880,7.160
17.5630,5.4020,-0.3230,4.1750,6.835
17.5730,5.0910,0.6580,4.4800,6.813
17.5840,4.8620,1.4090,4.6670,6.885
17.5940,4.6510,2.0240,4.8370,7.009
17.6030,4.5110,2.3160,4.8680,7.029
17.6180,4.3820,2.3590,4.7480,6.878
17.6240,4.2290,2.1790,4.4780,6.533
17.6560,4.1050,1.8070,4.0550,6.046
17.6570,3.9490,1.3010,3.5230,5.450
17.6570,3.6700,0.7450,2.9780,4.785
17.6640,3.4360,0.0930,2.4110,4.199
17.6730,3.2660,-0.6960,1.9200,3.852
17.6840,3.0110,-1.5220,1.5610,3.717
17.6980,2.6020,-2.2360,1.3050,3.671
17.7030,2.1230,-2.6930,1.1260,3.609
17.7170,1.6790,-2.8570,1.0280,3.470
17.7230,1.3860,-2.7720,1.1070,3.291
17.7330,0.9370,-2.6270,1.2450,3.054
17.7450,0.5520,-2.3990,1.4850,2.875
17.7660,0.2200,-2.0250,1.7660,2.696
17.7660,0.0650,-1.6620,2.0540,2.643
17.7730,-0.0010,-1.3290,2.3190,2.673
17.7840,-0.0470,-1.0540,2.4880,2.702
17.7940,-0.1890,-0.8260,2.5310,2.669
17.8040,-0.4000,-0.6600,2.4360,2.555
17.8150,-0.6030,-0.6140,2.2000,2.362
17.8240,-0.7900,-0.6210,1.8790,2.131
17.8490,-0.9710,-0.6930,1.5020,1.918
17.8490,-1.1740,-0.7270,1.1390,1.790
17.8520,-1.3910,-0.7900,0.8050,1.791
17.8650,-1.6410,-0.8530,0.4990,1.916
17.8730,-1.9290,-0.9560,0.2090,2.163
17.8870,-2.2280,-1.0700,-0.0460,2.472
17.8920,-2.5130,-1.1850,-0.2620,2.791
17.9030,-2.8200,-1.2680,-0.4580,3.126
17.9140,-3.2250,-1.3150,-0.6240,3.538
17.9230,-3.6240,-1.3170,-0.7850,3.935
17.9530,-3.9560,-1.3910,-0.9380,4.297
17.9540,-4.1130,-1.4850,-1.1030,4.510
17.9540,-4.2300,-1.5820,-1.2650,4.690
17.9630,-4.4440,-1.6290,-1.4180,4.941
17.9730,-4.5340,-1.7820,-1.6200,5.134
17.9840,-4.5540,-2.0210,-1.8280,5.307
17.9930,-4.5400,-2.3850,-2.0680,5.530
18.0040,-4.5570,-2.6940,-2.2430,5.749
18.0160,-4.6540,-2.9070,-2.3870,5.984
18.0230,-4.7750,-2.9730,-2.4820,6.148
18.0510,-4.8240,-3.0120,-2.5080,6.216
18.0510,-4.8120,-2.9120,-2.5170,6.162
18.0530,-4.6480,-2.7680,-2.4010,5.919
18.0630,-4.3590,-2.7620,-2.1950,5.608
18.0730,-4.0300,-2.9660,-2.0430,5.405
18.0830,-3.6060,-3.4700,-2.0370,5.403
18.0940,-3.2400,-4.0540,-2.1550,5.619
18.1030,-3.0920,-4.3190,-2.2710,5.777
18.1140,-2.9720,-4.4970,-2.3920,5.897
18.1240,-2.8510,-4.6180,-2.4220,5.943
18.1330,-2.8320,-4.5810,-2.3770,5.887
18.1430,-2.9480,-4.2620,-2.2640,5.655
18.1610,-3.1130,-3.6330,-1.9950,5.184
18.1630,-3.2420,-2.7730,-1.5410,4.536
18.1730,-3.2520,-1.8780,-0.9580,3.876
18.1850,-3.0760,-1.1850,-0.3880,3.319
18.1930,-2.6570,-0.7800,0.0340,2.769
18.2040,-2.0110,-0.5740,0.3210,2.116
18.2190,-1.3220,-0.5420,0.4280,1.492
18.2230,-0.5830,-0.5780,0.4770,0.949
18.2540,0.0340,-0.6740,0.4340,0.802
18.2550,0.5990,-0.7880,0.3340,1.045
18.2550,1.0820,-1.0350,0.1110,1.501
18.2630,1.3840,-1.3400,-0.2120,1.938
18.2730,1.5260,-1.6150,-0.5570,2.291
18.2840,1.5530,-1.7670,-0.8370,2.497
18.2930,1.4710,-1.7580,-1.0250,2.511
18.3040,1.3470,-1.5870,-1.0650,2.338
18.3140,1.2630,-1.2800,-1.0090,2.062
18.3230,1.1600,-0.8150,-0.8070,1.631
18.3510,1.0390,-0.2400,-0.5470,1.198
18.3510,0.9310,0.2290,-0.3090,1.007
18.3520,0.9050,0.5950,-0.0610,1.085
18.3630,1.0560,0.8850,0.2250,1.396
18.3730,1.3100,1.1590,0.5500,1.834
18.3840,1.5660,1.4120,0.8660,2.279
18.3930,1.7750,1.5830,1.0560,2.602
18.4030,1.9410,1.7060,1.1160,2.815
18.4170,2.0590,1.7260,1.1020,2.904
18.4230,2.0250,1.7020,1.0140,2.833
18.4530,1.9760,1.6040,0.9270,2.709
18.4540,1.9690,1.3390,0.8250,2.520
18.4540,2.0160,1.0390,0.7310,2.383
18.4650,2.0970,0.7610,0.6900,2.335
18.4730,2.2930,0.4950,0.7180,2.453
18.4840,2.5690,0.1910,0.8530,2.714
18.4930,2.8470,0.0020,1.0660,3.040
18.5110,3.0940,-0.0380,1.4040,3.398
18.5130,3.3560,0.0240,1.8150,3.815
18.5230,3.6610,0.1780,2.2070,4.278
18.5320,3.8930,0.4090,2.5130,4.652
18.5500,4.0920,0.6510,2.7250,4.959
18.5530,4.3710,0.8770,2.8410,5.286
18.5710,4.7410,1.0570,2.9300,5.673
18.5720,5.1600,1.1530,3.0260,6.092
18.5830,5.6610,1.1650,3.1380,6.577
18.5930,6.2290,1.1290,3.2610,7.121
18.6020,6.6890,1.0500,3.4310,7.591
18.6140,7.0080,0.9880,3.4710,7.883
18.6220,7.2090,0.9230,3.4160,8.031
18.6350,7.3950,0.7170,3.2660,8.116
18.6430,7.4940,0.2920,3.0860,8.110
18.6520,7.6080,-0.2860,2.9380,8.161
18.6630,7.6750,-0.9910,2.8880,8.260
18.6730,7.6450,-1.6460,2.9470,8.357
18.6820,7.4590,-1.9540,3.1030,8.312
18.6940,7.2750,-2.0260,3.2850,8.235
18.7030,7.1130,-1.8680,3.4950,8.142
18.7120,6.8830,-1.4120,3.7720,7.975
18.7220,6.4280,-0.6730,4.1110,7.660
18.7340,5.9940,0.1710,4.3600,7.414
18.7590,5.6860,0.9030,4.4990,7.307
18.7590,5.5430,1.3890,4.5560,7.308
18.7620,5.4000,1.6630,4.5230,7.238
18.7730,5.2640,1.6600,4.3690,7.039
18.7830,5.0230,1.4180,4.1470,6.666
18.7940,4.7170,1.0550,3.8100,6.155
18.8030,4.4830,0.5590,3.4030,5.656
18.8120,4.3710,-0.0160,2.9470,5.272
18.8250,4.1780,-0.7180,2.5170,4.930
18.8340,3.8410,-1.4630,2.1580,4.642
18.8710,3.3370,-2.1420,1.9620,4.424
18.8720,2.8290,-2.6940,1.8540,4.324
18.8720,2.3060,-3.1410,1.8340,4.307
18.8730,1.7730,-3.3630,1.8390,4.223
18.8820,1.3950,-3.3640,1.9400,4.126
18.8930,0.8990,-3.2350,2.0350,3.926
18.9030,0.4850,-2.9330,2.2230,3.712
18.9150,0.1320,-2.4750,2.4140,3.460
18.9250,-0.1760,-1.9960,2.6480,3.321
18.9320,-0.4110,-1.5400,2.8280,3.246
18.9680,-0.4910,-1.2470,2.9360,3.227
18.9680,-0.5340,-1.0830,2.9250,3.164
18.9680,-0.6050,-0.9610,2.7380,2.964
18.9720,-0.6610,-0.9420,2.4130,2.673
18.9830,-0.7520,-1.0070,2.0300,2.388
18.9920,-0.9310,-1.0670,1.5990,2.136
19.0020,-1.1240,-1.1810,1.1450,1.992
19.0130,-1.2220,-1.3440,0.7410,1.962
19.0220,-1.3790,-1.5270,0.3480,2.087
19.0470,-1.6840,-1.6770,-0.0040,2.377
19.0480,-2.0650,-1.8760,-0.3160,2.808
19.0520,-2.4730,-2.0780,-0.5720,3.280
19.0630,-2.9050,-2.1600,-0.7520,3.697
19.0730,-3.3800,-2.2450,-0.9340,4.164
19.0820,-3.8240,-2.3240,-1.1240,4.614
19.0930,-4.1860,-2.3320,-1.2900,4.962
19.1020,-4.4100,-2.3010,-1.4360,5.177
19.1120,-4.6770,-2.2220,-1.6490,5.434
19.1220,-4.8350,-2.2410,-1.8680,5.647
19.1340,-5.0010,-2.2310,-2.1300,5.876
19.1780,-5.0540,-2.1740,-2.3670,5.989
19.1780,-5.0530,-2.2820,-2.5860,6.118
19.1780,-5.0810,-2.4240,-2.8410,6.306
19.1790,-5.0480,-2.4890,-3.0150,6.385
19.1820,-4.9500,-2.5880,-3.1300,6.403
19.1930,-4.8150,-2.6810,-3.1700,6.358
19.2030,-4.5200,-2.7040,-3.0400,6.081
19.2120,-4.0600,-2.6620,-2.8720,5.641
19.2230,-3.5140,-2.7040,-2.6680,5.175
19.2340,-3.0750,-2.9160,-2.5070,4.924
19.2580,-2.8060,-3.4000,-2.4840,5.060
19.2590,-2.7270,-4.0290,-2.5570,5.496
19.2620,-2.7440,-4.4580,-2.5030,5.802
19.2720,-2.8330,-4.6640,-2.2510,5.903
19.2820,-2.8920,-4.7360,-1.9300,5.875
19.2930,-2.9350,-4.5410,-1.6510,5.653
19.3030,-3.1560,-4.0240,-1.4350,5.312
19.3130,-3.4830,-3.2760,-1.1660,4.922
19.3220,-3.7250,-2.3550,-0.7370,4.468
19.3320,-3.7640,-1.3730,-0.2330,4.013
19.3580,-3.3650,-0.5640,0.2690,3.423
19.3590,-2.7740,0.0310,0.5970,2.838
19.3620,-1.9440,0.3180,0.7170,2.096
19.3720,-1.0100,0.3410,0.5670,1.207
19.3820,-0.0910,0.3460,0.2520,0.438
19.3930,0.7320,0.4000,-0.0830,0.838
19.4030,1.3750,0.3350,-0.4200,1.476
19.4120,1.8110,0.1480,-0.7600,1.970
19.4220,2.0650,-0.1320,-1.0410,2.316
19.4320,2.1550,-0.4750,-1.2950,2.559
19.4550,2.0800,-0.8280,-1.4790,2.683
19.4570,2.0340,-1.1600,-1.6120,2.843
19.4620,1.8790,-1.4120,-1.5820,2.833
19.4750,1.6610,-1.4490,-1.4260,2.625
19.4830,1.4380,-1.2060,-1.1350,2.193
19.4920,1.2970,-0.8400,-0.7240,1.706
19.5010,1.2690,-0.4800,-0.2390,1.378
19.5110,1.3030,-0.1750,0.2520,1.339
19.5220,1.4290,0.1100,0.7680,1.626
19.5320,1.5940,0.3940,1.2400,2.058
19.5590,1.7770,0.6510,1.5730,2.461
19.5590,2.0640,0.8380,1.7220,2.816
19.5620,2.4180,0.9490,1.7820,3.150
19.5710,2.7450,1.0070,1.8290,3.449
19.5820,3.0170,1.0210,1.8790,3.698
19.5950,3.2360,1.0140,1.9520,3.913
19.6020,3.4210,0.9800,2.0360,4.100
19.6140,3.5810,0.9490,2.0850,4.251
19.6230,3.6900,0.9230,2.0990,4.344
19.6320,3.7830,0.8470,2.0680,4.394
19.6570,3.8950,0.7460,2.0420,4.461
19.6580,4.0110,0.6530,2.0740,4.562
19.6620,4.1470,0.6190,2.2010,4.736
19.6720,4.2800,0.6670,2.4080,4.956
19.6820,4.4330,0.7510,2.6780,5.233
19.6920,4.5960,0.8240,2.9290,5.512
19.7020,4.7780,0.9220,3.1810,5.814
19.7130,4.9790,0.9900,3.3760,6.097
19.7220,5.1780,1.0660,3.5540,6.370
19.7320,5.4310,1.1070,3.6990,6.664
19.7420,5.7360,1.0930,3.8070,6.971
19.7520,6.0400,0.9920,3.8310,7.221
19.7630,6.3350,0.8430,3.8250,7.448
19.7720,6.5550,0.6190,3.7790,7.592
19.7820,6.7360,0.4330,3.6870,7.691
19.7920,6.8360,0.2340,3.5650,7.713
19.8020,6.8620,-0.0540,3.4080,7.662
19.8150,6.9720,-0.5090,3.1960,7.687
19.8220,7.1820,-1.1930,2.9930,7.872
19.8390,7.3580,-1.9060,2.8930,8.133
19.8410,7.4080,-2.3010,3.0100,8.321
19.8530,7.4970,-2.3950,3.2240,8.505
19.8620,7.5860,-2.4030,3.4720,8.682
19.8720,7.3860,-2.1540,3.7670,8.566
19.8820,7.0650,-1.5960,4.0510,8.299
19.8940,6.7230,-0.6720,4.3650,8.044
19.9030,6.4660,0.3260,4.5570,7.917
19.9120,6.2630,1.2180,4.7500,7.954
19.9220,6.2400,1.9000,4.8310,8.117
19.9320,6.2510,2.2950,4.9300,8.285
19.9420,6.2360,2.3730,4.9850,8.329
19.9650,6.2070,2.1170,4.9990,8.246
19.9660,6.0050,1.7200,4.7960,7.875
19.9720,5.5820,1.2230,4.3890,7.205
19.9820,5.1270,0.5910,3.8530,6.441
19.9930,4.7620,-0.1820,3.2180,5.750
20.0020,4.3920,-0.9830,2.6520,5.224
20.0120,3.8830,-1.7310,2.2110,4.792
20.0210,3.2740,-2.3800,1.9030,4.473
20.0310,2.6780,-2.8880,1.6810,4.282
20.0550,2.0800,-3.2570,1.4620,4.132
20.0550,1.5770,-3.4420,1.3190,4.009
20.0610,1.1240,-3.4150,1.2940,3.821
20.0710,0.7030,-3.2000,1.3520,3.544
20.0810,0.4060,-2.9590,1.5150,3.349
20.0920,0.0020,-2.6970,1.6610,3.167
20.1020,-0.2670,-2.5120,1.7760,3.088
20.1150,-0.5700,-2.2030,1.8940,2.961
20.1230,-0.7940,-1.8570,1.9740,2.824
20.1330,-0.9450,-1.5950,1.9410,2.684
20.1520,-1.0170,-1.4310,1.7460,2.476
20.1520,-1.0910,-1.3110,1.4670,2.250
20.1620,-1.1930,-1.2290,1.0680,2.018
20.1730,-1.3330,-1.2580,0.5980,1.928
20.1810,-1.5780,-1.3340,0.1340,2.071
20.1910,-1.9140,-1.3950,-0.2880,2.386
20.2010,-2.3270,-1.3780,-0.6450,2.780
20.2120,-2.6720,-1.3020,-0.8770,3.099
20.2240,-2.9340,-1.3240,-1.2060,3.437
20.2320,-3.1330,-1.3380,-1.4490,3.702
20.2570,-3.3110,-1.3010,-1.6370,3.916
20.2570,-3.5230,-1.3060,-1.7890,4.161
20.2610,-3.7690,-1.2630,-1.8540,4.386
20.2720,-4.0340,-1.2350,-1.9250,4.637
20.2810,-4.2790,-1.3070,-2.0430,4.919
20.2920,-4.5090,-1.4170,-2.2050,5.215
20.3010,-4.7380,-1.5560,-2.3930,5.531
20.3120,-4.9260,-1.7550,-2.5890,5.835
20.3300,-5.0840,-2.0200,-2.8150,6.152
20.3310,-5.1570,-2.3590,-2.9940,6.413
20.3420,-5.1530,-2.6130,-3.2080,6.609
20.3550,-5.1160,-2.6300,-3.2870,6.625
20.3620,-5.0110,-2.6110,-3.2580,6.522
20.3720,-4.8810,-2.5180,-3.0880,6.301
20.3810,-4.6960,-2.3140,-2.7350,5.907
20.3910,-4.3140,-2.2210,-2.3190,5.378
20.4030,-3.7960,-2.4040,-1.9940,4.916
20.4110,-3.1940,-2.8700,-1.8770,4.686
20.4210,-2.6270,-3.4010,-1.9640,4.725
20.4310,-2.3170,-3.8020,-2.1650,4.951
20.4570,-2.2210,-4.0860,-2.4240,5.244
20.4570,-2.1010,-4.4480,-2.6490,5.587
20.4620,-2.0520,-4.6790,-2.7740,5.814
20.4710,-2.2190,-4.4230,-2.7130,5.643
20.4810,-2.5440,-3.6270,-2.3840,5.031
20.4920,-2.7270,-2.6190,-1.7550,4.168
20.5030,-2.6190,-1.7270,-0.9600,3.281
20.5120,-2.2570,-1.0940,-0.1990,2.516
20.5240,-1.6850,-0.7110,0.3850,1.869
20.5310,-0.9070,-0.4260,0.8150,1.292
20.5560,-0.0040,-0.2490,1.0120,1.042
20.5560,0.9050,-0.0780,1.1530,1.468
20.5610,1.7680,0.0310,1.1830,2.128
20.5710,2.4700,0.1010,1.1100,2.710
20.5810,3.0520,-0.0010,0.9480,3.196
20.5910,3.4830,-0.2700,0.6550,3.554
20.6030,3.6920,-0.6070,0.3240,3.756
20.6120,3.7760,-0.8930,0.0390,3.880
20.6210,3.6650,-1.1540,-0.1600,3.846
20.6310,3.2870,-1.2820,-0.2390,3.536
20.6410,2.8220,-1.2440,-0.2070,3.091
20.6510,2.4650,-1.0540,-0.0750,2.682
20.6620,2.2270,-0.7080,0.1660,2.343
20.6730,2.0860,-0.2700,0.4870,2.159
20.6860,2.1230,0.1200,0.8230,2.280
20.6900,2.2910,0.4300,1.1320,2.591
20.7020,2.5100,0.7130,1.4390,2.980
20.7120,2.7350,0.9530,1.7100,3.363
20.7240,2.9540,1.1410,1.9370,3.712
20.7310,3.1590,1.2960,2.1140,4.016
20.7650,3.3670,1.3940,2.3160,4.318
20.7650,3.5460,1.4590,2.5250,4.591
20.7650,3.7040,1.4650,2.7110,4.818
20.7710,3.8450,1.4210,2.8600,4.998
20.7800,3.9710,1.3100,2.9910,5.141
20.7920,4.0630,1.1500,3.0610,5.215
20.8000,4.1060,0.9860,3.0970,5.237
20.8110,4.1450,0.8090,3.1430,5.264
20.8230,4.1740,0.6340,3.2110,5.304
20.8310,4.2360,0.5280,3.3250,5.411
20.8580,4.3460,0.4860,3.5080,5.606
20.8580,4.5010,0.4760,3.7040,5.849
20.8600,4.7130,0.5160,3.8960,6.137
20.8700,4.9230,0.6340,4.0830,6.427
20.8800,5.1030,0.7420,4.2010,6.651
20.8910,5.3530,0.7480,4.2770,6.893
20.9010,5.6020,0.6540,4.3070,7.097
20.9110,5.7980,0.5300,4.3260,7.253
20.9200,6.0060,0.4860,4.3640,7.440
20.9310,6.2190,0.4090,4.4050,7.632
20.9510,6.3330,0.2650,4.4190,7.727
20.9510,6.4310,0.0620,4.3860,7.785
20.9610,6.4860,-0.2380,4.3490,7.813
20.9710,6.5070,-0.6240,4.3120,7.831
20.9810,6.6650,-1.2200,4.1920,7.968
20.9910,6.9110,-1.9760,4.0500,8.250
21.0010,6.9970,-2.4990,3.9610,8.420
21.0120,7.0340,-2.5890,4.0050,8.498
21.0210,7.1260,-2.4130,4.1320,8.583
21.0310,7.0620,-1.9940,4.3950,8.554
21.0570,6.7150,-1.2490,4.7080,8.296
21.0580,6.4050,-0.2710,4.9660,8.109
21.0600,6.2520,0.6960,5.1190,8.110
21.0710,6.2270,1.3900,5.2310,8.251
21.0800,6.3640,1.8850,5.3040,8.496
21.0910,6.4210,2.0980,5.3630,8.625
21.1000,6.5000,2.0280,5.3520,8.661
21.1110,6.3750,1.7770,5.2650,8.457
21.1260,6.0320,1.3770,4.9800,7.942
21.1300,5.6290,0.8260,4.4970,7.252
21.1510,5.1660,0.1140,3.9450,6.501
21.1510,4.8870,-0.7030,3.3780,5.982
21.1600,4.4920,-1.5700,2.9040,5.575
21.1710,3.9200,-2.3690,2.5340,5.234
21.1810,3.2980,-2.9360,2.3620,5.008
21.1900,2.5600,-3.2800,2.2730,4.741
21.2000,1.9130,-3.3470,2.2440,4.461
21.2100,1.3840,-3.2280,2.2770,4.186
21.2210,0.9320,-2.9720,2.3320,3.891
21.2340,0.5850,-2.6090,2.3420,3.554
21.2520,0.3840,-2.1800,2.4160,3.277
21.2520,0.1530,-1.7910,2.4300,3.023
21.2610,0.0330,-1.4940,2.4320,2.854
21.2720,0.0120,-1.1700,2.4060,2.675
21.2810,0.0150,-0.9350,2.3290,2.510
21.2910,-0.0470,-0.8280,2.1560,2.310
21.3000,-0.2270,-0.7770,1.8850,2.051
21.3130,-0.4310,-0.7390,1.5360,1.758
21.3210,-0.6120,-0.7770,1.0970,1.477
21.3310,-0.7550,-0.8510,0.6910,1.331
21.3530,-0.9550,-0.9800,0.3620,1.415
21.3530,-1.2490,-1.0660,0.0990,1.645
21.3600,-1.5860,-1.1170,-0.0830,1.942
21.3700,-1.8880,-1.1930,-0.2280,2.245
21.3820,-2.1090,-1.2890,-0.3210,2.492
21.4060,-2.3000,-1.4110,-0.4040,2.728
21.4070,-2.4190,-1.5010,-0.4530,2.883
21.4110,-2.6080,-1.5440,-0.5200,3.075
21.4230,-2.9540,-1.4770,-0.5560,3.349
21.4310,-3.2880,-1.4350,-0.6050,3.638
21.4450,-3.5390,-1.4450,-0.6710,3.881
21.4510,-3.6670,-1.5720,-0.8050,4.070
21.4680,-3.7810,-1.8350,-1.0380,4.329
21.4720,-3.9940,-2.0560,-1.2590,4.665
21.4800,-4.2030,-2.2310,-1.5370,5.000
21.4910,-4.4470,-2.3970,-1.7320,5.341
21.5000,-4.7000,-2.5030,-1.8710,5.644
21.5100,-4.9320,-2.6300,-2.0410,5.950
21.5260,-5.0400,-2.6750,-2.1660,6.103
21.5310,-5.1010,-2.5470,-2.2310,6.122
21.5560,-4.9060,-2.4820,-2.2480,5.940
21.5560,-4.2860,-2.5000,-2.2040,5.429
21.5610,-3.4950,-2.7290,-2.1450,4.926
21.5720,-2.8020,-3.1890,-2.1030,4.737
21.5800,-2.5170,-3.6160,-2.0990,4.880
21.5910,-2.6370,-3.7540,-2.0780,5.036
21.6010,-2.7480,-3.7520,-2.0730,5.092
21.6100,-2.6990,-3.7120,-2.1450,5.066
21.6200,-2.7870,-3.5170,-2.2360,5.014
21.6300,-3.0840,-3.0530,-2.3260,4.924
21.6500,-3.3590,-2.3780,-2.3160,4.722
21.6500,-3.4270,-1.5890,-2.0140,4.281
21.6600,-3.0640,-0.9910,-1.5330,3.567
21.6730,-2.4430,-0.6610,-1.0030,2.722
21.6800,-1.6980,-0.5990,-0.5660,1.887
21.6910,-0.8160,-0.6360,-0.3480,1.092
21.7000,-0.0100,-0.5370,-0.2420,0.589
21.7100,0.7110,-0.4750,-0.2350,0.887
21.7200,1.3750,-0.5260,-0.3100,1.504
21.7300,1.8470,-0.7030,-0.4440,2.026
21.7500,2.1210,-0.8890,-0.5610,2.367
21.7500,2.2250,-1.0370,-0.6840,2.548
21.7610,2.2280,-1.0480,-0.7560,2.576
21.7720,2.1720,-0.9620,-0.7430,2.489
21.7800,2.0840,-0.8030,-0.6430,2.324
21.7910,1.9870,-0.5010,-0.4910,2.107
21.8000,1.8940,-0.0760,-0.3090,1.921
21.8110,1.8150,0.3850,-0.1290,1.860
21.8200,1.7890,0.7640,0.0710,1.947
21.8300,1.7740,1.0430,0.3170,2.082
21.8470,1.7840,1.2620,0.6060,2.268
21.8490,1.8690,1.4330,0.9260,2.531
21.8600,1.9370,1.5480,1.1760,2.744
21.8720,2.0690,1.5830,1.3450,2.932
21.8800,2.2470,1.5540,1.4660,3.100
21.8900,2.3780,1.4890,1.6030,3.231
21.9000,2.4610,1.3030,1.7530,3.290
21.9150,2.4970,1.0760,1.9400,3.340
21.9200,2.5240,0.8410,2.1460,3.418
21.9300,2.5870,0.5970,2.3560,3.550
21.9540,2.7290,0.2580,2.5640,3.753
21.9550,2.9790,-0.1130,2.8120,4.098
21.9590,3.2580,-0.4320,3.0710,4.498
21.9710,3.5110,-0.6490,3.3710,4.910
21.9800,3.7270,-0.7870,3.6550,5.279
21.9900,3.9080,-0.8690,4.0110,5.667
22.0000,4.0930,-0.8470,4.4070,6.074
22.0110,4.3040,-0.7570,4.8450,6.525
22.0200,4.4290,-0.5800,5.2960,6.928
22.0300,4.5580,-0.4610,5.6950,7.309
22.0530,4.9170,-0.2850,5.9930,7.757
22.0530,5.3140,-0.2450,6.2200,8.185
22.0600,5.7870,-0.2620,6.3080,8.564
22.0710,6.2340,-0.3230,6.2890,8.861
22.0800,6.5620,-0.4030,6.1360,8.993
22.0900,6.8600,-0.4300,5.8710,9.040
22.1000,6.9940,-0.4420,5.5670,8.950
22.1100,7.0860,-0.5440,5.2590,8.841
22.1250,7.2110,-0.8560,5.0110,8.823
22.1300,7.4290,-1.3710,4.7910,8.946
22.1490,7.6520,-1.9920,4.6450,9.170
22.1500,7.6860,-2.4150,4.6170,9.286
22.1600,7.7890,-2.4260,4.7310,9.431
22.1710,7.7890,-2.1940,4.9380,9.480
22.1800,7.6590,-1.4970,5.1990,9.377
22.1910,7.4100,-0.8230,5.5120,9.272
22.2000,6.7010,0.1590,5.8490,8.896
22.2100,6.0500,1.0680,6.0310,8.609
22.2230,6.5540,1.3040,6.1350,9.072
22.2300,6.4050,1.7720,6.1130,9.030
22.2450,6.1420,2.0380,5.8680,8.736
22.2490,6.1620,1.8150,5.4860,8.448
22.2600,6.1280,1.4300,5.1000,8.100
22.2710,5.8440,1.0800,4.6800,7.564
22.2800,5.5700,0.5780,4.2270,7.016
22.2890,5.4350,-0.1170,3.7060,6.579
22.3000,5.2740,-0.8660,3.2360,6.248
22.3120,4.9690,-1.4920,2.8640,5.926
22.3200,4.5990,-2.0530,2.6400,5.686
22.3300,4.1310,-2.4280,2.5640,5.435
22.3480,3.7530,-2.6960,2.6740,5.339
22.3490,3.2210,-2.6960,2.8340,5.067
22.3600,2.6340,-2.4370,2.9380,4.638
22.3700,2.1030,-2.1070,3.0410,4.256
22.3810,1.6740,-1.6860,3.0820,3.891
22.3900,1.3740,-1.3080,3.0660,3.605
22.4000,1.0970,-1.0380,2.9610,3.324
22.4100,0.9060,-0.7770,2.7700,3.016
22.4230,0.7000,-0.6130,2.5400,2.705
22.4330,0.5130,-0.4910,2.2830,2.391
22.4540,0.3730,-0.5550,1.9830,2.093
22.4540,0.2400,-0.7120,1.6130,1.779
22.4600,0.0300,-0.8700,1.2650,1.536
22.4690,-0.2310,-0.9590,0.9250,1.352
22.4800,-0.5080,-1.0880,0.5630,1.326
22.4890,-0.7970,-1.3130,0.2350,1.554
22.4990,-1.0870,-1.5580,-0.0070,1.900
22.5100,-1.3990,-1.7180,-0.1490,2.221
22.5190,-1.7380,-1.8100,-0.2190,2.519
22.5310,-2.0770,-1.8900,-0.2510,2.819
22.5500,-2.5370,-1.9330,-0.3230,3.206
22.5520,-2.9190,-1.8500,-0.3600,3.475
22.5590,-3.2370,-1.7490,-0.3460,3.696
22.5700,-3.5430,-1.6660,-0.3100,3.927
22.5800,-3.8050,-1.6090,-0.3400,4.145
22.5890,-4.0470,-1.5660,-0.4180,4.360
22.6000,-4.2050,-1.6440,-0.5510,4.548
22.6090,-4.3090,-1.8280,-0.9660,4.779
22.6200,-4.3740,-2.0150,-1.3920,5.013
22.6310,-4.4450,-2.2110,-1.7820,5.275
22.6480,-4.4440,-2.3400,-2.0260,5.416
22.6490,-4.4850,-2.4210,-2.3420,5.609
22.6600,-4.2890,-2.4350,-2.4410,5.503
22.6700,-4.4150,-2.3780,-2.5770,5.638
22.6800,-4.2620,-2.2660,-2.5810,5.474
22.6890,-3.8330,-2.3240,-2.4720,5.119
22.7020,-3.3450,-2.6520,-2.3870,4.891
22.7100,-2.8880,-3.1870,-2.3820,4.916
22.7240,-2.5570,-3.7350,-2.3750,5.112
22.7290,-2.4130,-3.9900,-2.3250,5.210
22.7540,-2.2860,-4.0310,-2.2230,5.140
22.7550,-2.1070,-4.0380,-2.1050,5.018
22.7600,-2.1050,-3.8010,-1.9850,4.777
22.7700,-2.2560,-3.1090,-1.7720,4.230
22.7790,-2.4050,-2.1120,-1.4960,3.533
22.7890,-2.4240,-1.0050,-1.0800,2.838
22.7990,-2.3450,-0.0810,-0.6370,2.431
22.8090,-2.0090,0.5420,-0.1820,2.089
22.8230,-1.4290,0.8170,0.1950,1.658
22.8300,-0.7100,0.9020,0.4820,1.245
22.8520,0.0610,0.9610,0.5740,1.121
22.8530,0.7130,1.0220,0.5570,1.365
22.8600,1.2300,0.9660,0.4190,1.619
22.8710,1.5930,0.7410,0.2190,1.771
22.8790,1.8170,0.3590,-0.0850,1.854
22.8890,1.9010,-0.1520,-0.4310,1.955
22.9010,1.8850,-0.6700,-0.7000,2.119
22.9100,1.7990,-1.0660,-0.8380,2.253
22.9250,1.7260,-1.2760,-0.7830,2.285
22.9290,1.6290,-1.2600,-0.5480,2.131
22.9500,1.5690,-1.0680,-0.2040,1.909
22.9500,1.6060,-0.7400,0.2500,1.786
22.9600,1.6250,-0.3260,0.6260,1.772
22.9710,1.6090,0.1450,0.9450,1.872
22.9800,1.5990,0.5290,1.2230,2.081
22.9900,1.7060,0.8290,1.5340,2.439
23.0000,1.7840,1.0890,1.7980,2.757
23.0100,1.8920,1.3200,1.9720,3.035
23.0240,2.0600,1.4330,2.0110,3.216
23.0300,2.3110,1.4680,1.9570,3.365
23.0520,2.5810,1.4560,1.8700,3.504
23.0520,2.7960,1.3950,1.7490,3.581
23.0590,2.9130,1.2510,1.6920,3.594
23.0760,2.9010,1.0560,1.6690,3.509
23.0790,2.8990,0.8090,1.6740,3.444
23.0890,2.9950,0.5010,1.7410,3.500
23.0990,3.2010,0.2490,1.8850,3.723
23.1100,3.4490,0.0820,2.1100,4.044
23.1200,3.6990,-0.0070,2.4090,4.414
23.1300,3.9010,-0.0320,2.7660,4.782
23.1510,4.0540,0.0370,3.1410,5.129
23.1520,4.2730,0.1190,3.4580,5.498
23.1610,4.5740,0.2430,3.7740,5.935
23.1700,4.9040,0.3900,4.0800,6.391
23.1800,5.2380,0.5260,4.3730,6.844
23.1900,5.5870,0.6250,4.6530,7.298
23.1990,5.9850,0.6980,4.9490,7.797
23.2090,6.4020,0.7660,5.1410,8.246
23.2200,6.7980,0.7130,5.2260,8.604
23.2290,7.1920,0.5890,5.2490,8.923
23.2400,7.5390,0.4400,5.1740,9.154
23.2490,7.7700,0.2230,5.0220,9.254
23.2690,7.8990,-0.0530,4.8690,9.279
23.2700,8.0380,-0.4970,4.6590,9.304
23.2800,8.2560,-1.1930,4.4350,9.447
23.2890,8.4010,-2.0030,4.2410,9.622
23.2990,8.4300,-2.5240,4.1060,9.711
23.3090,8.4050,-2.6120,4.0490,9.688
23.3200,8.3310,-2.3950,4.0820,9.581
23.3290,8.1500,-1.9470,4.2110,9.378
23.3390,7.8920,-1.3090,4.3670,9.114
23.3510,7.6020,-0.4210,4.6160,8.904
23.3590,7.3960,0.5580,4.8370,8.855
23.3930,7.2180,1.3170,5.0190,8.890
23.3930,7.1240,1.9040,5.1340,8.985
23.3930,7.0510,2.1320,5.1880,9.010
23.3990,6.9610,1.9800,5.1270,8.869
23.4090,6.7450,1.6150,5.0970,8.607
23.4200,6.2180,1.1260,4.9050,7.999
23.4290,5.6780,0.5420,4.5690,7.308
23.4400,5.3330,-0.2040,4.2020,6.793
23.4510,5.0020,-1.0630,3.8320,6.390
23.4590,4.4660,-1.8810,3.5110,5.984
23.4970,3.7160,-2.5130,3.2600,5.545
23.4970,2.8940,-2.9120,3.0970,5.143
23.4970,2.1550,-3.1290,2.9320,4.799
23.4980,1.5040,-3.1500,2.7770,4.461
23.5090,0.8920,-2.9470,2.6480,4.061
23.5190,0.4070,-2.5850,2.4720,3.600
23.5280,0.0170,-2.1310,2.3340,3.161
23.5380,-0.2450,-1.7090,2.1900,2.789
23.5490,-0.3870,-1.3310,2.0910,2.509
23.5590,-0.4500,-0.9750,2.0780,2.339
23.5790,-0.4490,-0.7000,2.0710,2.232
23.5790,-0.3940,-0.4910,2.0090,2.105
23.5880,-0.2770,-0.3480,1.8290,1.882
23.5990,-0.2190,-0.3190,1.5600,1.607
23.6110,-0.2840,-0.3240,1.2540,1.326
23.6190,-0.3210,-0.4840,0.8700,1.046
23.6300,-0.3940,-0.6440,0.5080,0.910
23.6400,-0.6370,-0.7830,0.1980,1.029
23.6480,-0.9340,-0.8990,-0.0600,1.298
23.6590,-1.1850,-1.0570,-0.2440,1.607
23.6690,-1.4540,-1.1980,-0.3680,1.920
23.6780,-1.7110,-1.1960,-0.3910,2.124
23.6900,-1.9790,-1.1180,-0.3610,2.301
23.7000,-2.2800,-1.0900,-0.3790,2.555
23.7110,-2.5570,-1.0590,-0.5030,2.813
23.7190,-2.7960,-1.0410,-0.6020,3.044
23.7280,-3.0730,-1.0380,-0.7630,3.332
23.7380,-3.3150,-1.0700,-0.9500,3.611
23.7500,-3.4830,-1.0800,-1.1810,3.833
23.7580,-3.6330,-1.1360,-1.4060,4.058
23.7830,-3.7790,-1.2140,-1.6370,4.294
23.7830,-3.9130,-1.3810,-1.8580,4.547
23.7880,-4.0770,-1.5690,-2.0610,4.830
23.7980,-4.2450,-1.7070,-2.1590,5.059
23.8090,-4.4130,-1.7390,-2.2170,5.236
23.8180,-4.5210,-1.7660,-2.2380,5.345
23.8290,-4.3220,-1.7090,-2.0540,5.081
23.8390,-4.2130,-1.7230,-1.9190,4.940
23.8480,-3.9900,-1.8620,-1.8600,4.780
23.8580,-3.6420,-2.3900,-1.8640,4.738
23.8770,-3.1700,-2.9810,-2.0410,4.806
23.8780,-2.7390,-3.4430,-2.2290,4.932
23.8880,-2.5510,-3.7210,-2.3610,5.092
23.8990,-2.3690,-3.9580,-2.5920,5.291
23.9090,-2.2520,-4.1620,-2.6760,5.436
23.9190,-2.1210,-4.2100,-2.7350,5.450
23.9290,-2.1020,-3.7700,-2.6230,5.051
23.9390,-2.0950,-2.8880,-2.1660,4.174
23.9540,-2.0350,-1.8120,-1.4100,3.068
23.9580,-1.9670,-0.8160,-0.5730,2.205
23.9770,-1.5400,-0.0130,0.1750,1.550
23.9780,-0.7410,0.6120,0.6880,1.182
23.9910,0.3030,1.0300,0.9430,1.429
23.9990,1.4090,1.2590,0.9910,2.134
24.0090,2.3620,1.3730,0.9470,2.892
24.0310,2.9530,1.3700,0.8060,3.354
24.0320,3.2810,1.2650,0.5810,3.564
24.0460,3.4520,0.9590,0.3430,3.599
24.0630,3.5470,0.4730,0.0250,3.578
24.0640,3.6070,-0.0780,-0.2410,3.616
24.1020,3.5240,-0.5750,-0.5030,3.606
24.1030,3.3660,-1.0060,-0.5840,3.561
24.1030,3.0500,-1.3110,-0.5410,3.364
24.1030,2.6150,-1.4400,-0.3680,3.008
24.1080,2.1920,-1.3350,-0.0710,2.568
24.1190,1.8700,-1.0090,0.4010,2.162
24.1280,1.6960,-0.5790,0.9470,2.027
24.1390,1.6690,-0.1870,1.5210,2.266
24.1480,1.7970,0.2310,2.0590,2.743
24.1580,2.0180,0.6550,2.4890,3.271
24.1870,2.2240,1.0740,2.7540,3.699
24.1880,2.4500,1.3710,2.8210,3.980
24.1880,2.7190,1.5690,2.7260,4.158
24.2000,2.9800,1.7270,2.5770,4.302
24.2080,3.1850,1.7930,2.4130,4.380
24.2190,3.3470,1.7950,2.2820,4.431
24.2290,3.5260,1.7270,2.2000,4.501
24.2390,3.6630,1.6420,2.1100,4.535
24.2510,3.8120,1.5360,2.0240,4.581
24.2580,3.9700,1.3360,2.0000,4.642
24.2790,4.1480,1.0970,2.0010,4.734
24.2790,4.3050,0.9370,2.1190,4.889
24.2880,4.4080,0.7720,2.2380,5.004
24.2990,4.5300,0.7080,2.4880,5.217
24.3080,4.6520,0.6640,2.7580,5.449
24.3190,4.8490,0.6940,3.0360,5.763
24.3300,5.0780,0.7860,3.3360,6.126
24.3400,5.2440,0.9630,3.6460,6.459
24.3720,5.3860,1.1440,3.9390,6.770
24.3730,5.5510,1.3090,4.1750,7.068
24.3730,5.7300,1.3890,4.3180,7.308
24.3780,6.0120,1.3300,4.3220,7.523
24.3900,6.4210,1.1970,4.2670,7.802
24.3990,6.7490,0.9480,4.1590,7.984
24.4080,6.9730,0.6520,4.0290,8.080
24.4190,7.0340,0.3720,3.8960,8.049
24.4280,6.9800,0.0480,3.7100,7.905
24.4380,6.9510,-0.4280,3.4980,7.793
24.4480,7.0230,-1.0890,3.3100,7.840
24.4620,7.1720,-1.7990,3.2490,8.077
24.4680,7.2820,-2.2940,3.3790,8.349
24.4780,7.2450,-2.4450,3.6590,8.477
24.4880,7.1000,-2.2980,4.0100,8.472
24.5000,6.8800,-2.0020,4.3190,8.366
24.5080,6.6110,-1.4900,4.5850,8.182
24.5180,6.2300,-0.7200,4.7560,7.871
24.5280,5.8250,0.2040,4.8490,7.582
24.5380,5.5560,1.0340,4.8000,7.415
24.5480,5.4670,1.6440,4.6160,7.342
24.5600,5.5700,2.0540,4.3980,7.388
24.5700,5.7180,2.2290,4.1220,7.393
24.5780,5.8130,2.1750,3.8290,7.293
24.5880,5.8560,1.8790,3.5220,7.087
24.6010,5.8250,1.3980,3.1560,6.771
24.6080,5.6080,0.7950,2.6840,6.268
24.6180,5.3350,0.0770,2.2070,5.774
24.6280,5.1400,-0.7400,1.8410,5.510
24.6390,4.8290,-1.4670,1.6920,5.323
24.6480,4.2620,-2.0910,1.7310,5.053
24.6630,3.5690,-2.5740,1.9280,4.804
24.6690,2.8460,-2.8280,2.2220,4.586
24.6790,2.1450,-2.8880,2.5220,4.393
24.6880,1.5450,-2.7190,2.7470,4.162
24.6990,1.0460,-2.4180,2.8790,3.902
24.7080,0.6820,-1.9680,2.9160,3.583
24.7170,0.3810,-1.5420,2.8870,3.295
24.7280,0.1470,-1.1510,2.7940,3.025
24.7390,-0.0010,-0.8400,2.6020,2.734
24.7490,-0.1120,-0.5980,2.3450,2.423
24.7660,-0.1500,-0.3700,2.0710,2.109
24.7690,-0.1760,-0.2540,1.7960,1.822
24.7780,-0.2110,-0.2520,1.5140,1.549
24.7870,-0.3340,-0.2590,1.1920,1.265
24.7970,-0.4330,-0.3410,0.8390,1.004
24.8080,-0.5570,-0.4870,0.4370,0.859
24.8180,-0.7330,-0.6750,0.0340,0.997
24.8280,-0.9470,-0.8730,-0.2990,1.322
24.8380,-1.1760,-0.9950,-0.5950,1.651
24.8480,-1.3860,-1.0660,-0.7480,1.902
24.8700,-1.6000,-1.0340,-0.8110,2.070
24.8700,-1.7840,-0.9940,-0.8580,2.215
24.8780,-1.9180,-1.0060,-0.8990,2.345
24.8880,-2.0400,-1.0250,-0.8720,2.444
24.8980,-2.1660,-0.9970,-0.7710,2.506
24.9090,-2.3120,-0.9940,-0.6310,2.595
24.9170,-2.5350,-1.0200,-0.5630,2.790
24.9280,-2.7290,-1.0470,-0.5350,2.972
24.9410,-2.8630,-1.1670,-0.5620,3.142
24.9470,-2.8880,-1.3830,-0.6210,3.262
24.9700,-2.9310,-1.6460,-0.7260,3.439
24.9700,-3.0060,-1.8020,-0.8840,3.615
24.9780,-3.0630,-1.9650,-1.1720,3.823
24.9880,-3.1770,-2.0760,-1.5240,4.090
25.0000,-3.3260,-2.1650,-1.9900,4.440
25.0090,-3.3520,-2.2860,-2.4010,4.714
25.0170,-3.1510,-2.3560,-2.6430,4.740
25.0290,-3.0270,-2.3680,-2.8390,4.778
25.0380,-2.8220,-2.6060,-2.9730,4.857
25.0480,-2.4320,-3.1220,-3.0470,4.995
25.0570,-2.2380,-3.5330,-3.0160,5.156
25.0860,-2.3650,-3.5850,-2.8690,5.165
25.0870,-2.6340,-3.4030,-2.6970,5.079
25.0870,-2.8750,-3.1970,-2.5820,5.015
25.0980,-3.1920,-2.8800,-2.5380,4.992
25.1080,-3.5540,-2.2610,-2.4930,4.895
25.1170,-3.9010,-1.4670,-2.3910,4.805
25.1270,-4.0580,-0.6300,-2.1530,4.637
25.1380,-3.7120,0.0710,-1.8170,4.133
25.1480,-2.9800,0.4440,-1.4250,3.333
25.1570,-2.2290,0.5270,-1.0920,2.537
25.1960,-1.5130,0.4450,-0.8670,1.800
25.1960,-0.8220,0.2980,-0.7530,1.154
25.1970,-0.1880,0.1310,-0.7040,0.740
25.1980,0.4530,-0.0100,-0.6850,0.821
25.2080,1.1310,-0.2440,-0.7890,1.400
25.2170,1.7280,-0.5830,-0.9610,2.061
25.2280,2.1720,-0.9330,-1.1860,2.645
25.2380,2.4030,-1.2160,-1.3480,3.012
25.2550,2.4400,-1.3440,-1.3560,3.098
25.2570,2.3490,-1.2660,-1.2000,2.926
25.2900,2.2250,-1.0170,-0.9230,2.615
25.2900,2.0870,-0.6310,-0.5760,2.255
25.2900,2.0040,-0.1640,-0.1630,2.017
25.2980,1.9650,0.3700,0.2890,2.020
25.3070,2.0190,0.8810,0.7350,2.322
25.3180,2.1700,1.2030,1.0380,2.690
25.3270,2.3760,1.4160,1.3720,3.088
25.3380,2.5390,1.6200,1.7090,3.463
25.3520,2.6450,1.7700,1.9650,3.740
25.3590,2.7230,1.8550,2.1180,3.917
25.3950,2.7940,1.8390,2.1690,3.987
25.3950,2.8800,1.7240,2.1100,3.965
25.3960,2.9730,1.5660,2.0160,3.919
25.3990,3.0520,1.3710,1.9210,3.858
25.4070,3.1160,1.1500,1.8540,3.804
25.4170,3.1470,0.9780,1.8300,3.769
25.4280,3.1640,0.7670,1.8310,3.735
25.4420,3.2090,0.5110,1.8880,3.758
25.4470,3.3720,0.1850,1.9940,3.922
25.4580,3.5390,-0.0260,2.1840,4.159
25.4880,3.7250,-0.0820,2.4250,4.446
25.4880,4.0010,-0.1060,2.6630,4.807
25.4890,4.2270,-0.0720,2.8830,5.117
25.4990,4.3040,0.0480,3.0720,5.288
25.5070,4.5040,0.1780,3.2750,5.572
25.5180,4.8850,0.2440,3.4230,5.970
25.5270,5.2610,0.3620,3.4770,6.317
25.5370,5.6690,0.5660,3.5810,6.729
25.5480,6.1580,0.6710,3.5400,7.135
25.5580,6.5640,0.6870,3.4790,7.461
25.5870,6.9420,0.7920,3.3710,7.758
25.5870,7.1290,0.7480,3.2240,7.860
25.5880,7.2090,0.6070,3.0350,7.845
25.5980,7.1360,0.2180,2.7820,7.662
25.6070,7.0100,-0.3390,2.6040,7.486
25.6170,6.9060,-0.9880,2.4780,7.403
25.6270,6.8690,-1.6170,2.4140,7.458
25.6380,6.7640,-1.9640,2.4310,7.451
25.6480,6.5730,-1.8800,2.6030,7.315
25.6590,6.4120,-1.5220,2.8620,7.185
25.6920,6.3200,-0.8570,3.2570,7.161
25.6920,6.1610,0.1310,3.6830,7.179
25.6930,5.9140,1.2220,4.0500,7.271
25.6980,5.7460,2.1600,4.2540,7.469
25.7070,5.8040,2.7700,4.4100,7.798
25.7170,6.0760,3.1300,4.4840,8.174
25.7270,6.3780,3.2500,4.4620,8.435
25.7380,6.7090,3.1900,4.5280,8.700
25.7520,6.9600,2.8430,4.4480,8.735
25.7570,7.0740,2.3470,4.2420,8.576
25.7910,6.9510,1.7340,3.9060,8.160
25.7920,6.6300,0.9110,3.4200,7.516
25.7920,6.2170,-0.0650,2.9260,6.871
25.7980,5.9460,-1.0300,2.5620,6.556
25.8080,5.5080,-1.9210,2.3540,6.290
25.8180,4.8940,-2.5240,2.3490,5.987
25.8280,4.3120,-2.8360,2.5870,5.773
25.8380,3.9560,-2.9110,2.9000,5.704
25.8500,3.7290,-2.6700,3.2680,5.632
25.8570,3.6040,-2.2390,3.6170,5.575
25.9010,3.5190,-1.7200,3.8160,5.468
25.9010,3.2910,-1.1470,3.9980,5.304
25.9010,2.8920,-0.6460,4.1160,5.072
25.9020,2.4130,-0.2360,4.1120,4.774
25.9110,1.9220,0.0440,4.0230,4.459
25.9180,1.5070,0.2420,3.8310,4.124
25.9280,1.2330,0.3510,3.5130,3.740
25.9380,1.0020,0.3500,3.1080,3.284
25.9490,0.7880,0.1980,2.6150,2.738
25.9580,0.5350,-0.0570,1.9980,2.069
25.9940,0.2460,-0.3570,1.3550,1.423
25.9940,-0.0630,-0.7020,0.7060,0.998
25.9950,-0.4220,-1.0410,0.1120,1.129
25.9980,-0.8240,-1.3240,-0.3050,1.589
26.0070,-1.2400,-1.5510,-0.6080,2.077
26.0170,-1.7170,-1.6700,-0.7620,2.513
26.0270,-2.1630,-1.6980,-0.7940,2.862
26.0370,-2.5180,-1.6860,-0.6840,3.107
26.0470,-2.7970,-1.6770,-0.4240,3.289
26.0580,-3.0240,-1.6940,-0.3900,3.488
26.0920,-3.2410,-1.6650,-0.5170,3.680
26.0920,-3.4780,-1.6320,-0.7230,3.909
26.0920,-3.6500,-1.5560,-1.0250,4.098
26.0970,-3.7460,-1.4770,-1.2730,4.223
26.1070,-3.8500,-1.4860,-1.5430,4.406
26.1180,-3.9550,-1.5250,-1.8460,4.623
26.1260,-4.0820,-1.5580,-2.1650,4.876
26.1370,-4.1810,-1.5640,-2.4740,5.104
26.1470,-4.3830,-1.3720,-2.5580,5.257
26.1570,-4.6130,-1.2490,-2.5890,5.435
26.1740,-4.5260,-1.3650,-2.2790,5.248
26.1770,-4.5900,-1.6940,-2.1840,5.358
26.1870,-4.2000,-2.2170,-2.0190,5.161
26.1980,-3.4350,-2.9040,-1.8750,4.873
26.2070,-2.6920,-3.7820,-1.8700,5.005
26.2160,-2.2730,-4.4760,-2.0160,5.410
26.2270,-2.0950,-4.7670,-2.1700,5.641
26.2380,-1.9840,-4.7560,-2.2650,5.629
26.2510,-1.9120,-4.5440,-2.2900,5.436
26.2570,-1.9320,-3.9790,-2.3030,4.987
26.2830,-2.0440,-3.0080,-2.2060,4.254
26.2830,-2.1430,-1.8520,-1.8660,3.392
26.2870,-2.1610,-0.7490,-1.3430,2.652
26.2980,-1.8540,0.1400,-0.7310,1.998
26.3070,-1.1170,0.7740,-0.1690,1.369
26.3160,-0.2050,1.0260,0.1370,1.055
26.3280,0.7780,1.1150,0.1460,1.367
26.3370,1.6230,1.1520,-0.1570,1.996
26.3530,2.1770,1.2030,-0.7400,2.595
26.3560,2.4220,1.1350,-1.4200,3.028
26.3810,2.3740,0.8010,-2.1260,3.286
26.3820,2.0800,0.2410,-2.7170,3.430
26.3870,1.7520,-0.3190,-3.0890,3.566
26.3970,1.4550,-0.8080,-3.3470,3.738
26.4080,1.0130,-1.1710,-3.2940,3.640
26.4190,0.5150,-1.2600,-2.9510,3.250
26.4280,0.0530,-1.0780,-2.3210,2.560
26.4360,-0.2060,-0.7540,-1.5600,1.745
26.4470,-0.2240,-0.4130,-0.7890,0.918
26.4570,-0.1110,-0.0660,-0.0500,0.138
26.4940,0.0210,0.2630,0.5620,0.621
26.4940,0.2170,0.5730,0.9760,1.152
26.4940,0.4810,0.7800,1.2690,1.565
26.4970,0.8040,0.9650,1.5090,1.963
26.5070,1.1460,1.0490,1.6550,2.270
26.5180,1.5070,1.0570,1.7880,2.566
26.5260,1.7730,1.0320,1.8880,2.788
26.5380,1.9030,1.0360,1.9770,2.933
26.5500,2.0260,0.9720,1.9950,3.005
26.5570,2.1620,0.8200,1.9980,3.056
26.5770,2.3320,0.6330,2.0120,3.144
26.5780,2.5250,0.4870,2.0860,3.311
26.5890,2.7750,0.3470,2.1710,3.540
26.5980,3.1160,0.2120,2.3060,3.882
26.6060,3.4330,0.0910,2.4590,4.224
26.6180,3.7180,0.0120,2.6230,4.550
26.6260,3.9140,0.0370,2.8080,4.817
26.6370,4.0720,0.1410,3.0120,5.067
26.6520,4.2320,0.2460,3.2040,5.314
26.6560,4.4430,0.3850,3.4730,5.652
26.6850,4.7060,0.4760,3.6640,5.983
26.6850,5.0010,0.5900,3.8890,6.363
26.6860,5.3600,0.6690,4.1090,6.787
26.6970,5.7900,0.6750,4.2540,7.216
26.7060,6.3120,0.7150,4.4560,7.759
26.7160,6.7780,0.6970,4.4960,8.163
26.7260,7.1580,0.6850,4.5980,8.535
26.7370,7.4980,0.5790,4.5290,8.779
26.7510,7.7850,0.3690,4.3860,8.943
26.7560,8.0800,-0.0240,4.1650,9.090
26.7770,8.4760,-0.7060,3.9200,9.365
26.7780,8.9130,-1.5900,3.6680,9.769
26.7870,9.2950,-2.2450,3.4840,10.177
26.7970,9.4160,-2.4670,3.5690,10.367
26.8070,9.4560,-2.2660,3.8530,10.459
26.8160,9.3160,-1.7790,4.2020,10.374
26.8270,9.0010,-0.9950,4.5830,10.149
26.8370,8.5720,-0.0840,4.8790,9.864
26.8460,8.0950,0.8240,5.2400,9.678
26.8560,7.6340,1.5370,5.4220,9.489
26.8770,7.2400,2.0640,5.5960,9.380
26.8770,6.8770,2.2970,5.6030,9.163
26.8860,6.5850,2.1280,5.4200,8.790
26.8970,6.3390,1.7090,5.1190,8.325
26.9060,5.9860,1.1490,4.7220,7.710
26.9180,5.6210,0.5560,4.2540,7.071
26.9260,5.1820,-0.0770,3.8240,6.441
26.9350,4.6430,-0.7530,3.4500,5.833
26.9490,3.9670,-1.3720,3.1410,5.243
26.9570,3.2870,-1.9650,2.8930,4.799
26.9810,2.6530,-2.4720,2.6680,4.502
26.9820,2.0660,-2.7400,2.4760,4.232
26.9870,1.5350,-2.7680,2.2340,3.874
26.9970,1.0610,-2.5800,2.0310,3.451
27.0070,0.6620,-2.2360,1.9260,3.024
27.0170,0.4040,-1.7950,1.8930,2.640
27.0300,0.2540,-1.3860,1.9720,2.424
27.0370,0.1680,-0.9550,2.1110,2.323
27.0500,0.2320,-0.5590,2.1920,2.274
27.0570,0.3490,-0.2490,2.2100,2.251
27.0700,0.3970,-0.0070,2.1400,2.177
27.0790,0.3480,0.1340,1.9780,2.013
27.0860,0.2270,0.1530,1.6880,1.710
27.0970,0.1090,0.1280,1.2920,1.303
27.1120,-0.0700,0.0790,0.8350,0.842
27.1190,-0.2950,-0.0430,0.3640,0.470
27.1260,-0.5050,-0.2230,-0.0870,0.559
27.1370,-0.7490,-0.4010,-0.4220,0.949
27.1520,-1.0180,-0.5180,-0.5960,1.288
27.1560,-1.3340,-0.6370,-0.7430,1.655
27.1790,-1.6610,-0.6890,-0.7740,1.958
27.1800,-1.8930,-0.7130,-0.7960,2.174
27.1870,-2.0440,-0.7800,-0.8720,2.355
27.1970,-2.1910,-0.8880,-0.9000,2.530
27.2060,-2.3090,-0.9980,-0.9090,2.675
27.2160,-2.3470,-1.1660,-0.9260,2.779
27.2280,-2.3480,-1.4120,-0.9920,2.914
27.2360,-2.3420,-1.6730,-1.0950,3.079
27.2510,-2.4100,-1.7990,-1.2230,3.247
27.2570,-2.4450,-1.8370,-1.3570,3.346
27.2820,-2.4350,-1.9620,-1.5430,3.487
27.2830,-2.4620,-2.2230,-1.7270,3.740
27.2870,-2.6620,-2.3970,-1.9710,4.089
27.2970,-3.0210,-2.3730,-2.1070,4.381
27.3070,-3.4090,-2.2090,-2.1760,4.608
27.3160,-3.7480,-2.0060,-2.1740,4.775
27.3260,-3.8260,-1.8620,-2.1720,4.777
27.3370,-3.5070,-2.0740,-2.1620,4.612
27.3520,-2.9090,-2.5780,-2.2110,4.472
27.3560,-2.3940,-3.1570,-2.3400,4.601
27.3800,-2.2010,-3.5590,-2.4760,4.862
27.3800,-2.2200,-3.7620,-2.6360,5.102
27.3850,-2.3670,-3.8110,-2.7560,5.265
27.3960,-2.7700,-3.5830,-2.8510,5.352
27.4070,-3.3120,-2.9200,-2.8030,5.230
27.4160,-3.6990,-2.0000,-2.6330,4.961
27.4260,-3.6740,-0.9920,-2.3530,4.474
27.4360,-3.2290,-0.0870,-1.8290,3.712
27.4490,-2.6100,0.5900,-1.2080,2.936
27.4560,-1.8370,0.9150,-0.6860,2.164
27.4850,-0.9000,0.9780,-0.3140,1.366
27.4850,0.0910,0.9780,-0.1640,0.996
27.4860,0.9650,0.9280,-0.2440,1.361
27.4960,1.6610,0.8440,-0.4790,1.924
27.5050,2.1690,0.6460,-0.8520,2.418
27.5160,2.4980,0.2690,-1.2270,2.796
27.5260,2.6790,-0.1920,-1.6100,3.131
27.5350,2.6400,-0.6610,-1.8540,3.293
27.5470,2.4960,-1.0600,-1.9100,3.317
27.5560,2.2710,-1.2500,-1.7090,3.105
27.5680,1.9390,-1.2860,-1.3770,2.704
27.5750,1.7250,-1.0510,-0.9260,2.222
27.5960,1.6040,-0.5480,-0.3890,1.739
27.5970,1.5440,0.0210,0.0980,1.547
27.6060,1.3900,0.5230,0.4450,1.550
27.6150,1.2990,0.8640,0.7320,1.723
27.6250,1.4070,1.0620,1.0700,2.062
27.6350,1.5670,1.2390,1.4020,2.441
27.6460,1.6820,1.4050,1.6830,2.763
27.6550,1.8630,1.4930,1.8310,3.009
27.6670,2.1690,1.4800,1.8570,3.216
27.6770,2.4570,1.3890,1.8460,3.373
27.6900,2.5840,1.3050,1.8730,3.448
27.6950,2.6380,1.1990,1.8970,3.463
27.7060,2.6950,1.0890,1.9380,3.494
27.7160,2.7530,0.9400,1.9570,3.506
27.7270,2.8420,0.7950,1.9490,3.537
27.7360,3.0560,0.6980,1.9430,3.688
27.7460,3.3530,0.6040,1.9610,3.931
27.7550,3.6160,0.5590,2.0650,4.201
27.7670,3.8390,0.5700,2.2830,4.503
27.7770,4.1200,0.6220,2.5610,4.891
27.7860,4.4220,0.7160,2.8680,5.319
27.8090,4.7640,0.7940,3.0770,5.727
27.8100,5.1560,0.9170,3.3270,6.204
27.8150,5.5490,1.0300,3.4960,6.639
27.8260,5.9140,0.9900,3.6400,7.015
27.8350,6.2610,0.9630,3.7670,7.370
27.8460,6.5810,0.8640,3.8620,7.679
27.8550,6.9630,0.6920,3.9310,8.026
27.8660,7.3260,0.5210,3.9860,8.356
27.8750,7.5950,0.3390,4.0070,8.594
27.8860,7.7560,0.1850,3.9830,8.721
27.9170,7.7710,0.0030,3.9370,8.711
27.9170,7.7400,-0.2460,3.8820,8.662
27.9180,7.7680,-0.6630,3.8200,8.682
27.9260,7.8970,-1.2100,3.7630,8.831
27.9350,7.9810,-1.6670,3.7980,8.994
27.9450,7.8990,-1.7720,3.9330,9.000
27.9550,7.6790,-1.5570,4.1150,8.850
27.9720,7.3930,-1.1410,4.3500,8.653
27.9750,7.1400,-0.5570,4.5970,8.510
28.0090,6.9040,0.2160,4.8540,8.442
28.0100,6.7230,1.0340,5.0030,8.444
28.0100,6.6030,1.5530,4.9960,8.424
28.0150,6.7270,1.9590,5.0540,8.639
28.0260,6.7850,2.0740,4.9410,8.646
28.0350,6.8650,2.0320,4.7560,8.595
28.0450,6.8660,1.7640,4.5170,8.406
28.0550,6.8530,1.3580,4.2610,8.183
28.0650,6.7170,0.8840,3.9130,7.824
28.0820,6.4600,0.3120,3.4990,7.353
28.0850,6.1700,-0.3910,3.1250,6.927
28.1060,5.8990,-1.1990,2.8480,6.659
28.1060,5.4800,-1.9160,2.6870,6.397
28.1150,4.8680,-2.4670,2.6990,6.088
28.1270,4.2010,-2.7860,2.8390,5.785
28.1350,3.5230,-2.9570,2.9480,5.463
28.1460,2.9150,-2.8800,2.9820,5.068
28.1540,2.3190,-2.6060,2.9690,4.581
28.1650,1.8060,-2.2210,2.8790,4.060
28.1740,1.3920,-1.7810,2.7330,3.547
28.1890,1.0430,-1.3890,2.5590,3.093
28.1950,0.8050,-1.0550,2.4360,2.774
28.2070,0.6510,-0.7750,2.2640,2.480
28.2150,0.5300,-0.5480,2.0740,2.210
28.2290,0.4100,-0.4440,1.7970,1.896
28.2350,0.3080,-0.4630,1.4600,1.562
28.2460,0.1440,-0.5340,1.0750,1.209
28.2550,-0.0790,-0.6410,0.6740,0.933
28.2650,-0.4600,-0.7220,0.3090,0.910
28.2750,-0.8850,-0.7440,-0.0010,1.156
28.2850,-1.2940,-0.7950,-0.2720,1.543
28.3160,-1.7520,-0.9410,-0.5780,2.071
28.3170,-2.0480,-0.8940,-0.8170,2.379
28.3170,-2.3030,-0.8160,-0.9950,2.638
28.3250,-2.5470,-0.7190,-1.1570,2.888
28.3350,-2.6960,-0.6110,-1.2660,3.040
28.3450,-2.7540,-0.5000,-1.3860,3.123
28.3540,-2.8190,-0.4040,-1.4810,3.210
28.3660,-2.7830,-0.3220,-1.5760,3.214
28.3750,-2.7440,-0.3810,-1.6960,3.248
28.4020,-2.7690,-0.5090,-1.8270,3.356
28.4030,-2.8770,-0.6870,-2.0190,3.581
28.4050,-3.1030,-0.8990,-2.2390,3.931
28.4140,-3.3930,-1.1590,-2.4480,4.341
28.4280,-3.7060,-1.3620,-2.7110,4.789
28.4340,-3.9270,-1.5220,-2.9730,5.155
28.4460,-4.1020,-1.5870,-3.1320,5.399
28.4550,-4.2620,-1.6220,-3.2240,5.585
28.4680,-4.4320,-1.6710,-3.1990,5.716
28.4750,-4.4330,-1.6980,-3.0290,5.631
28.5020,-4.3240,-1.8380,-2.8210,5.480
28.5030,-4.0070,-2.0630,-2.6710,5.239
28.5040,-3.4900,-2.3870,-2.6150,4.972
28.5140,-2.8120,-2.7880,-2.6750,4.779
28.5260,-2.1860,-3.0280,-2.7500,4.638
28.5350,-1.7920,-3.0030,-2.7360,4.440
28.5470,-1.4720,-3.0650,-2.6620,4.318
28.5560,-1.1310,-3.3440,-2.5760,4.370
28.5640,-0.9500,-3.4540,-2.4300,4.329
28.5750,-0.9960,-3.0820,-2.1800,3.904
28.5860,-1.1390,-2.4260,-1.7320,3.191
28.6200,-1.2310,-1.7000,-1.1020,2.371
28.6240,-1.0820,-1.0790,-0.4370,1.589
28.6240,-0.6570,-0.6990,0.1610,0.973
28.6250,-0.0450,-0.5340,0.6270,0.825
28.6350,0.6670,-0.4680,0.9620,1.261
28.6460,1.3480,-0.3730,1.1920,1.838
28.6550,1.9130,-0.2250,1.2960,2.322
28.6660,2.4340,-0.0610,1.2810,2.751
28.6750,2.9420,0.0310,1.2050,3.179
28.7030,3.3470,0.0320,1.0140,3.497
28.7030,3.5900,0.0010,0.7850,3.675
28.7050,3.6510,0.0050,0.5910,3.699
28.7140,3.5560,0.0790,0.4530,3.586
28.7270,3.2760,0.1840,0.3420,3.299
28.7350,2.8570,0.3530,0.2020,2.886
28.7460,2.4850,0.5870,0.0300,2.554
28.7550,2.2190,0.8130,-0.1180,2.366
28.7660,2.0230,1.0570,-0.1770,2.289
28.7740,1.8930,1.3310,-0.1060,2.317
28.8020,1.7930,1.5450,0.1000,2.369
28.8020,1.7630,1.6870,0.3920,2.471
28.8050,1.7900,1.7750,0.7140,2.620
28.8140,1.8710,1.7740,1.0040,2.767
28.8250,1.9420,1.7120,1.2350,2.868
28.8350,1.9590,1.5820,1.4810,2.921
28.8460,1.9100,1.4340,1.6950,2.929
28.8540,1.8330,1.2570,1.8470,2.890
28.8660,1.7720,1.0380,1.9880,2.858
28.8750,1.7220,0.8190,2.1440,2.869
28.8850,1.7780,0.6470,2.3390,3.008
28.9230,1.9140,0.4500,2.5140,3.192
28.9240,2.0970,0.2880,2.6330,3.378
28.9240,2.3300,0.1730,2.7710,3.625
28.9240,2.5970,0.0600,2.9360,3.920
28.9350,2.8740,-0.0210,3.1480,4.263
28.9450,3.1020,-0.0060,3.3920,4.597
28.9560,3.3160,0.0550,3.6180,4.908
28.9650,3.5130,0.1400,3.8400,5.206
28.9750,3.7490,0.2530,4.0730,5.542
28.9850,4.0960,0.2920,4.2970,5.944
28.9950,4.4910,0.2660,4.4190,6.306
29.0050,4.9210,0.2510,4.5600,6.714
29.0160,5.3500,0.1700,4.6130,7.066
29.0260,5.7430,-0.0010,4.5960,7.356
29.0360,6.1630,-0.2010,4.6240,7.707
29.0590,6.4860,-0.3520,4.6330,7.979
29.0600,6.7660,-0.4650,4.6290,8.211
29.0780,7.0040,-0.5890,4.5870,8.393
29.0800,7.2930,-0.7840,4.5540,8.634
29.0840,7.6280,-1.1380,4.5330,8.946
29.1020,7.8670,-1.5370,4.5620,9.223
29.1040,7.9410,-1.7390,4.7110,9.396
29.1280,7.8940,-1.6370,4.9450,9.458
29.1280,7.8460,-1.4490,5.1650,9.505
29.1360,7.8090,-1.2590,5.3780,9.565
29.1450,7.5770,-0.8970,5.5440,9.431
29.1550,7.1230,-0.1920,5.7500,9.156
29.1660,6.6680,0.7110,5.9490,8.964
29.1990,6.1920,1.5220,6.0070,8.760
29.2000,5.8680,2.1610,5.9820,8.654
29.2000,5.7190,2.5150,5.7880,8.517
29.2040,5.7300,2.5820,5.5010,8.352
29.2150,5.8110,2.3800,5.1900,8.147
29.2260,5.7370,2.0190,4.8150,7.757
29.2340,5.5540,1.4910,4.3560,7.214
29.2470,5.3800,0.8840,3.8640,6.683
29.2560,5.3300,0.1540,3.3690,6.307
29.2650,5.2940,-0.6360,2.9340,6.086
29.2790,5.1370,-1.4160,2.6890,5.969
29.2840,4.8870,-2.2040,2.4680,5.902
29.3090,4.6410,-2.7900,2.3750,5.913
29.3100,4.3990,-3.0690,2.4840,5.911
29.3140,4.0240,-3.1470,2.5560,5.712
29.3250,3.6410,-2.9300,2.7390,5.417
29.3360,3.3070,-2.5640,2.9200,5.103
29.3480,3.0000,-2.1340,3.0610,4.788
29.3540,2.6590,-1.6840,3.2010,4.489
29.3700,2.2280,-1.2530,3.2900,4.166
29.3840,1.7620,-0.8350,3.2900,3.824
29.3840,1.3450,-0.5450,3.1890,3.504
29.4350,1.1150,-0.3660,2.9480,3.173
29.4350,0.9710,-0.3100,2.6270,2.818
29.4350,0.8430,-0.3090,2.1830,2.360
29.4360,0.7450,-0.3660,1.5760,1.781
29.4360,0.7480,-0.5230,0.7960,1.211
29.4440,0.7460,-0.6860,-0.0170,1.014
29.4560,0.5290,-0.8990,-0.7190,1.267
29.4640,0.0650,-1.1630,-1.3530,1.785
29.4750,-0.5880,-1.3140,-1.8690,2.359
29.4840,-1.2760,-1.4460,-2.2020,2.927
29.5090,-1.8700,-1.6090,-2.3510,3.408
29.5090,-2.4760,-1.7710,-2.4140,3.885
29.5160,-2.9960,-1.7310,-2.3020,4.156
29.5250,-3.3970,-1.6520,-2.1110,4.327
29.5350,-3.6250,-1.6290,-1.9090,4.409
29.5440,-3.7080,-1.6550,-1.7610,4.426
29.5550,-3.7540,-1.7410,-1.6800,4.466
29.5640,-3.8470,-1.8160,-1.6470,4.562
29.5790,-3.9930,-1.9030,-1.5450,4.685
29.5840,-4.1360,-2.0440,-1.7610,4.938
29.6060,-4.2160,-2.1900,-1.8580,5.101
29.6090,-4.2450,-2.3190,-1.9290,5.208
29.6150,-4.4680,-2.4170,-2.0240,5.468
29.6250,-4.5040,-2.4870,-2.1140,5.562
29.6350,-4.7010,-2.6000,-2.2460,5.823
29.6440,-4.8820,-2.5830,-2.2630,5.969
29.6540,-4.9460,-2.4840,-2.1810,5.949
29.6640,-4.7800,-2.4960,-2.0740,5.778
29.6800,-4.3600,-2.5840,-1.9490,5.430
29.6840,-3.7930,-2.6990,-1.7790,4.984
29.7090,-3.2290,-2.8590,-1.6720,4.626
29.7100,-2.9030,-2.9630,-1.6520,4.465
29.7140,-2.8020,-2.8970,-1.7000,4.374
29.7250,-2.6840,-2.7680,-1.8050,4.257
29.7350,-2.4680,-2.7660,-1.9600,4.193
29.7440,-2.2290,-2.7010,-2.1310,4.099
29.7540,-2.1420,-2.3340,-2.2060,3.860
29.7640,-2.1530,-1.7270,-2.1680,3.510
29.7800,-2.1820,-1.0000,-1.9970,3.122
29.7840,-2.0900,-0.3220,-1.6910,2.708
29.8040,-1.8600,0.2340,-1.3150,2.290
29.8040,-1.4290,0.5550,-0.9270,1.791
29.8140,-0.7820,0.5810,-0.6560,1.174
29.8270,0.0020,0.4130,-0.5370,0.677
29.8350,0.8390,0.1620,-0.5060,0.993
29.8440,1.5600,-0.1310,-0.5680,1.665
29.8550,2.1760,-0.4600,-0.6240,2.310
29.8640,2.6190,-0.8680,-0.6530,2.835
29.8800,2.9290,-1.3710,-0.6000,3.289
29.8850,3.0290,-1.8150,-0.4590,3.561
29.9060,2.9190,-2.1380,-0.1610,3.622
29.9070,2.6870,-2.2040,0.3190,3.490
29.9150,2.4130,-2.0060,0.8550,3.252
29.9250,2.1740,-1.6400,1.3950,3.060
29.9360,1.9570,-1.0760,1.8380,2.892
29.9440,1.8930,-0.4990,2.1630,2.917
29.9590,1.8990,0.0770,2.4220,3.079
29.9640,1.9740,0.6490,2.6400,3.360
29.9770,2.0730,1.1190,2.7560,3.626
29.9830,2.1720,1.5090,2.8330,3.876
29.9930,2.3370,1.7760,2.8060,4.061
30.0030,2.6550,1.9210,2.6500,4.214
30.0160,2.9600,2.0190,2.4140,4.320
30.0250,3.2280,2.1170,2.1350,4.411
30.0330,3.3680,2.0990,1.8640,4.384
30.0590,3.4260,1.9960,1.5880,4.271
30.0590,3.4220,1.8030,1.3840,4.108
30.0690,3.3620,1.6080,1.2100,3.918
30.0810,3.3510,1.3720,1.1070,3.786
30.0830,3.3900,1.0850,1.1040,3.727
30.0950,3.4710,0.8760,1.2430,3.789
30.1140,3.6010,0.7140,1.4570,3.950
30.1150,3.7910,0.6770,1.8250,4.262
30.1250,4.0020,0.6940,2.1790,4.609
30.1340,4.2140,0.7110,2.4900,4.946
30.1440,4.4420,0.7730,2.7670,5.290
30.1560,4.7360,0.7770,2.9790,5.649
30.1650,4.9880,0.6840,3.1740,5.952
30.1750,5.2070,0.6490,3.3970,6.251
30.1840,5.5380,0.5750,3.5990,6.630
30.1960,5.9940,0.3610,3.7970,7.105
30.2040,6.4390,0.1620,3.9250,7.543
30.2140,6.8080,0.0930,4.0060,7.900
30.2240,7.1890,0.0770,4.0190,8.237
30.2350,7.5580,0.0140,3.9850,8.544
30.2440,7.9280,-0.1680,3.9030,8.838
30.2540,8.3320,-0.5680,3.7940,9.173
30.2640,8.8050,-1.1580,3.6920,9.618
30.2740,9.1720,-1.7380,3.6910,10.038
30.2840,9.3120,-1.9070,3.7360,10.213
30.2930,9.2170,-1.9110,3.8730,10.179
30.3050,9.0580,-1.6860,4.0150,10.050
30.3140,8.9320,-1.3260,4.1490,9.937
30.3240,8.6330,-0.7510,4.3440,9.693
30.3500,8.1760,0.0380,4.6060,9.384
30.3510,7.6470,0.9210,4.9100,9.134
30.3530,7.0890,1.7420,5.1790,8.950
30.3640,6.6780,2.2640,5.3620,8.858
30.3760,6.3770,2.4700,5.3130,8.660
30.3850,6.0990,2.4270,5.2360,8.397
30.3950,5.7380,2.1350,4.9110,7.849
30.4040,5.3670,1.6630,4.4200,7.149
30.4150,4.9870,1.0950,3.9210,6.438
30.4270,4.6890,0.4620,3.4160,5.820
30.4350,4.3470,-0.3350,3.0130,5.300
30.4470,3.9820,-1.2060,2.6800,4.949
30.4540,3.4680,-2.0070,2.4050,4.673
30.4650,2.8520,-2.5920,2.1300,4.403
30.4800,2.1960,-2.9520,1.8740,4.129
30.4840,1.6200,-3.1430,1.6690,3.910
30.5410,1.1740,-3.1700,1.6070,3.743
30.5520,0.8840,-3.0240,1.6010,3.534
30.5540,0.6480,-2.6930,1.7740,3.289
30.5560,0.3800,-2.2220,2.0550,3.050
30.5580,0.2090,-1.7410,2.2560,2.857
30.5580,0.0850,-1.4150,2.4010,2.788
30.5600,-0.0430,-1.1550,2.5380,2.789
30.5640,-0.2100,-0.8950,2.6020,2.760
30.5760,-0.4100,-0.6610,2.5610,2.677
30.5840,-0.5870,-0.5270,2.3700,2.498
30.5930,-0.7240,-0.4830,2.0160,2.196
30.6050,-0.8450,-0.4830,1.5640,1.842
30.6130,-0.9720,-0.5580,1.1260,1.589
30.6240,-1.1990,-0.6850,0.6840,1.541
30.6330,-1.5140,-0.8190,0.2750,1.743
30.6440,-1.7860,-0.9590,-0.0950,2.029
30.6530,-2.0350,-1.0350,-0.4540,2.328
30.6640,-2.2650,-1.1180,-0.7430,2.633
30.6830,-2.5210,-1.1440,-0.9660,2.932
30.6840,-2.7330,-1.1020,-1.0950,3.144
30.6960,-2.8540,-1.0550,-1.1610,3.257
30.7030,-2.9490,-1.0600,-1.2130,3.360
30.7130,-2.9950,-1.1170,-1.2410,3.429
30.7230,-3.0500,-1.1970,-1.2520,3.508
30.7330,-3.1690,-1.2920,-1.3120,3.665
30.7450,-3.3210,-1.4430,-1.3940,3.880
30.7540,-3.4900,-1.6270,-1.5680,4.158
30.7630,-3.5780,-1.9310,-1.8010,4.447
30.7740,-3.6580,-2.2050,-2.1380,4.776
30.7840,-3.7940,-2.4320,-2.5180,5.162
30.7930,-3.8760,-2.5160,-2.8420,5.425
30.8030,-3.9670,-2.5370,-3.1760,5.680
30.8130,-3.9660,-2.4340,-3.3870,5.755
30.8240,-3.7800,-2.3130,-3.4220,5.599
30.8330,-3.4050,-2.3770,-3.2590,5.279
30.8430,-3.0180,-2.6820,-3.0510,5.061
30.8530,-2.5620,-3.1000,-2.9220,4.971
30.8640,-2.3200,-3.4370,-2.7020,4.949
30.8730,-2.2610,-3.5340,-2.4580,4.862
30.8850,-2.1900,-3.5430,-2.2860,4.751
30.8930,-1.9900,-3.5280,-2.2570,4.637
30.9040,-1.9320,-3.2710,-2.3790,4.482
30.9180,-2.0380,-2.5980,-2.4450,4.109
30.9240,-2.2090,-1.7060,-2.3010,3.617
30.9330,-2.3380,-0.8090,-1.9530,3.152
30.9440,-2.3400,-0.0020,-1.4570,2.757
30.9530,-2.1180,0.5600,-0.9410,2.384
30.9630,-1.5700,0.8330,-0.4910,1.844
30.9730,-0.8390,0.9540,-0.1320,1.277
30.9860,-0.0590,0.9180,0.0760,0.923
30.9930,0.7620,0.7760,0.2010,1.106
31.0030,1.4940,0.5270,0.1890,1.595
31.0130,2.1550,0.1380,0.0370,2.160
31.0260,2.6810,-0.3840,-0.2530,2.720
31.0330,2.9470,-0.9230,-0.6020,3.146
31.0460,2.9470,-1.3390,-0.8700,3.352
31.0530,2.7370,-1.5900,-1.0620,3.339
31.0670,2.4150,-1.6830,-1.0670,3.131
31.0740,2.0830,-1.6560,-0.9150,2.814
31.0830,1.8390,-1.3740,-0.5830,2.368
31.0930,1.6920,-0.8350,-0.1400,1.892
31.1030,1.6400,-0.2490,0.3910,1.704
31.1140,1.5390,0.3270,0.8790,1.802
31.1260,1.4990,0.8230,1.2980,2.147
31.1330,1.7170,1.2610,1.6150,2.673
31.1440,2.0770,1.6260,1.8570,3.226
31.1530,2.4450,1.9210,1.9650,3.678
31.1670,2.8020,2.1610,1.9750,4.052
31.1740,3.0480,2.3470,1.9190,4.299
31.1830,3.1880,2.4570,1.7730,4.398
31.1980,3.2250,2.4810,1.5570,4.357
31.2040,3.2610,2.3870,1.2870,4.241
31.2130,3.2580,2.1500,1.0200,4.035
31.2260,3.2690,1.8500,0.7470,3.830
31.2340,3.3230,1.5490,0.5700,3.710
31.2430,3.4100,1.2010,0.4870,3.648
31.2540,3.5220,0.8500,0.5770,3.669
31.2630,3.6410,0.5890,0.8270,3.780
31.2730,3.7920,0.3950,1.1740,3.989
31.2830,3.9800,0.3620,1.6200,4.312
31.2930,4.2210,0.3770,2.0370,4.702
31.3030,4.4390,0.3800,2.4430,5.081
31.3130,4.5580,0.3960,2.7460,5.336
31.3220,4.8070,0.3460,3.0120,5.683
31.3330,5.1480,0.2730,3.2270,6.082
31.3470,5.4340,0.2070,3.3520,6.388
31.3530,5.7240,0.2260,3.3960,6.659
31.3630,6.0520,0.2750,3.3740,6.934
31.3730,6.2770,0.3460,3.2810,7.091
31.3830,6.4010,0.4430,3.1530,7.149
31.3940,6.5180,0.4480,3.0630,7.216
31.4050,6.6550,0.1930,2.9160,7.268
31.4130,6.8520,-0.2890,2.7960,7.406
31.4230,7.1360,-0.8980,2.6740,7.673
31.4340,7.4310,-1.4040,2.6340,8.008
31.4430,7.6640,-1.6230,2.6550,8.272
31.4540,7.8640,-1.6580,2.6370,8.458
31.4640,8.0700,-1.6580,2.5970,8.638
31.4720,8.1640,-1.4340,2.6070,8.689
31.4830,8.0210,-0.7960,2.7340,8.511
31.4930,7.7580,0.1090,3.0140,8.324
31.5030,7.5260,0.9970,3.3560,8.300
31.5140,7.2670,1.7230,3.6900,8.330
31.5230,7.0760,2.4070,4.0390,8.496
31.5340,6.7570,2.7400,4.2910,8.460
31.5430,6.5300,2.7320,4.4940,8.385
31.5530,6.3140,2.3610,4.5380,8.126
31.5630,6.0510,1.9410,4.5210,7.799
31.5750,5.5060,1.4880,4.2610,7.119
31.5830,4.9760,0.8890,3.7350,6.285
31.5940,4.6700,0.0870,3.0900,5.600
31.6200,4.4860,-0.7090,2.5080,5.188
31.6220,4.1270,-1.3940,1.9830,4.786
31.6230,3.6090,-1.9650,1.5610,4.396
31.6340,3.0000,-2.4210,1.2040,4.039
31.6430,2.3070,-2.5740,0.9380,3.582
31.6530,1.6780,-2.5420,0.8620,3.166
31.6640,0.9750,-2.3650,0.7730,2.672
31.6730,0.3530,-1.9810,0.9040,2.206
31.6840,-0.1790,-1.5700,1.1820,1.973
31.6940,-0.5620,-1.1730,1.5560,2.028
31.7020,-0.8420,-0.8480,1.8320,2.187
31.7170,-0.9660,-0.5310,2.2000,2.461
31.7230,-1.0840,-0.2900,2.4500,2.695
31.7330,-1.1740,-0.0780,2.5440,2.803
31.7430,-1.2190,0.0470,2.4990,2.781
31.7540,-1.2210,0.0630,2.2320,2.545
31.7630,-1.1740,0.0120,1.8240,2.169
31.7720,-1.1560,-0.0650,1.3900,1.809
31.7820,-1.1980,-0.1690,0.9950,1.566
31.7920,-1.3350,-0.2510,0.6630,1.512
31.8020,-1.5880,-0.3270,0.3740,1.664
31.8120,-1.7770,-0.4280,0.0980,1.830
31.8230,-1.9400,-0.7470,-0.1780,2.086
31.8320,-2.0540,-0.9740,-0.4080,2.310
31.8420,-2.1130,-1.0700,-0.5530,2.432
31.8520,-2.1030,-1.1830,-0.5870,2.483
31.8630,-2.0760,-1.3120,-0.5800,2.523
31.8730,-2.1000,-1.3540,-0.5270,2.554
31.8820,-2.1910,-1.2970,-0.4590,2.587
31.8920,-2.2710,-1.3300,-0.4870,2.676
31.9020,-2.3440,-1.4740,-0.5670,2.826
31.9120,-2.4600,-1.6510,-0.6280,3.028
31.9220,-2.6110,-1.8460,-0.7010,3.274
31.9320,-2.7600,-2.0740,-0.8450,3.554
31.9420,-2.9180,-2.3260,-1.0550,3.878
31.9520,-2.9540,-2.5490,-1.3220,4.120
31.9630,-3.0420,-2.5730,-1.6260,4.303
31.9720,-3.1710,-2.4850,-1.8580,4.437
31.9820,-3.3530,-2.3310,-1.8890,4.499
31.9920,-3.4640,-2.3890,-1.7930,4.574
32.0030,-3.3960,-2.7120,-1.6100,4.635
32.0120,-3.0970,-3.3000,-1.4930,4.766
32.0220,-2.6990,-3.9690,-1.5250,5.036
32.0320,-2.5800,-4.3210,-1.6660,5.301
32.0420,-2.7450,-4.2450,-1.8760,5.392
32.0520,-3.0130,-4.0500,-1.9960,5.428
32.0620,-3.3880,-3.6170,-2.3150,5.470
32.0720,-4.0170,-2.8290,-2.5710,5.545
32.0820,-4.4280,-1.8290,-2.5620,5.433
32.0920,-4.5460,-0.8370,-2.4670,5.240
32.1020,-4.0550,-0.0700,-2.2260,4.626
32.1140,-3.2160,0.2610,-1.9410,3.765
32.1220,-2.1740,0.2640,-1.6980,2.771
32.1330,-1.1520,0.0040,-1.4740,1.871
32.1440,-0.3590,-0.3220,-1.2780,1.366
32.1520,0.1930,-0.5470,-1.1300,1.270
32.1640,0.5620,-0.7590,-1.0540,1.415
32.1740,0.8960,-1.0690,-1.1080,1.781
32.1820,1.2080,-1.2770,-1.2960,2.184
32.1930,1.3320,-1.3720,-1.4750,2.415
32.2040,1.2930,-1.3840,-1.5710,2.461
32.2140,1.1250,-1.3210,-1.5140,2.303
32.2220,0.9030,-1.1670,-1.2780,1.952
32.2350,0.8140,-0.8950,-0.9140,1.516
32.2440,0.8440,-0.4980,-0.4260,1.069
32.2530,1.0570,-0.1740,0.0180,1.071
32.2640,1.4080,0.2730,0.5340,1.530
32.2740,1.9260,0.6640,1.0310,2.283
32.2840,2.5190,0.8680,1.4000,3.010
32.2920,2.8600,1.0120,1.6070,3.433
32.3040,3.3150,1.3210,1.7850,3.990
32.3140,3.7810,1.5460,1.7960,4.462
32.3240,4.1040,1.6520,1.6890,4.735
32.3340,4.2490,1.6150,1.5800,4.812
32.3440,4.2720,1.4710,1.4490,4.745
32.3580,4.2530,1.3810,1.3590,4.674
32.3620,4.2610,1.3010,1.3190,4.646
32.3730,4.4230,1.1830,1.3500,4.773
32.3840,4.7270,1.0710,1.4240,5.052
32.3930,5.0140,0.9700,1.5450,5.336
32.4020,5.1790,0.8890,1.6770,5.516
32.4120,5.2650,0.8880,1.8270,5.643
32.4240,5.3450,0.9100,2.0110,5.783
32.4320,5.3790,0.9790,2.2660,5.918
32.4440,5.3880,1.0640,2.5970,6.075
32.4540,5.4590,1.1010,2.9780,6.315
32.4630,5.4890,1.1630,3.3650,6.543
32.4720,5.4840,1.3430,3.7920,6.801
32.4820,5.5160,1.5160,4.1470,7.066
32.4920,5.6060,1.4790,4.3630,7.256
32.5020,6.0040,1.1790,4.3930,7.532
32.5130,6.4980,0.6970,4.2620,7.802
32.5240,6.8040,0.3060,4.0320,7.915
32.5320,6.7350,0.0400,3.7560,7.712
32.5430,6.4560,-0.2370,3.4470,7.322
32.5530,6.1800,-0.5330,3.1240,6.945
32.5630,6.0310,-0.7900,2.8530,6.718
32.5740,6.0350,-1.0930,2.6930,6.698
32.5840,6.1960,-1.5770,2.6170,6.908
32.5940,6.4830,-2.0230,2.7130,7.313
32.6080,6.6750,-2.1690,2.9330,7.607
32.6110,6.7660,-2.0270,3.2050,7.756
32.6210,6.8890,-1.8260,3.4960,7.938
32.6320,6.8170,-1.4860,3.7910,7.940
32.6410,6.5750,-0.8130,4.1220,7.803
32.6530,6.3020,0.1210,4.4800,7.733
32.6630,6.0510,1.1200,4.7740,7.788
32.6740,5.8500,1.8890,4.9430,7.888
32.6840,5.7200,2.4160,5.0330,7.993
32.6940,5.6150,2.6170,4.9810,7.949
32.7030,5.5230,2.5550,4.8160,7.761
32.7140,5.4860,2.1880,4.5200,7.437
32.7230,5.3520,1.6700,4.0510,6.917
32.7320,5.0860,1.1690,3.4840,6.275
32.7420,4.7780,0.5610,2.9090,5.622
32.7540,4.5650,-0.2020,2.4200,5.171
32.7630,4.2880,-0.9810,2.0120,4.837
32.7730,3.8120,-1.6310,1.7490,4.500
32.7830,3.2620,-2.1010,1.6400,4.212
32.7940,2.7280,-2.4210,1.6630,4.009
32.8040,2.3030,-2.5590,1.7830,3.877
32.8120,1.9610,-2.4860,1.8860,3.685
32.8230,1.6600,-2.2530,2.0570,3.473
32.8370,1.3270,-1.9230,2.2060,3.213
32.8450,1.0090,-1.5490,2.3380,2.981
32.8540,0.7370,-1.2490,2.4330,2.832
32.8620,0.4790,-0.9870,2.4830,2.715
32.8720,0.2330,-0.8200,2.4490,2.593
32.8820,0.0110,-0.7390,2.3800,2.492
32.8920,-0.1190,-0.7010,2.1510,2.265
32.9030,-0.2010,-0.7180,1.8050,1.953
32.9130,-0.3030,-0.7130,1.3770,1.580
32.9230,-0.2200,-0.7110,0.8830,1.155
32.9330,0.0160,-0.9270,0.4190,1.017
32.9430,0.1170,-1.1070,-0.1020,1.118
32.9510,-0.0460,-1.1740,-0.5580,1.301
32.9610,-0.2990,-1.3450,-0.9200,1.657
32.9710,-0.7620,-1.5340,-1.1120,2.042
32.9820,-1.3260,-1.6860,-1.0780,2.401
32.9930,-1.9290,-1.8250,-1.0030,2.839
33.0030,-2.5160,-1.9680,-0.8620,3.309
33.0130,-3.0360,-2.0180,-0.7720,3.726
33.0230,-3.4820,-1.9780,-0.7100,4.067
33.0320,-3.8300,-1.9930,-0.7360,4.380
33.0430,-4.1180,-2.0860,-0.9000,4.703
33.0540,-4.3270,-2.1510,-1.0830,4.952
33.0630,-4.4040,-2.2240,-1.3480,5.115
33.0740,-4.3730,-2.2870,-1.6750,5.211
33.0820,-4.3830,-2.3650,-1.9980,5.366
33.0920,-4.4190,-2.4870,-2.2860,5.562
33.1020,-4.4470,-2.6430,-2.5220,5.755
33.1120,-4.5090,-2.7310,-2.6790,5.913
33.1220,-4.5690,-2.6560,-2.6260,5.901
33.1330,-4.3570,-2.4220,-2.3580,5.514
