timestamp,acc_x,acc_y,acc_z
0.035,1.487,-0.251,-0.526
0.05500000000000001,-1.153200000000002,-0.9985000000000005,0.12149999999999934
0.07500000000000001,-3.2053999999999974,0.003899999999999376,-0.1425999999999998
0.09500000000000001,0.8074000000000014,-0.8705999999999987,-0.40249999999999975
0.11500000000000002,2.2556363636363645,0.8030909090909095,0.2254545454545455
0.135,2.6898333333333335,0.96075,-0.10916666666666673
0.15500000000000003,1.6659999999999986,0.9049999999999991,-0.5890000000000006
0.17500000000000002,0.5949999999999974,0.21599999999999964,-1.2120000000000004
0.19500000000000003,-0.7763333333333347,0.023916666666666475,-1.1456666666666662
0.21500000000000005,-0.6609999999999979,-0.16199999999999878,-0.38099999999999823
0.23500000000000004,0.43200000000000366,0.3020000000000005,0.09900000000000067
0.255,1.757,0.555,0.594
0.275,2.4046363636363637,0.8629999999999999,0.11190909090909062
0.29500000000000004,2.6399473684210535,0.37457894736841923,-0.7484736842105277
0.31500000000000006,1.7679354838709653,0.06912903225806483,-1.2231935483870975
0.3350000000000001,0.8918064516129007,0.18138709677419387,-1.491580645161291
0.3550000000000001,-1.2139999999999984,0.3329999999999989,-1.9259999999999966
0.3750000000000001,-0.6209999999999956,0.15199999999999855,-1.2130000000000007
0.39500000000000013,0.31144444444445074,-0.059888888888889685,-0.5652222222222121
0.41500000000000004,-0.32600000000000445,-1.2089999999999987,0.5660000000000008
0.43500000000000005,-1.352999999999999,0.5879999999999993,1.4120000000000013
0.45500000000000007,-0.08909999999999484,-0.2295000000000001,2.011400000000002
0.4750000000000001,1.4248181818181826,-0.4140000000000009,1.8386363636363574
0.4950000000000001,1.0113999999999952,-0.3073999999999992,0.749699999999998
0.5150000000000001,-0.15800000000000536,-0.09399999999999928,0.6490000000000017
0.5350000000000001,-0.6110999999999978,-0.16030000000000136,1.1040000000000032
0.5550000000000002,-0.31563636363636494,-0.20609090909090885,1.5789090909090906
0.5750000000000002,-0.07145454545453378,-0.27727272727272667,1.0734545454545374
0.5950000000000001,0.6078888888888906,-0.15833333333333233,0.6046666666666654
0.6150000000000001,0.20599999999999621,0.06999999999999855,0.5240000000000037
0.6350000000000001,-0.26241666666666663,-0.17883333333333365,1.1942500000000027
0.6550000000000001,0.1263636363636424,-0.19090909090908945,1.1901818181818142
0.6750000000000002,0.883699999999999,0.07689999999999989,0.49249999999999544
0.6950000000000002,0.6736153846153821,0.1499230769230785,-0.17292307692308234
0.7150000000000002,0.5825999999999961,0.22850000000000012,-0.3159999999999969
0.7350000000000002,0.04424999999999561,0.13016666666666402,-0.22183333333333463
0.7550000000000002,-0.25469999999999726,-0.16330000000000117,-0.36539999999999745
0.7750000000000001,-0.32654545454545836,0.1536363636363676,-0.5947272727272775
0.7950000000000002,-1.0328333333333373,0.7108333333333355,-1.4395000000000047
0.8150000000000002,-1.1080909090909061,0.5219090909090922,-2.060363636363636
0.8350000000000002,-0.83381818181818,0.5136363636363631,-1.9072727272727257
0.8550000000000002,-0.8799090909090937,0.4166363636363602,-1.8505454545454538
0.8750000000000002,-0.8522727272727246,0.2531818181818169,-1.5499090909090838
0.8950000000000002,-0.432692307692301,0.03423076923076568,-0.8159230769230676
0.9150000000000001,-0.29999999999999655,-0.18300000000000183,-0.08700000000000035
0.9350000000000002,0.2564545454545438,-0.29409090909090846,-0.22390909090909586
0.9550000000000002,-0.44218181818183266,-0.15109090909090844,-0.9336363636363654
0.9750000000000002,-1.5924545454545505,0.09809090909091409,-1.1673636363636375
0.9950000000000002,-1.9552307692307724,0.4067692307692329,-1.4145384615384657
1.0150000000000001,-3.819899999999975,-1.0922999999999956,-1.6624000000000136
1.0350000000000001,0.7811999999999895,-0.0316999999999813,-5.052
1.0550000000000002,-1.2251000000000154,1.7189999999999963,-2.697499999999971
1.0750000000000002,-3.4189999999999943,0.8829999999999962,0.06200000000001167
1.0950000000000002,-2.3343846153845997,0.5583846153846121,1.4962307692307872
1.1150000000000002,-0.19666666666666627,-0.1576666666666734,3.1321111111111093
1.1350000000000002,-0.5735000000000166,-0.5409999999999843,2.453299999999986
1.155,-1.1772999999999978,0.4259000000000031,1.6771999999999978
1.175,-0.868200000000002,0.5545999999999979,0.9912999999999955
1.195,-1.386200000000001,0.26579999999999965,0.4438666666666662
1.215,-1.6272999999999949,-0.064899999999996,-0.5171000000000057
1.235,-0.4366363636363614,1.106818181818182,-1.2019090909090924
1.2550000000000001,-0.031181818181816368,0.858636363636361,-1.4337272727272734
1.2750000000000001,-0.21900000000001751,-0.19100000000000672,-0.4590000000000051
1.2950000000000002,-1.2696666666666725,-0.3089999999999959,-0.6124999999999983
1.3150000000000002,-1.6284347826086947,-0.04143478260869436,-0.7133043478260885
1.3350000000000002,-1.4767272727272704,0.06445454545454576,-0.8241818181818181
1.3550000000000002,-1.2735454545454523,0.0930909090909094,-0.8196363636363635
1.3750000000000002,-2.465500000000014,-3.004500000000009,-1.7986666666666804
1.3950000000000002,-3.9170000000000194,-3.7710000000000012,-3.0790000000000144
1.4150000000000003,-5.073545454545464,-4.071909090909099,-4.414000000000022
1.4350000000000003,-4.899846153846129,-4.781461538461546,-4.959
1.4550000000000003,-2.1001428571428282,-5.329714285714283,-4.767571428571424
1.4750000000000003,0.9710000000000256,-4.890999999999998,-4.251999999999999
1.495,3.085300000000003,-5.285800000000006,-4.5353
1.5150000000000001,2.957363636363643,-6.438818181818181,-4.216636363636372
1.5350000000000001,3.2344000000000004,-6.875700000000003,-4.779800000000001
1.5550000000000002,4.034000000000016,-6.458999999999997,-5.007500000000001
1.5750000000000002,7.4340526315789575,-6.198052631578948,-4.860421052631576
1.5950000000000002,10.130700000000004,-6.457200000000008,-3.7354999999999956
1.6150000000000002,10.646818181818182,-7.971363636363646,-4.256636363636388
1.6350000000000002,11.012142857142864,-9.574285714285732,-8.34585714285719
1.6550000000000002,18.220700000000136,-10.05809999999997,-9.4747999999998
1.6750000000000003,26.47250000000019,-7.3675999999999435,5.93110000000029
1.6950000000000003,38.284000000000034,-4.639999999999968,18.58
1.7150000000000003,37.131499999999775,0.08500000000017272,17.183499999999906
1.7350000000000003,16.877952380952237,9.528523809523858,10.295476190476142
1.7550000000000003,0.014930232558071355,14.458325581395366,6.044348837209306
1.7750000000000004,-3.818558139534961,15.41460465116281,6.231790697674422
1.7950000000000002,-9.099250000000096,17.609500000000054,8.586000000000082
1.8150000000000002,-5.990571428571682,27.87342857142865,32.54400000000009
1.8350000000000002,-20.96079310344829,27.53968965517238,40.65827586206899
1.8550000000000002,-16.56549999999991,14.217333333333297,42.13433333333329
1.8750000000000002,3.5720000000000915,4.628090909090843,30.907545454545385
1.8950000000000002,16.142000000000085,-5.616000000000115,19.578999999999866
1.9150000000000003,22.198363636363684,-14.059272727272784,10.012636363636295
1.9350000000000003,26.092538461538492,-17.86176923076925,5.640307692307688
1.9550000000000003,28.921272727272708,-22.052454545454594,4.311636363636353
1.9750000000000003,23.73379999999983,-25.57130000000002,3.715399999999985
1.9950000000000003,15.139799999999921,-25.512999999999966,2.5431999999999504
2.0150000000000006,11.12927272727264,-24.234545454545515,-2.117818181818432
2.0350000000000006,8.336999999999886,-25.198999999999995,-7.082999999999967
2.0550000000000006,3.39769230769213,-25.075384615384614,-5.490692307692243
2.0750000000000006,-6.473300000000429,-27.573100000000014,-4.1979000000000575
2.0950000000000006,-14.427999999999932,-29.768166666666758,-2.997999999999949
2.1150000000000007,-5.287818181817732,-32.87227272727281,-0.37627272727256367
2.1350000000000007,7.119333333333549,-32.26822222222195,2.398111111110913
2.1550000000000007,6.879999999999651,-24.796199999999832,-6.426800000000494
2.1750000000000007,-1.760833333333374,-21.927333333333287,-16.549000000000024
2.1950000000000007,3.3182000000004237,-22.114399999999996,-13.89179999999972
2.2150000000000007,18.494300000000987,-19.313999999999638,-4.262299999999411
2.2350000000000008,44.92200000000058,-9.465199999999681,11.694200000000409
2.255000000000001,51.46579999999953,-1.2403999999996458,17.3175999999999
2.2750000000000004,38.56239999999992,7.998000000000052,13.780200000000042
2.2950000000000004,35.75099999999982,7.744000000000052,18.212000000000362
2.3150000000000004,20.57429999999957,13.415500000000163,33.49330000000013
2.3350000000000004,1.5441999999999572,21.598000000000056,41.27490000000012
2.3550000000000004,1.0551999999999457,22.327199999999962,44.53979999999992
2.3750000000000004,-4.449000000000087,18.776857142857082,37.63914285714279
2.3950000000000005,-12.259,13.327999999999838,30.094999999999732
2.4150000000000005,-9.219833333333174,5.581833333333076,20.229333333333127
2.4350000000000005,-4.467999999999862,-2.7200000000001916,14.563999999999867
2.4550000000000005,1.9754000000001197,-10.219900000000088,8.459199999999889
2.4750000000000005,9.293000000000223,-14.515600000000108,2.527599999999898
2.4950000000000006,14.95460000000007,-17.459000000000064,1.3408000000000675
2.5150000000000006,17.018909090909144,-18.873818181818212,3.2611818181818597
2.5350000000000006,17.95699999999996,-20.04160000000004,4.135799999999938
2.5550000000000006,14.63739999999982,-20.921399999999963,0.8349999999998579
2.5750000000000006,10.30518181818185,-17.856999999999864,-3.1585454545455716
2.5950000000000006,11.692000000000009,-16.848600000000086,-7.08880000000004
2.6150000000000007,9.509636363636176,-20.079909090909158,-7.634000000000059
2.6350000000000007,-1.7028888888894804,-21.583333333333307,-11.517333333333445
2.6550000000000007,-12.084666666666626,-21.06850000000006,-12.95016666666667
2.6750000000000007,-3.9639999999995204,-24.401800000000218,-10.01699999999966
2.6950000000000007,9.991400000000482,-26.96599999999994,-0.8603999999996428
2.7150000000000007,17.891999999999854,-22.664999999999626,6.415199999999947
2.7350000000000008,10.856454545454307,-12.918090909090715,-0.3832727272731642
2.755000000000001,3.7623636363634128,-7.582363636363577,-14.732909090909361
2.775000000000001,-1.2693636363635166,-6.352909090909048,-19.27118181818178
2.795000000000001,9.722285714286354,-5.417285714285706,-14.432142857142523
2.815000000000001,37.46363636363708,-5.5824545454546355,2.476000000000669
2.835000000000001,43.386111111109955,-5.653666666666209,17.082222222222455
2.855000000000001,18.5137999999997,5.863000000000283,18.9764
2.875000000000001,15.287600000000046,10.035199999999836,22.319400000000257
2.895000000000001,13.26799999999961,7.73020000000041,26.39320000000001
2.915000000000001,5.928399999999604,13.708599999999933,29.87080000000011
2.9350000000000005,1.2423999999999715,12.08719999999991,30.676600000000068
2.9550000000000005,1.2283999999999509,9.222399999999878,33.96180000000008
2.9750000000000005,-4.675800000000286,6.401599999999941,39.40200000000029
2.9950000000000006,-9.853599999999924,2.49799999999977,42.737199999999696
3.0150000000000006,-7.54199999999996,-5.644636363636612,28.520272727272207
3.0350000000000006,-6.1577999999999635,-12.658200000000155,13.442999999999715
3.0550000000000006,-4.444799999999896,-16.864000000000107,6.282599999999846
3.0750000000000006,-0.372799999999876,-20.11710000000009,1.1018999999998518
3.0950000000000006,2.274454545454551,-22.73172727272732,-2.9358181818182416
3.1150000000000007,2.599272727272763,-24.01581818181822,-4.457272727272692
3.1350000000000007,4.056818181818168,-24.63236363636358,-1.2042727272726208
3.1550000000000007,4.222750000000038,-23.928999999999995,-0.665000000000135
3.1750000000000007,3.953800000000029,-19.177799999999777,-5.422400000000056
3.1950000000000007,5.201727272727309,-15.974181818181824,-4.710636363636226
3.2150000000000007,5.946799999999958,-16.679599999999972,-1.858999999999913
3.2350000000000008,5.0913333333333615,-15.050222222222116,-0.8484444444444619
3.255000000000001,4.808249999999983,-11.545749999999826,-2.134000000000079
3.275000000000001,6.359400000000204,-6.515399999999733,-3.483700000000003
3.295000000000001,8.642299999999876,-1.1013999999998563,-2.706699999999985
3.315000000000001,2.2986999999998163,0.14120000000001437,-3.970600000000236
3.335000000000001,1.628000000000068,0.424000000000041,-9.498900000000255
3.355000000000001,3.4886363636364104,0.6064545454545026,-14.220818181818343
3.375000000000001,4.407899999999859,-0.1755999999999974,-26.915600000000786
3.395000000000001,-0.6774999999998196,-4.555100000000533,-24.897699999998512
3.415000000000001,-2.9868000000006227,-11.089099999999272,14.002600000002147
3.435000000000001,0.4178000000007933,2.099600000000434,30.320199999999435
3.455000000000001,8.699272727272318,-0.7415454545454634,15.212090909090373
3.475000000000001,9.302666666666507,1.638333333333655,13.605333333333945
3.495000000000001,4.823999999999614,7.4386999999999786,18.29699999999956
3.515000000000001,-0.5402000000002264,4.5064999999998445,11.118800000000125
3.535000000000001,-0.049749999999799455,2.8425000000000913,12.04349999999954
3.5550000000000006,0.7555999999999465,6.200100000000103,-2.436000000000294
3.5750000000000006,-6.460000000000349,9.78239999999997,-0.7563999999997766
3.5950000000000006,-11.242599999999895,2.36629999999983,-4.012000000000292
3.6150000000000007,-9.654500000000063,3.6127000000002063,-10.005900000000118
3.6350000000000007,-9.46566666666639,6.370999999999913,-12.886444444444436
3.6550000000000007,-9.272272727272854,5.8815454545455035,-11.558272727272442
3.6750000000000007,-8.95759999999991,2.71699999999987,-4.24840000000007
3.6950000000000007,-5.163899999999881,0.4056999999999198,-4.669999999999858
3.7150000000000007,-3.8538461538461557,-0.5966153846153905,-2.8433846153846014
3.7350000000000008,-3.8920710059171615,-0.7483313609467517,-2.488591715976317
3.755000000000001,-3.9302958579881673,-0.9000473372781126,-2.133798816568033
3.775000000000001,-3.9685207100591735,-1.0517633136094737,-1.7790059171597485
3.795000000000001,-4.006745562130179,-1.2034792899408346,-1.4242130177514642
3.815000000000001,-4.0449704142011855,-1.3551952662721958,-1.0694201183431802
3.835000000000001,-4.083195266272191,-1.506911242603557,-0.7146272189348957
3.855000000000001,-4.121420118343197,-1.6586272189349178,-0.3598343195266116
3.875000000000001,10.531000000002438,-10.777999999999501,10.520000000000152
3.895000000000001,-6.854000000000805,-8.557333333333814,-12.595000000000011
3.915000000000001,-16.091250000000056,-10.704249999999877,-7.347249999999729
3.935000000000001,-18.45933333333352,-10.655666666666498,-7.5196666666669545
3.955000000000001,-16.444399999999806,-8.246000000000002,-8.711399999999808
3.975000000000001,-15.682333333333016,-6.837777777777843,-4.371222222221905
3.995000000000001,-8.800222222221347,-9.484000000000153,-0.7274444444442165
4.015000000000001,4.942117647059018,-11.528235294117632,5.726235294118072
4.035000000000001,8.607333333332905,-11.693888888888788,11.01888888888808
4.055000000000001,-3.9790999999997165,-8.092000000000288,1.3075999999997034
4.075000000000001,10.765181818182526,-10.168181818181562,4.194363636364273
4.095000000000001,21.558900000000126,-6.479799999999954,12.942400000000037
4.115000000000001,22.162000000000027,-3.3934999999997073,14.296800000000335
4.135000000000001,23.621285714285772,0.8967857142858184,19.093428571428685
4.155000000000001,18.15269999999986,8.912800000000129,22.576699999999743
4.175000000000001,13.775666666666217,11.212000000000211,18.431999999999814
4.195000000000001,3.3313333333326707,14.579666666666732,11.110666666666019
4.215000000000001,-8.545333333334149,17.16466666666676,4.750999999999954
4.235000000000001,-17.69220000000004,17.745100000000146,4.586400000000078
4.255000000000001,-11.234636363636058,18.502909090909075,3.19354545454541
4.275000000000001,-10.415200000000333,21.61940000000019,8.725600000000577
4.295000000000001,-7.84579999999948,16.233899999999483,7.797899999999753
4.315000000000001,-0.2664444444440494,9.380777777777427,6.344333333333648
4.335000000000001,6.215812500000256,2.6748124999996494,13.196187500000313
4.355000000000001,12.328500000000446,-7.710750000000878,22.265625000000455
4.375000000000001,16.919400000000078,-16.99520000000022,25.240399999999816
4.395000000000001,15.871555555555407,-23.828666666667168,17.701777777777117
4.415000000000001,12.947818181818096,-26.17018181818178,8.828454545454196
4.435000000000001,12.857888888888883,-24.40144444444433,-3.8674444444451286
4.455000000000001,12.947000000000035,-25.514818181818086,-10.374727272727373
4.475000000000001,6.158545454544726,-22.119636363636264,-7.987545454545077
4.495000000000001,-6.272000000000531,-20.54566666666652,-2.8396666666665316
4.515000000000001,-9.03036363636355,-16.548818181818042,-2.0364545454545646
4.535000000000001,-8.257999999999978,-14.183666666666593,-3.621222222222306
4.555000000000001,-7.439666666666728,-13.997222222222286,-6.747111111111265
4.575000000000001,-12.429333333333716,-13.91266666666652,-12.773666666667012
4.595000000000001,-17.073076923076876,-10.431384615384589,-19.639076923077017
4.615000000000001,-16.623181818181603,-15.13081818181827,-22.1191818181817
4.635000000000001,-11.622999999999776,-17.117363636363795,-18.976363636363462
4.655000000000001,-2.248692307691761,-20.71284615384624,-10.951461538460872
4.675000000000001,14.631400000001111,-23.19940000000024,-0.05339999999942635
4.695000000000001,40.1949090909091,-26.333727272726613,23.673090909092462
4.715000000000001,29.9457999999997,-9.656799999999631,42.274999999999864
4.735000000000001,22.260399999999457,-2.531800000000106,41.96880000000034
4.755000000000001,12.977599999999724,3.53600000000024,50.08000000000033
4.775000000000001,0.8933999999994608,7.968400000000497,51.401799999999554
4.795000000000001,-2.591909090909002,10.998909090909137,42.80799999999966
4.815000000000001,0.16525000000004156,9.633749999999846,31.579249999999224
4.835000000000001,-0.9660000000002078,6.699400000000113,14.541999999999405
4.855000000000001,-8.081333333333514,10.29677777777756,1.5323333333326516
4.875000000000001,-5.052599999999805,5.1191999999998705,-5.917600000000084
4.895000000000001,1.5312000000003385,1.5297999999998702,-7.666800000000098
4.915000000000001,3.8473999999999595,-1.9674000000002323,-9.417800000000009
4.935000000000001,2.428599999999854,-5.955200000000266,-7.531599999999777
4.955000000000001,1.1045000000000378,-9.16725000000014,-4.138749999999809
4.975000000000001,2.0656363636364166,-12.460818181818347,1.564181818182222
4.995000000000001,4.505181818181881,-15.471545454545632,9.951818181818703
5.0150000000000015,5.314666666666907,-16.642666666666685,11.18399999999886
5.035000000000001,6.598199999999789,-15.687400000000011,-1.3970000000004088
5.0550000000000015,3.1870000000005403,-21.869750000001265,-10.647000000000483
5.075000000000001,7.184249999999774,-29.838999999999906,-12.581999999999853
5.0950000000000015,-1.0942000000005134,-25.986199999999787,-8.17699999999973
5.115000000000001,-4.690545454545436,-24.285090909090908,-6.235000000000012
5.135000000000002,-1.5356363636357873,-22.44790909090875,-5.252363636363311
5.155000000000001,11.54080000000035,-18.373100000000054,-2.9355999999999183
5.175000000000001,10.026799999999787,-13.267599999999678,-1.7292000000001821
5.195000000000001,4.748333333333058,-7.870000000000024,-11.241666666667271
5.215000000000001,1.2415177304964538,-9.29627281323877,-18.697504018912532
5.235000000000001,1.2391063829787232,-9.302636879432624,-18.69002411347518
5.255000000000001,1.236695035460993,-9.309000945626478,-18.682544208037825
5.275000000000001,1.2342836879432624,-9.315365011820331,-18.675064302600475
5.295000000000001,1.2318723404255318,-9.321729078014185,-18.66758439716312
5.315000000000001,1.2294609929078013,-9.328093144208038,-18.660104491725768
5.335000000000001,1.2270496453900708,-9.334457210401892,-18.652624586288418
5.355000000000001,1.2246382978723402,-9.340821276595745,-18.645144680851065
5.375000000000001,1.22222695035461,-9.347185342789599,-18.637664775413715
5.395000000000001,1.2198156028368794,-9.353549408983453,-18.63018486997636
5.415000000000001,1.2174042553191489,-9.359913475177304,-18.622704964539007
5.435000000000001,1.2149929078014183,-9.366277541371158,-18.615225059101657
5.455000000000001,1.2125815602836878,-9.372641607565011,-18.607745153664304
5.475000000000001,1.2101702127659573,-9.379005673758865,-18.60026524822695
5.495000000000001,1.207758865248227,-9.385369739952719,-18.5927853427896
5.5150000000000015,1.2053475177304964,-9.391733806146572,-18.585305437352247
5.535000000000001,1.2029361702127659,-9.398097872340426,-18.577825531914893
5.5550000000000015,1.2005248226950354,-9.40446193853428,-18.570345626477543
5.575000000000001,1.1981134751773048,-9.410826004728133,-18.56286572104019
5.5950000000000015,1.1957021276595743,-9.417190070921986,-18.55538581560284
5.615000000000001,1.193290780141844,-9.42355413711584,-18.547905910165486
5.635000000000002,1.1908794326241132,-9.429918203309693,-18.540426004728133
5.655000000000001,1.188468085106383,-9.436282269503547,-18.532946099290783
5.675000000000002,1.1860567375886524,-9.4426463356974,-18.52546619385343
5.695000000000001,1.1836453900709218,-9.449010401891254,-18.517986288416076
5.715000000000002,1.1812340425531913,-9.455374468085108,-18.510506382978726
5.735000000000001,1.1788226950354608,-9.46173853427896,-18.503026477541372
5.755000000000002,1.1764113475177302,-9.468102600472813,-18.49554657210402
5.775000000000001,1.174,-9.474466666666666,-18.48806666666667
5.795000000000002,1.1715886524822694,-9.48083073286052,-18.480586761229315
5.815000000000001,1.1691773049645389,-9.487194799054373,-18.473106855791965
5.835000000000001,1.1667659574468083,-9.493558865248227,-18.46562695035461
5.855000000000001,1.1643546099290778,-9.49992293144208,-18.458147044917258
5.875000000000001,1.1619432624113475,-9.506286997635934,-18.450667139479908
5.895000000000001,1.159531914893617,-9.512651063829788,-18.443187234042554
5.915000000000001,1.1571205673758864,-9.519015130023641,-18.4357073286052
5.935000000000001,1.1547092198581559,-9.525379196217495,-18.42822742316785
5.955000000000001,1.1522978723404254,-9.531743262411348,-18.420747517730497
5.975000000000001,1.1498865248226948,-9.538107328605202,-18.413267612293144
5.995000000000001,1.1474751773049645,-9.544471394799055,-18.405787706855794
6.0150000000000015,1.145063829787234,-9.550835460992909,-18.39830780141844
6.035000000000001,1.1426524822695034,-9.55719952718676,-18.39082789598109
6.0550000000000015,1.140241134751773,-9.563563593380614,-18.383347990543736
6.075000000000001,1.1378297872340424,-9.569927659574468,-18.375868085106383
6.0950000000000015,1.1354184397163118,-9.576291725768321,-18.368388179669033
6.115000000000001,1.1330070921985815,-9.582655791962175,-18.36090827423168
6.135000000000002,1.130595744680851,-9.589019858156028,-18.353428368794326
6.155000000000001,1.1281843971631205,-9.595383924349882,-18.345948463356976
6.175000000000002,1.12577304964539,-9.601747990543736,-18.338468557919622
6.195000000000001,1.1233617021276594,-9.608112056737589,-18.330988652482272
6.215000000000002,1.1209503546099289,-9.614476122931443,-18.32350874704492
6.235000000000001,1.1185390070921986,-9.620840189125296,-18.316028841607565
6.255000000000002,1.116127659574468,-9.62720425531915,-18.308548936170215
6.275000000000001,1.1137163120567375,-9.633568321513003,-18.30106903073286
6.295000000000002,1.111304964539007,-9.639932387706857,-18.293589125295508
6.315000000000001,1.1088936170212764,-9.64629645390071,-18.286109219858158
6.335000000000002,1.106482269503546,-9.652660520094564,-18.278629314420805
6.355000000000001,1.1040709219858154,-9.659024586288416,-18.27114940898345
6.375000000000002,1.1016595744680848,-9.66538865248227,-18.2636695035461
6.395000000000001,1.0992482269503545,-9.671752718676123,-18.256189598108747
6.415000000000002,1.096836879432624,-9.678116784869976,-18.248709692671397
6.435000000000001,1.0944255319148934,-9.68448085106383,-18.241229787234044
6.455000000000001,1.0920141843971631,-9.690844917257683,-18.23374988179669
6.475000000000001,1.0896028368794326,-9.697208983451537,-18.22626997635934
6.495000000000001,1.087191489361702,-9.70357304964539,-18.218790070921987
6.5150000000000015,1.0847801418439715,-9.709937115839244,-18.211310165484633
6.535000000000001,1.082368794326241,-9.716301182033098,-18.203830260047283
6.5550000000000015,1.0799574468085105,-9.722665248226951,-18.19635035460993
6.575000000000001,1.07754609929078,-9.729029314420805,-18.18887044917258
6.5950000000000015,1.0751347517730494,-9.735393380614658,-18.181390543735226
6.615000000000001,1.072723404255319,-9.74175744680851,-18.173910638297873
6.635000000000002,1.0703120567375886,-9.748121513002364,-18.166430732860523
6.655000000000001,1.067900709219858,-9.754485579196217,-18.15895082742317
6.675000000000002,1.0654893617021275,-9.76084964539007,-18.151470921985815
6.695000000000001,1.0630780141843972,-9.767213711583924,-18.143991016548465
6.715000000000002,1.0606666666666664,-9.773577777777778,-18.136511111111112
6.735000000000001,1.0582553191489361,-9.779941843971631,-18.12903120567376
6.755000000000002,1.0558439716312056,-9.786305910165485,-18.12155130023641
6.775000000000001,1.053432624113475,-9.792669976359338,-18.114071394799055
6.795000000000002,1.0510212765957445,-9.799034042553192,-18.1065914893617
6.815000000000001,1.048609929078014,-9.805398108747045,-18.09911158392435
6.835000000000002,1.0461985815602834,-9.811762174940899,-18.091631678486998
6.855000000000001,1.0437872340425531,-9.818126241134753,-18.084151773049648
6.875000000000002,1.0413758865248226,-9.824490307328606,-18.076671867612294
6.895000000000001,1.038964539007092,-9.83085437352246,-18.06919196217494
6.915000000000002,1.0365531914893615,-9.837218439716313,-18.06171205673759
6.935000000000001,1.034141843971631,-9.843582505910167,-18.054232151300237
6.955000000000002,1.0317304964539005,-9.84994657210402,-18.046752245862884
6.975000000000001,1.0293191489361702,-9.856310638297872,-18.039272340425534
6.995000000000002,1.0269078014184396,-9.862674704491726,-18.03179243498818
7.0150000000000015,1.024496453900709,-9.869038770685579,-18.02431252955083
7.035000000000002,1.0220851063829786,-9.875402836879433,-18.016832624113476
7.0550000000000015,1.019673758865248,-9.881766903073286,-18.009352718676123
7.075000000000001,1.0172624113475177,-9.88813096926714,-18.001872813238773
7.0950000000000015,1.0148510638297872,-9.894495035460993,-17.99439290780142
7.115000000000001,1.0124397163120566,-9.900859101654847,-17.986913002364066
7.135000000000002,1.0100283687943261,-9.9072231678487,-17.979433096926716
7.155000000000001,1.0076170212765956,-9.913587234042554,-17.971953191489362
7.175000000000002,1.005205673758865,-9.919951300236407,-17.96447328605201
7.195000000000001,1.0027943262411347,-9.926315366430261,-17.95699338061466
7.215000000000002,1.0003829787234042,-9.932679432624115,-17.949513475177305
7.235000000000001,0.9979716312056737,-9.939043498817966,-17.942033569739955
7.255000000000002,0.9955602836879431,-9.94540756501182,-17.9345536643026
7.275000000000001,0.9931489361702126,-9.951771631205673,-17.927073758865248
7.295000000000002,0.9907375886524821,-9.958135697399527,-17.919593853427898
7.315000000000001,0.9883262411347516,-9.96449976359338,-17.912113947990544
7.335000000000002,0.9859148936170211,-9.970863829787234,-17.90463404255319
7.355000000000001,0.9835035460992907,-9.977227895981088,-17.89715413711584
7.375000000000002,0.9810921985815602,-9.983591962174941,-17.889674231678487
7.395000000000001,0.9786808510638296,-9.989956028368795,-17.882194326241137
7.415000000000002,0.9762695035460991,-9.996320094562648,-17.874714420803784
7.435000000000001,0.9738581560283687,-10.002684160756502,-17.86723451536643
7.455000000000002,0.9714468085106381,-10.009048226950355,-17.85975460992908
7.475000000000001,0.9690354609929077,-10.015412293144209,-17.852274704491727
7.495000000000002,0.9666241134751772,-10.021776359338062,-17.844794799054373
7.5150000000000015,0.9642127659574466,-10.028140425531916,-17.837314893617023
7.535000000000002,0.9618014184397161,-10.03450449172577,-17.82983498817967
7.5550000000000015,0.9593900709219857,-10.040868557919621,-17.822355082742316
7.575000000000002,0.956978723404255,-10.047232624113475,-17.814875177304966
7.5950000000000015,0.9545673758865247,-10.053596690307328,-17.807395271867613
7.615000000000002,0.9521560283687942,-10.059960756501182,-17.79991536643026
7.635000000000002,0.9497446808510637,-10.066324822695035,-17.79243546099291
7.655000000000002,0.9473333333333331,-10.072688888888889,-17.784955555555555
7.675000000000002,0.9449219858156027,-10.079052955082743,-17.777475650118205
7.695000000000002,0.9425106382978721,-10.085417021276596,-17.769995744680852
7.715000000000002,0.9400992907801418,-10.09178108747045,-17.7625158392435
7.735000000000001,0.9376879432624112,-10.098145153664303,-17.75503593380615
7.755000000000002,0.9352765957446807,-10.104509219858157,-17.747556028368795
7.775000000000001,0.9328652482269503,-10.11087328605201,-17.74007612293144
7.795000000000002,0.9304539007092196,-10.117237352245864,-17.73259621749409
7.815000000000001,0.9280425531914893,-10.123601418439717,-17.725116312056738
7.835000000000002,0.9256312056737588,-10.129965484633571,-17.717636406619388
7.855000000000001,0.9232198581560283,-10.136329550827423,-17.710156501182034
7.875000000000002,0.9208085106382977,-10.142693617021276,-17.70267659574468
7.895000000000001,0.9183971631205672,-10.14905768321513,-17.69519669030733
7.915000000000002,0.9159858156028367,-10.155421749408983,-17.687716784869977
7.935000000000001,0.9135744680851063,-10.161785815602837,-17.680236879432623
7.955000000000002,0.9111631205673757,-10.16814988179669,-17.672756973995273
7.975000000000001,0.9087517730496453,-10.174513947990544,-17.66527706855792
7.995000000000002,0.9063404255319147,-10.180878014184398,-17.657797163120566
8.015,0.9039290780141844,-10.187242080378251,-17.650317257683216
8.035000000000002,0.9015177304964537,-10.193606146572105,-17.642837352245863
8.055000000000001,0.8991063829787233,-10.199970212765958,-17.635357446808513
8.075000000000001,0.8966950354609928,-10.206334278959812,-17.62787754137116
8.095000000000002,0.8942836879432622,-10.212698345153665,-17.620397635933806
8.115000000000002,0.8918723404255318,-10.219062411347519,-17.612917730496456
8.135000000000002,0.8894609929078012,-10.225426477541372,-17.605437825059102
8.155000000000001,0.8870496453900708,-10.231790543735224,-17.59795791962175
8.175000000000002,0.8846382978723402,-10.23815460992908,-17.5904780141844
8.195000000000002,0.8822269503546097,-10.244518676122931,-17.582998108747045
8.215000000000002,0.8798156028368793,-10.250882742316785,-17.57551820330969
8.235000000000001,0.8774042553191488,-10.257246808510638,-17.56803829787234
8.255000000000003,0.8749929078014183,-10.263610874704492,-17.560558392434988
8.275000000000002,0.8725815602836877,-10.269974940898345,-17.553078486997638
8.295000000000002,0.8701702127659573,-10.276339007092199,-17.545598581560284
8.315000000000001,0.8677588652482269,-10.282703073286052,-17.53811867612293
8.335000000000003,0.8653475177304961,-10.289067139479906,-17.53063877068558
8.355000000000002,0.8629361702127658,-10.29543120567376,-17.523158865248227
8.375000000000002,0.8605248226950353,-10.301795271867613,-17.515678959810874
8.395000000000001,0.8581134751773049,-10.308159338061467,-17.508199054373524
8.415000000000001,0.8557021276595744,-10.314523404255318,-17.50071914893617
8.435000000000002,0.8532907801418437,-10.320887470449174,-17.49323924349882
8.455000000000002,0.8508794326241134,-10.327251536643026,-17.485759338061467
8.475000000000001,0.8484680851063828,-10.333615602836879,-17.478279432624113
8.495000000000001,0.8460567375886524,-10.339979669030733,-17.470799527186763
8.515000000000002,0.8436453900709218,-10.346343735224586,-17.46331962174941
8.535000000000002,0.8412340425531912,-10.35270780141844,-17.455839716312056
8.555000000000001,0.8388226950354609,-10.359071867612293,-17.448359810874706
8.575000000000001,0.8364113475177304,-10.365435933806147,-17.440879905437352
8.595000000000002,0.8339999999999997,-10.3718,-17.4334
8.615000000000002,0.8315886524822693,-10.378164066193854,-17.42592009456265
8.635000000000002,0.8291773049645389,-10.384528132387707,-17.418440189125295
8.655000000000001,0.8267659574468085,-10.390892198581561,-17.410960283687945
8.675000000000002,0.8243546099290777,-10.397256264775415,-17.403480378250592
8.695000000000002,0.8219432624113473,-10.403620330969268,-17.39600047281324
8.715000000000002,0.8195319148936169,-10.409984397163122,-17.38852056737589
8.735000000000001,0.8171205673758865,-10.416348463356975,-17.381040661938535
8.755000000000003,0.8147092198581558,-10.422712529550829,-17.37356075650118
8.775000000000002,0.8122978723404253,-10.429076595744682,-17.36608085106383
8.795000000000002,0.809886524822695,-10.435440661938534,-17.358600945626478
8.815000000000001,0.8074751773049644,-10.441804728132388,-17.351121040189128
8.835000000000003,0.8050638297872338,-10.448168794326241,-17.343641134751774
8.855000000000002,0.8026524822695034,-10.454532860520095,-17.33616122931442
8.875000000000002,0.8002411347517728,-10.460896926713948,-17.32868132387707
8.895000000000001,0.7978297872340425,-10.467260992907802,-17.321201418439717
8.915000000000003,0.7954184397163118,-10.473625059101655,-17.313721513002363
8.935000000000002,0.7930070921985813,-10.479989125295509,-17.306241607565013
8.955000000000002,0.7905957446808509,-10.486353191489362,-17.29876170212766
8.975000000000001,0.7881843971631204,-10.492717257683216,-17.291281796690306
8.995000000000001,0.7857730496453901,-10.49908132387707,-17.283801891252956
9.015000000000002,0.7833617021276593,-10.505445390070923,-17.276321985815603
9.035000000000002,0.7809503546099289,-10.511809456264777,-17.26884208037825
9.055000000000001,0.7785390070921985,-10.518173522458628,-17.2613621749409
9.075000000000001,0.7761276595744679,-10.524537588652482,-17.253882269503546
9.095000000000002,0.7737163120567374,-10.530901654846335,-17.246402364066196
9.115000000000002,0.7713049645390069,-10.537265721040189,-17.238922458628842
9.135000000000002,0.7688936170212765,-10.543629787234043,-17.23144255319149
9.155000000000001,0.766482269503546,-10.549993853427896,-17.22396264775414
9.175000000000002,0.7640709219858153,-10.55635791962175,-17.216482742316785
9.195000000000002,0.761659574468085,-10.562721985815603,-17.20900283687943
9.215000000000002,0.7592482269503544,-10.569086052009457,-17.20152293144208
9.235000000000001,0.756836879432624,-10.57545011820331,-17.194043026004728
9.255000000000003,0.7544255319148934,-10.581814184397164,-17.186563120567378
9.275000000000002,0.7520141843971629,-10.588178250591017,-17.179083215130024
9.295000000000002,0.7496028368794325,-10.594542316784871,-17.17160330969267
9.315000000000001,0.747191489361702,-10.600906382978724,-17.16412340425532
9.335000000000003,0.7447801418439713,-10.607270449172578,-17.156643498817967
9.355000000000002,0.7423687943262409,-10.613634515366432,-17.149163593380614
9.375000000000002,0.7399574468085105,-10.619998581560285,-17.141683687943264
9.395000000000001,0.7375460992907801,-10.626362647754137,-17.13420378250591
9.415000000000003,0.7351347517730493,-10.632726713947992,-17.126723877068557
9.435000000000002,0.7327234042553189,-10.639090780141844,-17.119243971631207
9.455000000000002,14.564999999991509,-10.934999999998315,5.514999999994948
9.475000000000001,13.219999999997837,21.90700000000278,-1.2479999999978426
9.495000000000003,9.537700000000935,27.805899999999404,15.059900000001866
9.515000000000002,3.089599999998187,26.93720000000012,26.81820000000136
9.535000000000002,-3.4955000000002032,27.420249999999974,22.989624999998576
9.555000000000001,1.810222222222775,26.021111111110972,11.046777777777017
9.575000000000003,6.509090909091089,20.922272727271697,5.478363636363214
9.595000000000002,3.313499999999599,12.347249999999281,3.21874999999979
9.615000000000002,-2.358545454545758,3.4688181818177544,1.9443636363635934
9.635000000000002,-0.6970999999993324,0.9016000000000078,1.05369999999989
9.655000000000001,12.938500000000898,-0.19000000000012218,-0.7617500000001298
9.675000000000002,25.57290000000097,-6.3660000000009465,-2.541900000000155
9.695000000000002,23.42277777777703,-13.372222222222982,-4.29611111111134
9.715000000000002,17.66174999999958,-16.886000000000223,-4.066749999999977
9.735000000000001,16.940115757042253,-17.265642825704226,-4.0229194542253515
9.755000000000003,16.92848723591549,-17.271104973591548,-4.016942341549295
9.775000000000002,16.91685871478873,-17.276567121478873,-4.010965228873238
9.795000000000002,16.90523019366197,-17.2820292693662,-4.0049881161971825
9.815000000000001,16.89360167253521,-17.28749141725352,-3.999011003521126
9.835000000000003,16.88197315140845,-17.292953565140845,-3.9930338908450693
9.855000000000002,16.87034463028169,-17.29841571302817,-3.987056778169013
9.875000000000002,16.858716109154926,-17.30387786091549,-3.981079665492957
9.895000000000001,16.847087588028167,-17.309340008802817,-3.9751025528169004
9.915000000000003,16.835459066901407,-17.314802156690142,-3.969125440140844
9.935000000000002,16.823830545774644,-17.320264304577464,-3.9631483274647876
9.955000000000002,16.812202024647885,-17.32572645246479,-3.9571712147887315
9.975000000000001,16.800573503521125,-17.331188600352114,-3.9511941021126753
9.995000000000003,16.788944982394362,-17.336650748239435,-3.9452169894366187
10.015000000000002,16.777316461267603,-17.34211289612676,-3.939239876760562
10.035000000000002,16.765687940140843,-17.347575044014086,-3.933262764084506
10.055000000000001,16.754059419014084,-17.353037191901407,-3.9272856514084498
10.075000000000003,16.74243089788732,-17.358499339788732,-3.921308538732393
10.095000000000002,16.73080237676056,-17.363961487676058,-3.915331426056337
10.115000000000002,16.7191738556338,-17.36942363556338,-3.909354313380281
10.135000000000002,16.707545334507042,-17.374885783450704,-3.9033772007042247
10.155000000000003,16.69591681338028,-17.38034793133803,-3.8974000880281676
10.175000000000002,16.68428829225352,-17.38581007922535,-3.8914229753521115
10.195000000000002,16.67265977112676,-17.391272227112676,-3.8854458626760553
10.215000000000002,16.661031249999997,-17.396734375,-3.879468749999999
10.235000000000003,16.649402728873238,-17.402196522887323,-3.8734916373239425
10.255000000000003,16.637774207746478,-17.407658670774648,-3.8675145246478864
10.275000000000002,16.626145686619715,-17.413120818661973,-3.86153741197183
10.295000000000002,16.614517165492956,-17.418582966549295,-3.8555602992957736
10.315000000000001,16.602888644366196,-17.42404511443662,-3.8495831866197174
10.335000000000003,16.591260123239433,-17.429507262323945,-3.843606073943661
10.355000000000002,16.579631602112674,-17.434969410211266,-3.8376289612676047
10.375000000000002,16.568003080985914,-17.44043155809859,-3.8316518485915485
10.395000000000001,16.556374559859155,-17.445893705985917,-3.8256747359154923
10.415000000000003,16.54474603873239,-17.45135585387324,-3.8196976232394353
10.435000000000002,16.533117517605632,-17.456818001760563,-3.813720510563379
10.455000000000002,16.521488996478872,-17.46228014964789,-3.807743397887323
10.475000000000001,16.509860475352113,-17.46774229753521,-3.801766285211267
10.495000000000003,16.49823195422535,-17.473204445422535,-3.79578917253521
10.515000000000002,16.48660343309859,-17.47866659330986,-3.789812059859154
10.535000000000002,16.47497491197183,-17.484128741197182,-3.783834947183098
10.555000000000001,16.463346390845068,-17.489590889084507,-3.7778578345070413
10.575000000000003,16.45171786971831,-17.495053036971832,-3.7718807218309847
10.595000000000002,16.44008934859155,-17.500515184859154,-3.7659036091549285
10.615000000000002,16.428460827464786,-17.50597733274648,-3.7599264964788723
10.635000000000002,16.416832306338026,-17.511439480633804,-3.753949383802816
10.655000000000003,16.405203785211267,-17.516901628521126,-3.7479722711267596
10.675000000000002,16.393575264084504,-17.52236377640845,-3.7419951584507034
10.695000000000002,16.381946742957744,-17.527825924295776,-3.736018045774647
10.715000000000002,16.370318221830985,-17.533288072183097,-3.7300409330985906
10.735000000000003,16.358689700704222,-17.538750220070423,-3.724063820422534
10.755000000000003,16.347061179577462,-17.544212367957748,-3.718086707746478
10.775000000000002,16.335432658450703,-17.54967451584507,-3.7121095950704217
10.795000000000002,16.323804137323943,-17.555136663732394,-3.7061324823943655
10.815000000000003,16.31217561619718,-17.56059881161972,-3.7001553697183085
10.835000000000003,16.30054709507042,-17.56606095950704,-3.6941782570422523
10.855000000000002,16.28891857394366,-17.571523107394366,-3.688201144366196
10.875000000000002,16.2772900528169,-17.57698525528169,-3.68222403169014
10.895000000000003,16.26566153169014,-17.582447403169013,-3.6762469190140834
10.915000000000003,16.25403301056338,-17.587909551056338,-3.6702698063380272
10.935000000000002,16.242404489436616,-17.593371698943663,-3.664292693661971
10.955000000000002,16.230775968309857,-17.598833846830985,-3.6583155809859145
10.975000000000001,16.219147447183097,-17.60429599471831,-3.6523384683098583
10.995000000000003,16.207518926056338,-17.609758142605635,-3.6463613556338017
11.015000000000002,16.195890404929575,-17.615220290492957,-3.6403842429577455
11.035000000000002,16.184261883802815,-17.620682438380282,-3.6344071302816894
11.055000000000001,16.172633362676056,-17.626144586267607,-3.628430017605633
11.075000000000003,16.161004841549293,-17.63160673415493,-3.6224529049295766
11.095000000000002,16.149376320422533,-17.637068882042254,-3.61647579225352
11.115000000000002,16.137747799295774,-17.64253102992958,-3.610498679577464
11.135000000000002,16.126119278169014,-17.6479931778169,-3.6045215669014077
11.155000000000003,16.11449075704225,-17.653455325704225,-3.598544454225351
11.175000000000002,16.10286223591549,-17.65891747359155,-3.592567341549295
11.195000000000002,16.091233714788732,-17.664379621478872,-3.5865902288732388
11.215000000000002,16.07960519366197,-17.669841769366197,-3.580613116197182
11.235000000000003,16.06797667253521,-17.675303917253522,-3.5746360035211255
11.255000000000003,16.05634815140845,-17.680766065140844,-3.5686588908450694
11.275000000000002,16.044719630281687,-17.68622821302817,-3.562681778169013
11.295000000000002,16.033091109154928,-17.691690360915494,-3.556704665492957
11.315000000000003,16.021462588028168,-17.697152508802816,-3.5507275528169004
11.335000000000003,16.009834066901405,-17.70261465669014,-3.5447504401408443
11.355000000000002,15.998205545774645,-17.708076804577466,-3.5387733274647877
11.375000000000002,15.986577024647886,-17.713538952464788,-3.5327962147887315
11.395000000000003,15.974948503521125,-17.719001100352113,-3.526819102112675
11.415000000000003,15.963319982394363,-17.724463248239438,-3.5208419894366187
11.435000000000002,15.951691461267604,-17.72992539612676,-3.5148648767605626
11.455000000000002,15.940062940140844,-17.735387544014085,-3.5088877640845064
11.475000000000003,15.928434419014081,-17.74084969190141,-3.50291065140845
11.495000000000003,15.916805897887322,-17.74631183978873,-3.496933538732393
11.515000000000002,15.905177376760562,-17.751773987676057,-3.490956426056337
11.535000000000002,15.893548855633801,-17.75723613556338,-3.484979313380281
11.555000000000003,15.88192033450704,-17.762698283450703,-3.4790022007042243
11.575000000000003,15.87029181338028,-17.76816043133803,-3.473025088028168
11.595000000000002,15.85866329225352,-17.773622579225353,-3.467047975352112
11.615000000000002,15.84703477112676,-17.779084727112675,-3.4610708626760553
11.635000000000002,15.835406249999998,-17.784546875,-3.4550937499999996
11.655000000000003,15.823777728873237,-17.790009022887325,-3.4491166373239426
11.675000000000002,15.812149207746478,-17.795471170774647,-3.4431395246478864
11.695000000000002,15.800520686619716,-17.800933318661972,-3.4371624119718303
11.715000000000002,15.788892165492957,-17.806395466549294,-3.431185299295774
11.735000000000003,15.777263644366196,-17.81185761443662,-3.4252081866197175
11.755000000000003,15.765635123239434,-17.817319762323944,-3.419231073943661
11.775000000000002,15.754006602112675,-17.82278191021127,-3.4132539612676047
11.795000000000002,15.742378080985914,-17.82824405809859,-3.4072768485915486
11.815000000000003,15.730749559859152,-17.833706205985916,-3.401299735915492
11.835000000000003,15.719121038732393,-17.83916835387324,-3.395322623239436
11.855000000000002,15.707492517605631,-17.844630501760562,-3.3893455105633796
11.875000000000002,15.695863996478872,-17.850092649647888,-3.383368397887323
11.895000000000003,15.68423547535211,-17.855554797535213,-3.3773912852112664
11.915000000000003,15.67260695422535,-17.861016945422534,-3.3714141725352103
11.935000000000002,15.66097843309859,-17.86647909330986,-3.365437059859154
11.955000000000002,15.649349911971829,-17.87194124119718,-3.359459947183098
11.975000000000003,15.637721390845067,-17.877403389084506,-3.3534828345070413
11.995000000000003,15.626092869718308,-17.88286553697183,-3.347505721830985
12.015000000000002,15.614464348591547,-17.888327684859156,-3.3415286091549286
12.035000000000002,15.602835827464787,-17.893789832746478,-3.3355514964788724
12.055000000000003,15.591207306338026,-17.899251980633803,-3.329574383802816
12.075000000000003,15.579578785211265,-17.904714128521128,-3.3235972711267596
12.095000000000002,15.567950264084505,-17.91017627640845,-3.3176201584507035
12.115000000000002,15.556321742957746,-17.915638424295775,-3.3116430457746473
12.135000000000003,15.544693221830984,-17.9211005721831,-3.3056659330985907
12.155000000000003,15.533064700704223,-17.92656272007042,-3.299688820422534
12.175000000000002,15.521436179577464,-17.932024867957747,-3.293711707746478
12.195000000000002,15.509807658450702,-17.93748701584507,-3.2877345950704218
12.215000000000002,15.498179137323943,-17.942949163732393,-3.2817574823943656
12.235000000000003,15.486550616197182,-17.94841131161972,-3.275780369718309
12.255000000000003,15.47492209507042,-17.953873459507044,-3.269803257042253
12.275000000000002,15.46329357394366,-17.959335607394365,-3.2638261443661962
12.295000000000002,15.4516650528169,-17.96479775528169,-3.2578490316901405
12.315000000000003,15.440036531690138,-17.970259903169016,-3.2518719190140835
12.335000000000003,15.428408010563379,-17.975722051056337,-3.2458948063380273
12.355000000000002,15.416779489436617,-17.981184198943662,-3.239917693661971
12.375000000000002,15.405150968309858,-17.986646346830984,-3.233940580985915
12.395000000000003,15.393522447183097,-17.99210849471831,-3.2279634683098584
12.415000000000003,15.381893926056335,-17.997570642605634,-3.2219863556338018
12.435000000000002,15.370265404929576,-18.003032790492956,-3.2160092429577456
12.455000000000002,15.358636883802816,-18.00849493838028,-3.2100321302816894
12.475000000000003,15.347008362676053,-18.013957086267606,-3.204055017605633
12.495000000000003,15.335379841549294,-18.01941923415493,-3.1980779049295767
12.515000000000002,15.323751320422534,-18.024881382042253,-3.1921007922535205
12.535000000000002,15.312122799295773,-18.030343529929578,-3.186123679577464
12.555000000000003,15.300494278169012,-18.035805677816903,-3.1801465669014073
12.575000000000003,15.288865757042252,-18.041267825704224,-3.174169454225351
12.595000000000002,15.277237235915491,-18.04672997359155,-3.168192341549295
12.615000000000002,15.265608714788732,-18.05219212147887,-3.162215228873239
12.635000000000003,15.25398019366197,-18.057654269366196,-3.156238116197182
12.655000000000003,15.242351672535209,-18.06311641725352,-3.150261003521126
12.675000000000002,15.23072315140845,-18.068578565140843,-3.1442838908450694
12.695000000000002,15.219094630281688,-18.074040713028168,-3.1383067781690137
12.715000000000003,15.207466109154927,-18.079502860915493,-3.1323296654929567
12.735000000000003,15.195837588028168,-18.08496500880282,-3.1263525528169005
12.755000000000003,15.184209066901406,-18.09042715669014,-3.1203754401408443
12.775000000000002,15.172580545774647,-18.095889304577465,-3.114398327464788
12.795000000000003,15.160952024647885,-18.10135145246479,-3.1084212147887316
12.815000000000003,15.149323503521124,-18.106813600352112,-3.102444102112675
12.835000000000003,15.137694982394365,-18.112275748239437,-3.096466989436619
12.855000000000002,15.126066461267603,-18.11773789612676,-3.0904898767605626
12.875000000000002,15.114437940140844,-18.123200044014084,-3.0845127640845065
12.895000000000003,15.102809419014083,-18.12866219190141,-3.07853565140845
12.915000000000003,15.091180897887321,-18.13412433978873,-3.0725585387323937
12.935000000000002,15.079552376760562,-18.139586487676056,-3.066581426056337
12.955000000000002,15.0679238556338,-18.14504863556338,-3.0606043133802814
12.975000000000003,15.05629533450704,-18.150510783450706,-3.0546272007042243
12.995000000000003,15.04466681338028,-18.155972931338027,-3.048650088028168
13.015000000000002,15.033038292253519,-18.161435079225352,-3.042672975352112
13.035000000000002,15.02140977112676,-18.166897227112674,-3.036695862676056
13.055000000000003,15.009781249999998,-18.172359375,-3.0307187499999992
13.075000000000003,14.998152728873237,-18.177821522887324,-3.0247416373239426
13.095000000000002,14.986524207746477,-18.183283670774646,-3.018764524647887
13.115000000000002,14.974895686619718,-18.18874581866197,-3.0127874119718303
13.135000000000003,14.963267165492956,-18.194207966549296,-3.0068102992957737
13.155000000000003,14.951638644366195,-18.199670114436618,-3.0008331866197175
13.175000000000002,14.940010123239436,-18.205132262323943,-2.9948560739436614
13.195000000000002,14.928381602112674,-18.210594410211268,-2.9888789612676048
13.215000000000003,14.916753080985913,-18.216056558098593,-2.982901848591548
13.235000000000003,14.905124559859154,-18.221518705985915,-2.976924735915492
13.255000000000003,14.893496038732392,-18.22698085387324,-2.970947623239436
13.275000000000002,14.881867517605633,-18.23244300176056,-2.9649705105633797
13.295000000000003,14.870238996478871,-18.237905149647887,-2.9589933978873226
13.315000000000003,14.85861047535211,-18.24336729753521,-2.953016285211267
13.335000000000003,14.84698195422535,-18.248829445422533,-2.9470391725352103
13.355000000000002,14.83535343309859,-18.25429159330986,-2.9410620598591546
13.375000000000004,14.823724911971828,-18.259753741197184,-2.9350849471830975
13.395000000000003,14.812096390845069,-18.265215889084505,-2.9291078345070414
13.415000000000003,14.800467869718307,-18.27067803697183,-2.923130721830985
13.435000000000002,14.788839348591548,-18.276140184859155,-2.917153609154929
13.455000000000004,14.777210827464787,-18.28160233274648,-2.9111764964788724
13.475000000000003,14.765582306338025,-18.287064480633802,-2.905199383802816
13.495000000000003,14.753953785211266,-18.292526628521127,-2.89922227112676
13.515000000000002,14.742325264084506,-18.29798877640845,-2.8932451584507035
13.535000000000002,14.730696742957745,-18.303450924295774,-2.8872680457746474
13.555000000000003,14.719068221830984,-18.3089130721831,-2.8812909330985907
13.575000000000003,14.707439700704224,-18.31437522007042,-2.8753138204225346
13.595000000000002,14.695811179577463,-18.319837367957746,-2.869336707746478
13.615000000000002,14.684182658450704,-18.32529951584507,-2.8633595950704223
13.635000000000003,14.672554137323942,-18.330761663732392,-2.857382482394365
13.655000000000003,14.660925616197181,-18.336223811619718,-2.851405369718309
13.675000000000002,14.649297095070422,-18.341685959507043,-2.845428257042253
13.695000000000002,14.63766857394366,-18.347148107394364,-2.8394511443661967
13.715000000000003,14.626040052816899,-18.35261025528169,-2.83347403169014
13.735000000000003,14.61441153169014,-18.358072403169015,-2.8274969190140835
13.755000000000003,14.602783010563378,-18.363534551056336,-2.821519806338028
13.775000000000002,14.591154489436619,-18.36899669894366,-2.815542693661971
13.795000000000003,14.579525968309857,-18.374458846830986,-2.8095655809859146
13.815000000000003,14.567897447183096,-18.379920994718308,-2.8035884683098584
13.835000000000003,14.556268926056337,-18.385383142605633,-2.7976113556338023
13.855000000000002,14.544640404929575,-18.39084529049296,-2.7916342429577456
13.875000000000004,14.533011883802814,-18.39630743838028,-2.785657130281689
13.895000000000003,14.521383362676055,-18.401769586267605,-2.7796800176056333
13.915000000000003,14.509754841549295,-18.40723173415493,-2.7737029049295767
13.935000000000002,14.498126320422534,-18.41269388204225,-2.7677257922535206
13.955000000000004,14.486497799295773,-18.418156029929577,-2.761748679577464
13.975000000000003,14.474869278169013,-18.423618177816902,-2.755771566901408
13.995000000000003,14.463240757042252,-18.429080325704223,-2.749794454225351
14.015000000000002,14.45161223591549,-18.43454247359155,-2.7438173415492955
14.035000000000004,14.439983714788731,-18.440004621478874,-2.7378402288732384
14.055000000000003,14.42835519366197,-18.445466769366195,-2.7318631161971823
14.075000000000003,14.416726672535209,-18.45092891725352,-2.725886003521126
14.095000000000002,14.405098151408449,-18.456391065140846,-2.71990889084507
14.115000000000002,14.39346963028169,-18.461853213028167,-2.7139317781690138
14.135000000000003,14.381841109154927,-18.467315360915492,-2.7079546654929567
14.155000000000003,14.370212588028167,-18.472777508802817,-2.701977552816901
14.175000000000002,14.358584066901408,-18.47823965669014,-2.6960004401408444
14.195000000000002,14.346955545774646,-18.483701804577464,-2.6900233274647882
14.215000000000003,14.335327024647885,-18.48916395246479,-2.6840462147887316
14.235000000000003,14.323698503521126,-18.49462610035211,-2.6780691021126755
14.255000000000003,14.312069982394364,-18.500088248239436,-2.672091989436619
14.275000000000002,5.476071428572283,36.58121428571477,-0.28171428571443247
14.295000000000003,15.76729999999827,35.39969999999974,-0.4566999999987006
14.315000000000003,1.6949999999988183,34.83199999999962,8.40600000000099
14.335000000000003,-0.11662499999836795,31.815749999999028,12.236874999999662
14.355000000000002,9.095000000001377,25.36749999999835,9.455874999999352
14.375000000000004,14.009999999999366,15.561999999996763,5.5779999999985925
14.395000000000003,9.152399999999284,2.2611999999987047,-0.01600000000039914
14.415000000000003,4.910499999999931,-7.193000000000635,-1.8358999999999988
14.435000000000002,5.547857142857298,-11.706785714286108,-1.765071428571417
14.455000000000004,10.055333333333872,-15.441777777778327,-2.3414444444446003
14.475000000000003,12.067000000000082,-18.14600000000036,-2.7429999999998005
14.495000000000003,11.532999999999214,-19.918999999999894,-1.098999999999699
14.515000000000002,7.661999999999918,-18.58899999999977,-0.13100000000011547
14.535000000000004,7.345666666666827,-16.31824999999986,-1.5055833333334347
14.555000000000003,7.317999999997907,-16.16899999999933,-0.7639999999989333
14.575000000000003,-5.130545454546683,-9.99318181818064,3.0362727272724577
14.595000000000002,-10.222454545453852,-1.9502727272723903,-2.324454545455865
14.615000000000004,-2.0499999999977807,-0.6350000000003182,-12.312000000001397
14.635000000000003,6.9226153846155425,-3.0557692307696933,-16.90969230769201
14.655000000000003,7.132000000000142,-7.309000000001113,-12.828999999998492
14.675000000000002,9.292000000000542,-11.486000000000068,-6.497999999999718
14.695000000000004,17.96700000000193,-10.741699999999549,-6.267900000000803
14.715000000000003,25.606833333333356,-9.262249999999883,-9.502666666666352
14.735000000000003,20.20899999999863,-7.996545454545326,-2.466363636362045
14.755000000000003,8.870999999999087,-6.14399999999969,9.265000000000603
14.775000000000002,0.853099999999392,-2.423799999999539,13.34830000000009
14.795000000000003,3.0139000000008256,2.331900000001099,6.323799999998133
14.815000000000003,6.943300000000417,9.852800000001045,0.3194999999995063
14.835000000000003,8.689000000000105,17.3438000000005,-0.8249999999997377
14.855000000000002,7.086538461538086,22.02484615384675,2.6746923076928217
14.875000000000004,7.300000000002118,28.495000000000765,11.22900000000235
14.895000000000003,13.124142857142283,29.07707142857103,21.241142857143995
14.915000000000003,7.40049999999909,27.483249999999924,26.64137500000041
14.935000000000002,-3.4599999999991584,28.80400000000019,23.21999999999884
14.955000000000004,9.254250000002212,28.05749999999921,13.279249999999314
14.975000000000003,19.258249999999762,19.94949999999838,10.329249999999782
14.995000000000003,13.219699999999168,8.705999999998975,8.004399999999654
15.015000000000002,6.719769230768964,-0.5706153846159385,3.715384615384186
15.035000000000004,5.6000000000004775,-6.865200000000762,-2.6726000000011347
15.055000000000003,8.296666666667024,-9.811000000000423,-7.505111111111671
15.075000000000003,9.511499999999895,-12.447375000000408,-9.623374999999784
15.095000000000002,8.373499999999835,-14.635250000000134,-7.4652499999997595
15.115000000000004,6.851833333333287,-15.51849999999998,-5.251333333333102
15.135000000000003,7.661909090909463,-15.172818181818062,-4.418454545454434
15.155000000000003,10.71569999999999,-14.907200000000032,-2.4208999999993597
15.175000000000002,5.100499999998742,-14.563999999999794,3.593000000000645
15.195000000000004,-6.267333333335694,-11.272416666665741,6.989750000000296
15.215000000000003,-12.82109090908973,-1.99499999999893,-4.368090909093854
15.235000000000003,-2.1138999999978165,1.3504999999997176,-16.342400000000474
15.255000000000003,8.861222222222601,-2.252000000000519,-16.44822222222161
15.275000000000004,10.565142857143039,-5.781428571429195,-11.730071428570518
15.295000000000003,10.834000000000708,-9.122749999999925,-3.036624999998441
15.315000000000003,16.422888888889993,-8.028222222221938,1.7828888888884755
15.335000000000003,21.491999999999713,-6.925666666666698,-2.029000000000365
15.355000000000004,15.157454545452477,-7.16627272727277,-4.200818181818438
15.375000000000004,0.9512999999984859,-8.838100000000196,-1.7436999999994327
15.395000000000003,-4.646000000000511,-8.73157142857134,0.4872857142859306
15.415000000000003,-4.319083333332959,-4.7693333333328685,1.4303333333333255
15.435000000000002,4.857769230769922,0.7841538461542639,-0.06915384615397013
15.455000000000004,11.720999999999197,8.62322222222383,0.36555555555641317
15.475000000000003,9.638866943866928,12.763349272349293,2.56958419958421
15.495000000000003,9.555311850311835,12.87393139293141,2.6222245322245414
15.515000000000002,9.471756756756744,12.98451351351353,2.674864864864873
15.535000000000004,9.388201663201645,13.095095634095657,2.727505197505209
15.555000000000003,9.304646569646554,13.205677754677776,2.7801455301455404
15.575000000000003,9.22109147609146,13.316259875259894,2.832785862785872
15.595000000000002,9.13753638253637,13.426841995842011,2.885426195426203
15.615000000000004,9.053981288981271,13.53742411642414,2.9380665280665395
15.635000000000003,8.97042619542618,13.648006237006257,2.990706860706871
15.655000000000003,8.886871101871087,13.758588357588376,3.043347193347202
15.675000000000002,8.803316008315996,13.869170478170494,3.0959875259875336
15.695000000000004,8.719760914760897,13.979752598752622,3.14862785862787
15.715000000000003,8.636205821205806,14.09033471933474,3.201268191268201
15.735000000000003,8.552650727650713,14.200916839916857,3.2539085239085326
15.755000000000003,8.469095634095622,14.311498960498975,3.306548856548864
15.775000000000004,8.385540540540523,14.422081081081103,3.3591891891892
15.795000000000003,8.301985446985432,14.53266320166322,3.4118295218295316
15.815000000000003,8.218430353430339,14.64324532224534,3.464469854469863
15.835000000000003,8.134875259875248,14.753827442827458,3.5171101871101946
15.855000000000004,8.05132016632015,14.864409563409586,3.5697505197505306
15.875000000000004,7.967765072765057,14.974991683991703,3.622390852390862
15.895000000000003,7.884209979209966,15.085573804573821,3.6750311850311936
15.915000000000003,7.800654885654874,15.196155925155939,3.727671517671525
15.935000000000004,7.717099792099775,15.306738045738067,3.780311850311861
15.955000000000004,7.633544698544683,15.417320166320184,3.8329521829521926
15.975000000000003,7.549989604989592,15.527902286902304,3.885592515592524
15.995000000000003,7.4664345114345,15.638484407484421,3.9382328482328557
16.015000000000004,7.382879417879401,15.74906652806655,3.9908731808731917
16.035000000000004,7.299324324324309,15.859648648648667,4.043513513513523
16.055000000000003,7.215769230769218,15.970230769230785,4.096153846153855
16.075000000000003,7.132214137214126,16.080812889812904,4.148794178794186
16.095000000000002,7.048659043659034,16.19139501039502,4.201434511434518
16.115000000000002,6.965103950103943,16.30197713097714,4.254074844074849
16.135,6.881548856548851,16.41255925155926,4.30671517671518
16.155000000000005,6.797993762993745,16.523141372141396,4.359355509355521
16.175000000000004,6.714438669438653,16.63372349272351,4.411995841995853
16.195000000000004,6.630883575883561,16.74430561330563,4.464636174636184
16.215000000000003,6.54732848232847,16.85488773388775,4.517276507276516
16.235000000000003,6.463773388773378,16.965469854469866,4.569916839916846
16.255000000000003,6.380218295218286,17.076051975051985,4.622557172557178
16.275000000000002,6.296663201663195,17.186634095634105,4.675197505197509
16.295,6.213108108108103,17.29721621621622,4.727837837837841
16.315000000000005,6.129553014552997,17.407798336798358,4.780478170478182
16.335000000000004,6.045997920997905,17.518380457380477,4.833118503118514
16.355000000000004,5.962442827442813,17.628962577962596,4.885758835758844
16.375000000000004,5.878887733887721,17.739544698544712,4.938399168399176
16.395000000000003,5.79533264033263,17.85012681912683,4.991039501039507
16.415000000000003,5.7117775467775385,17.96070893970895,5.043679833679839
16.435000000000002,5.488000000000645,-10.622999999998735,-5.156999999999963
16.455000000000002,-6.41040000000121,-6.168799999999473,-4.745999999999831
16.475000000000005,-16.763200000001667,-2.1487999999999796,-5.006800000000815
16.495000000000005,-16.500499999998663,-3.539750000000316,-7.580250000000152
16.515000000000004,-6.042999999998052,-7.922666666668903,-6.443333333332396
16.535000000000004,-1.0192857142835283,-8.577714285712718,-3.1457142857139897
16.555000000000003,11.664454545454781,-9.456909090909644,1.1975454545465674
16.575000000000003,9.60659999999962,-8.757999999999159,6.290600000000537
16.595000000000002,6.197999999999522,-1.6811999999996698,9.06739999999965
16.615000000000002,2.115727272726854,0.24081818181840642,5.10390909090861
16.635000000000005,0.48154545454561026,1.818454545454727,1.7696363636357573
16.655000000000005,1.716666666666748,2.29866666666671,-0.8463333333335671
16.675000000000004,0.8457999999993231,2.225999999999679,-1.1981999999995914
16.695000000000004,-1.0176923076926367,0.40984615384627116,0.6050769230773112
16.715000000000003,-0.39299999999955354,2.343999999999923,2.783333333333752
16.735000000000003,1.580249999999992,3.016999999999889,3.058499999999312
16.755000000000003,0.7271818181816944,1.6554545454543201,-1.7270000000003851
16.775000000000002,-1.312333333334101,-0.5336666666670808,-2.8336666666657484
16.795,-5.059333333333529,-1.3813333333333302,1.5634444444443822
16.815000000000005,-7.477666666665216,-1.8993333333328943,0.03483333333392466
16.835000000000004,-0.8661544117645366,-0.5746323529411219,2.9402867647060402
16.855000000000004,-0.30277205882338365,-0.3931617647058354,3.4654338235295477
16.875000000000004,0.26061029411776926,-0.21169117647054891,3.990580882353055
16.895000000000003,0.8239926470589221,-0.030220588235262302,4.5157279411765625
16.915000000000003,1.3873750000000749,0.1512500000000242,5.04087500000007
16.935000000000002,1.9507573529412279,0.3327205882353107,5.566022058823577
16.955000000000002,2.5141397058823802,0.5141911764705972,6.091169117647085
16.975000000000005,-6.1159999999978965,2.3680000000020214,-0.41299999999637976
16.995000000000005,-2.309999999998046,1.7349999999991048,0.5740000000007567
17.015000000000004,1.5785000000000333,-0.17099999999999851,0.9911666666666773
17.035000000000004,0.9764285714286627,-1.35304761904742,1.2171904761904113
17.055000000000003,0.6069999999964117,0.39600000000125407,0.06849999999753265
17.075000000000003,-2.2980000000004592,-3.146999999999703,-1.601000000000326
17.095000000000002,-3.5677272727266467,-0.015999999999976748,-5.576909090909179
17.115000000000002,1.6270000000000415,0.4410000000000328,-5.822333333333282
17.135000000000005,2.3309999999999054,0.9950000000003575,-4.954999999999758
17.155000000000005,1.7973636363635157,3.007727272727728,-3.592272727272419
17.175000000000004,0.6889999999999077,1.4629999999999195,-1.7000000000000195
17.195000000000004,0.16964516129022134,1.0088064516128148,-1.8096774193548602
17.215000000000003,0.24666666666743725,0.6228333333336452,0.36383333333414736
17.235000000000003,1.5153333333337233,1.5848333333336038,3.6275000000012385
17.255000000000003,-1.639545454545631,1.604727272727426,1.201636363636261
17.275000000000002,-2.240454545454373,2.839272727272738,-0.4601818181820146
17.295000000000005,-1.251846153846168,1.5865384615383313,-2.845461538461826
17.315000000000005,-1.131333333333219,0.984555555555345,-3.7274444444445782
17.335000000000004,-1.3669000000000457,0.19449999999978984,-2.8019999999997736
17.355000000000004,-1.4209999999999228,-0.3379999999999211,-1.9559999999998554
17.375000000000004,-0.8892307692306217,0.09284615384620425,-1.2955384615383851
17.395000000000003,0.0870769230770721,0.22553846153844548,-0.9554615384615127
17.415000000000003,0.48888888888889387,0.11999999999998105,-0.8987777777777807
17.435000000000002,-0.29061538461544156,0.24076923076924117,-0.7386153846153746
17.455000000000002,-0.8040000000000056,0.2470000000000217,-0.82200000000012
17.475000000000005,-0.8533636363636139,0.37554545454542815,-1.4689090909091487
17.495000000000005,-0.6986666666666154,0.28016666666664736,-1.517166666666633
17.515000000000004,-0.3940000000000174,0.05999999999996644,-1.0970000000000275
17.535000000000004,-0.3345999999999427,-0.026,-1.1610999999999774
17.555000000000003,-0.1730000000000199,0.030000000000032685,-0.9449999999999446
17.575000000000003,-0.16966666666663066,0.12824999999999148,-0.6374166666666407
17.595000000000002,0.4089999999999822,0.10300000000009135,0.19299999999993833
17.615000000000002,0.45566666666671274,0.12233333333319885,-0.3373333333334467
17.635000000000005,0.28833333333308864,0.16311111111126322,-0.23788888888876522
17.655000000000005,-0.5580000000001942,0.29599999999999327,-0.06400000000000908
17.675000000000004,-1.3491818181818191,0.4414545454545961,0.04900000000000969
17.695000000000004,-1.329999999999929,0.8170000000000177,-0.22200000000012157
17.715000000000003,-0.9345833333332869,0.7859166666666503,-0.8453333333334012
17.735000000000003,-0.8130800000000014,0.6277199999999924,-1.33483999999999
17.755000000000003,-0.823880000000001,0.5649199999999946,-1.253239999999993
17.775000000000002,-0.8346800000000005,0.5021199999999968,-1.171639999999996
17.795000000000005,-0.7438999999999796,0.1902999999999816,0.014900000000094005
17.815000000000005,-0.7200909090909724,0.1752727272728406,0.24409090909090111
17.835000000000004,-0.6757999999999483,0.48379999999994827,0.3319000000000134
17.855000000000004,-0.4569999999999891,0.2549999999999906,0.2540000000000143
17.875000000000004,-0.3955714285714161,0.2021428571428464,0.3347142857143021
17.895000000000003,-0.3084999999999993,0.2075000000000129,0.4354999999999883
17.915000000000003,-0.16683333333333375,0.2574166666666313,0.18158333333328575
17.935000000000002,0.17580000000010176,-0.16980000000002501,-0.5290000000001136
17.955000000000002,0.5927777777777554,-0.13966666666665326,-1.2213333333333658
17.975000000000005,0.37819999999993725,-0.13620000000000682,-0.8439999999998464
17.995000000000005,0.2900000000000025,-0.23319999999997862,1.154600000000416
18.015000000000004,0.3718000000000164,-0.1849999999999975,1.907999999999965
18.035000000000004,0.20539999999995423,-0.15960000000000313,1.192799999999836
18.055000000000003,-0.18533333333341345,-0.2526666666666943,0.07799999999979274
18.075000000000003,-0.44920000000002613,-0.308,-0.5832000000000546
18.095000000000002,-0.5457999999999966,-0.3388000000000108,-0.8624000000000196
18.115000000000002,-0.22459999999996674,-0.4502000000000102,-1.0540000000000143
18.135000000000005,0.18160000000006266,-0.41119999999995377,-0.9043999999998752
18.155000000000005,0.3596000000000453,-0.302199999999996,-0.2835999999998488
18.175000000000004,0.5630000000000671,-0.39980000000002136,0.20820000000008307
18.195000000000004,0.6929999999999957,-0.3149999999999716,0.07699999999991616
18.215000000000003,0.5909999999999773,-0.17372727272725275,-0.5645454545455301
18.235000000000003,0.4800909090909028,-0.05263636363635412,-0.7986363636363754
18.255000000000003,0.4684000000000068,0.0684000000000125,-1.0780000000000454
18.275000000000002,0.4571999999999878,0.002999999999977257,-1.179399999999987
18.295000000000005,-0.011200000000117866,0.02540000000001442,-0.6663999999998229
18.315000000000005,-0.2863636363636633,0.05,0.16854545454565975
18.335000000000004,-0.17233333333326778,-0.08200000000006515,0.5546666666666458
18.355000000000004,0.6620000000001993,-0.4559000000000496,0.14209999999994255
18.375000000000004,1.1507499999999804,-0.08712499999991802,0.5291250000000517
18.395000000000003,0.8751999999999409,-0.18720000000001194,0.940400000000058
18.415000000000003,0.5818181818181674,-0.14318181818180936,1.0400909090909027
18.435000000000002,0.31419999999993375,-0.1487999999999909,0.9421999999999751
18.455000000000005,0.061285714285579204,-0.20314285714268682,0.7242857142852777
18.475000000000005,0.20580000000013332,0.2978000000000612,-0.3938000000001582
18.495000000000005,0.18836363636356382,0.3172727272727254,-0.7980909090909603
18.515000000000004,-0.09572727272729563,0.1372727272726372,-0.6264545454543939
