timestamp,acc_x,acc_y,acc_z
0.017,-0.827,0.137,0.576
0.037000000000000005,-0.7737999999999998,-0.34710000000000013,1.4594000000000003
0.05700000000000001,0.25723076923076965,-0.5873076923076923,2.0732307692307694
0.07700000000000001,1.7770909090909095,-0.3849999999999999,2.649909090909091
0.09700000000000002,2.374,-0.13439999999999985,2.5794
0.11700000000000002,2.1255999999999995,-0.12000000000000004,2.4518
0.137,0.4093,-0.35769999999999996,1.1885999999999999
0.15700000000000003,0.13850000000000057,-0.3019999999999995,0.7032499999999994
0.17700000000000005,2.0593000000000092,-0.005899999999999461,-0.3152000000000048
0.19700000000000006,4.059833333333325,-0.39505555555555727,-2.3817777777777813
0.21700000000000003,1.3022000000000036,0.09520000000000162,-0.6019999999999966
0.23700000000000004,0.7009999999999912,0.14799999999999947,0.9374999999999992
0.25700000000000006,-0.7735000000000004,-0.04569999999999902,-0.07279999999999823
0.2770000000000001,0.15080000000000376,0.5052000000000013,0.44880000000000114
0.29700000000000004,1.732700000000003,-0.05000000000000218,0.9311000000000011
0.31700000000000006,0.31109999999999716,0.4570999999999971,0.8605999999999937
0.3370000000000001,-0.7815000000000042,-1.4835000000000027,0.7594000000000045
0.3570000000000001,-1.4211874999999972,-1.0454999999999974,1.4638124999999969
0.3770000000000001,-1.219999999999999,-1.3276666666666708,0.6093333333333338
0.3970000000000001,-0.9721999999999974,-1.359599999999998,0.5181999999999993
0.4170000000000001,-0.1991999999999957,-1.0673000000000001,0.2730999999999987
0.4370000000000001,0.04444444444444527,-1.0663888888888888,-0.05005555555555741
0.4570000000000001,-0.15450000000000008,-0.5999999999999992,-1.1000000000000016
0.4770000000000001,-1.1549000000000045,0.05960000000000032,-2.5119000000000073
0.4970000000000001,-1.0579230769230796,-0.2500000000000002,-3.4151538461538453
0.5170000000000001,-1.8704444444444475,-0.22833333333333172,-3.014666666666665
0.5370000000000001,-1.1649999999999805,-0.5599999999999078,-2.9109999999999565
0.5570000000000002,3.3340909090909445,-0.5625454545454889,-0.6621818181818007
0.5770000000000001,-2.5702857142857862,-0.6534285714285424,0.08642857142855187
0.5970000000000001,-0.7839999999999723,1.125999999999991,-0.630000000000002
0.6170000000000001,-0.740090909090916,0.6675454545454598,0.9968181818181956
0.6370000000000001,0.7661000000000164,-0.08429999999999821,1.290900000000001
0.6570000000000001,0.5017999999999898,0.3787999999999987,0.44599999999999074
0.6770000000000002,0.10420000000000104,1.4484000000000128,-0.29039999999999766
0.6970000000000002,0.596000000000015,2.6267142857142747,0.04085714285714383
0.7170000000000002,0.2455454545454485,2.3723636363636436,0.5587272727272787
0.7370000000000002,1.9280909090909153,1.1635454545454436,0.9190909090909112
0.7570000000000001,0.8101999999999928,0.3463999999999957,0.8925999999999987
0.7770000000000001,0.23999999999999888,0.379000000000003,0.4511999999999967
0.7970000000000002,0.04399999999999922,0.4447999999999994,-0.03500000000000093
0.8170000000000002,0.011272727272727639,0.3081818181818169,0.33772727272727715
0.8370000000000002,0.04979999999999657,0.30360000000000026,0.7212000000000003
0.8570000000000002,-0.41366666666667495,0.07822222222221797,0.005444444444431762
0.8770000000000002,-0.632636363636366,-0.13281818181818264,-1.0579090909091002
0.8970000000000001,-0.917636363636364,-0.041181818181815405,-0.9163636363636327
0.9170000000000001,-0.6438888888888891,0.1804444444444452,-0.22622222222221977
0.9370000000000002,-0.8074000000000028,0.23360000000000325,-0.30560000000000126
0.9570000000000002,-0.6905999999999941,0.22439999999999996,-0.24779999999999835
0.9770000000000002,-0.34999999999999687,0.7086666666666739,-0.37544444444444486
0.9970000000000002,-0.4227142857142852,0.7651428571428539,-0.07685714285713696
1.0170000000000001,-0.3015555555555538,0.7156666666666669,0.27100000000000357
1.0370000000000001,0.015400000000003827,0.6131999999999926,1.0626000000000033
1.0570000000000002,-0.11138461538461492,0.7249230769230796,1.1698461538461562
1.0770000000000002,1.1778000000000155,1.1366000000000025,1.5255999999999987
1.0970000000000002,1.1330000000000005,1.3008888888888879,0.7329999999999862
1.1170000000000002,0.8525999999999965,1.3008000000000002,-0.04600000000000781
1.137,-0.66,0.5182,-1.0704
1.157,1.2523333333333362,1.4481111111111113,-1.6286666666666683
1.177,0.9505555555555546,1.4334444444444439,-1.7015555555555553
1.197,0.581,1.1118000000000001,-1.4758
1.217,0.24033333333333173,0.9613333333333336,-2.0407777777777794
1.237,-2.00655555555556,1.6790000000000007,-1.5594444444444402
1.2570000000000001,-1.663399999999989,0.6973999999999925,-2.2147000000000103
1.2770000000000001,2.01111111111111,0.3015555555555676,-3.1033333333333033
1.2970000000000002,0.6621999999999819,-0.06020000000001535,-2.064199999999998
1.3170000000000002,0.49000000000000754,-1.4395000000000053,-2.110000000000001
1.3370000000000002,2.4186666666666774,-2.4190000000000076,-0.8923333333333106
1.3570000000000002,2.8343333333333303,-3.060000000000003,0.898333333333347
1.3770000000000002,1.993454545454533,-2.879545454545449,1.6243636363636365
1.3970000000000002,1.3369999999999975,-3.116285714285716,0.9069999999999967
1.4170000000000003,1.1119999999999974,-3.2520000000000016,0.6219999999999968
1.4370000000000003,0.8869999999999976,-3.3877142857142872,0.33699999999999686
1.4570000000000003,-0.41800000000000076,-4.106933333333335,-4.6752000000000145
1.477,-1.0420000000000056,-5.231000000000018,-4.750333333333317
1.497,-1.3321818181818181,-6.775272727272733,-2.656545454545446
1.5170000000000001,-0.5711999999999886,-7.816400000000008,-0.19739999999997537
1.5370000000000001,0.2990000000000035,-8.149500000000002,0.7860000000000054
1.5570000000000002,-0.219400000000007,-7.979199999999994,-0.3702000000000235
1.5770000000000002,0.6220000000000115,-7.660777777777777,-1.7808888888888932
1.5970000000000002,2.402375000000012,-7.50475,-1.0548749999999916
1.6170000000000002,3.3660000000000077,-7.205999999999993,1.1700000000000303
1.6370000000000002,4.271700000000018,-6.165699999999978,4.5445000000000695
1.6570000000000003,5.2013333333333405,-4.5611111111110905,9.088000000000056
1.6770000000000003,4.950799999999996,-2.7531999999999783,10.694999999999999
1.6970000000000003,5.326000000000004,-0.5386666666666459,8.563333333333302
1.7170000000000003,5.3911999999999995,0.9328000000000116,5.973399999999981
1.7370000000000003,5.133307692307687,1.6595384615384687,5.106230769230764
1.7570000000000003,3.8949999999999756,2.475181818181829,6.637454545454575
1.7770000000000001,3.067499999999997,3.2510000000000048,8.32350000000001
1.7970000000000002,2.622222222222223,4.8707777777777945,11.32177777777781
1.8170000000000002,3.67063636363637,6.3070909090909195,13.366272727272735
1.8370000000000002,4.65925000000001,7.647000000000016,13.480499999999996
1.8570000000000002,4.109499999999996,9.08875000000001,12.467833333333324
1.8770000000000002,3.039999999999985,12.39250000000004,8.509999999999948
1.8970000000000002,-0.057153846153881194,17.169846153846194,2.6010769230768784
1.9170000000000003,-1.650478260869585,18.984869565217412,1.5331304347826018
1.9370000000000003,-0.6456666666665403,18.777499999999915,6.238166666666794
1.9570000000000003,3.675090909090941,15.264999999999937,8.544909090909046
1.9770000000000003,4.6863333333333115,7.021166666666561,1.7145833333332623
1.9970000000000003,5.1746000000000505,-1.3667000000001204,1.3695000000000443
2.0170000000000003,11.41880000000033,-7.951600000000301,5.85840000000021
2.0370000000000004,17.790900000000054,-15.68200000000012,10.250300000000058
2.0570000000000004,12.478499999999794,-15.92369999999998,9.084599999999933
2.0770000000000004,-0.7409999999999993,-13.393999999999815,5.585999999999904
2.0970000000000004,7.739333333333908,-10.289333333333461,-0.05666666666687403
2.1170000000000004,19.945300000000188,-13.458500000000061,-1.6333000000000002
2.1370000000000005,12.101299999999583,-18.453500000000112,-6.54150000000013
2.1570000000000005,-4.255100000000445,-20.22330000000004,-7.895299999999979
2.1770000000000005,-8.12474999999993,-21.6027500000001,-1.2093749999996817
2.1970000000000005,-0.7002999999998192,-22.037699999999955,0.05840000000000459
2.2170000000000005,2.747600000000071,-20.731999999999964,-4.545700000000157
2.2370000000000005,1.5105999999999198,-18.48389999999994,-10.246000000000151
2.257,-4.5411000000000294,-17.071399999999993,-14.124100000000011
2.277,-6.149899999999993,-16.277099999999997,-12.441499999999973
2.297,-0.5305555555554693,-14.021333333333287,-5.029333333333225
2.317,12.208600000000132,-7.900399999999937,2.554600000000038
2.337,23.69977777777787,-0.13066666666658122,0.6334444444444043
2.357,26.667333333333332,7.387000000000132,1.4830000000000585
2.3770000000000002,30.505111111111155,17.35011111111116,9.787111111111159
2.3970000000000002,41.10544444444454,22.081888888888923,17.904888888888973
2.4170000000000003,24.930999999999585,21.835799999999985,20.48460000000002
2.4370000000000003,3.955181818181741,23.078272727272736,20.62263636363634
2.4570000000000003,6.919600000000004,21.864999999999984,17.62039999999996
2.4770000000000003,4.3293846153845665,19.046615384615343,12.872230769230681
2.4970000000000003,-0.6700000000001021,14.472249999999931,6.958999999999941
2.5170000000000003,-8.648000000000163,8.933599999999863,5.3257999999999805
2.5370000000000004,-9.925499999999984,5.315749999999958,5.1389999999999985
2.5570000000000004,-2.783999999999823,2.1113333333332682,3.318999999999976
2.5770000000000004,5.221600000000116,-1.225600000000062,0.4443999999999355
2.5970000000000004,11.23500000000008,-5.94766666666675,-1.502333333333339
2.6170000000000004,14.72012500000008,-11.34500000000016,0.17600000000007665
2.6370000000000005,16.294428571428643,-15.23471428571444,1.002000000000005
2.6570000000000005,16.523399999999967,-17.518400000000046,0.6198000000000153
2.6770000000000005,11.622272727272609,-17.132363636363614,2.3981818181818526
2.6970000000000005,2.215111111110874,-14.138444444444332,6.471666666666788
2.7170000000000005,4.442363636363833,-11.367090909090852,1.1339090909088227
2.7370000000000005,8.670000000000025,-10.787333333333283,-9.688000000000136
2.7570000000000006,3.640199999999751,-9.57719999999998,-10.36539999999991
2.7770000000000006,-2.3557777777778437,-11.374222222222317,-5.2147777777776
2.7970000000000006,3.8160000000002707,-16.882909090909255,-2.4662727272726856
2.8170000000000006,10.876500000000217,-19.21660000000004,-0.36409999999997167
2.8370000000000006,16.610900000000086,-17.697099999999924,-2.824500000000105
2.8570000000000007,9.094999999999713,-15.015999999999972,-4.4489999999999466
2.8770000000000007,-3.7171818181822527,-13.629999999999947,-1.4489090909089621
2.8970000000000007,-9.043333333333353,-11.614555555555468,1.3831111111111656
2.9170000000000003,-1.0358888888887963,-7.189555555555516,-0.18555555555557623
2.9370000000000003,9.665333333333402,-1.0685555555555042,-2.123444444444452
2.9570000000000003,10.96622222222222,4.837000000000051,-0.20255555555553317
2.9770000000000003,15.281000000000047,11.08170000000004,0.5331999999999982
2.9970000000000003,22.400200000000094,19.124200000000133,3.561600000000064
3.0170000000000003,32.81080000000016,28.113000000000092,9.511600000000083
3.0370000000000004,35.82059999999992,28.765799999999956,13.614400000000071
3.0570000000000004,22.583769230769,26.572692307692275,16.320846153846148
3.0770000000000004,14.927099999999914,23.773599999999945,9.887299999999826
3.0970000000000004,11.534999999999968,19.272499999999923,2.134249999999905
3.1170000000000004,6.836999999999922,12.595181818181741,-1.620000000000013
3.1370000000000005,-4.472000000000161,4.873999999999853,0.32000000000008816
3.1570000000000005,-9.141285714285768,-0.5494285714286788,3.2478571428571907
3.1770000000000005,-7.078499999999854,-5.503625000000131,4.336750000000008
3.1970000000000005,-1.42144444444427,-7.986777777777842,3.5728888888888535
3.2170000000000005,3.2044545454546594,-10.353363636363703,1.7109090909090372
3.2370000000000005,5.84140000000005,-11.829900000000027,0.6032999999999848
3.2570000000000006,7.751555555555615,-12.667666666666689,-0.006333333333359836
3.2770000000000006,10.40500000000004,-13.834000000000024,-1.135000000000025
3.2970000000000006,11.492200000000006,-14.395299999999997,-2.0324000000000177
3.3170000000000006,5.612999999999814,-13.22299999999993,0.301000000000068
3.3370000000000006,-0.7484545454546674,-10.931363636363598,1.5347272727272558
3.3570000000000007,-3.15100000000003,-8.520555555555438,-3.2101111111113525
3.3770000000000007,-0.39539999999991915,-7.379099999999965,-9.802100000000152
3.3970000000000007,0.054699999999986565,-6.4903000000000635,-9.880599999999937
3.4170000000000007,5.369600000000197,-11.478600000000158,-7.385799999999898
3.4370000000000007,10.879727272727397,-15.988818181818266,-3.6751818181817173
3.4570000000000007,13.703363636363685,-14.124363636363514,2.305454545454759
3.4770000000000008,15.432111111111041,-11.00411111111096,2.6788888888888462
3.4970000000000008,7.719555555555219,-9.422666666666654,0.1367777777777146
3.517000000000001,-4.811545454545958,-9.234818181818158,-0.5049090909090896
3.5370000000000004,-12.268363636363686,-7.789090909090865,-0.3392727272727356
3.5570000000000004,-5.663199999999785,-4.983899999999939,-3.1179000000000743
3.5770000000000004,2.501181818181909,-0.9760909090908336,-3.684545454545412
3.5970000000000004,6.638181818181895,4.840727272727383,1.414090909090992
3.6170000000000004,14.947400000000224,11.889100000000163,2.523199999999972
3.6370000000000005,18.98850000000004,19.16825000000013,3.244000000000028
3.6570000000000005,24.338000000000164,25.443000000000083,7.130545454545583
3.6770000000000005,24.345799999999834,24.940399999999986,11.193000000000122
3.6970000000000005,14.312599999999739,25.477800000000002,14.289200000000024
3.7170000000000005,12.605222222222267,23.694999999999894,10.052777777777553
3.7370000000000005,15.339909090909108,19.915090909090843,2.5583636363635036
3.7570000000000006,6.437454545454247,14.614181818181663,-1.8532727272727665
3.7770000000000006,-4.934000000000146,7.135999999999845,2.255000000000132
3.7970000000000006,-9.248999999999942,0.838999999999928,8.149000000000065
3.8170000000000006,-4.458999999999802,-2.0690000000000595,9.005999999999894
3.8370000000000006,3.1110000000002347,-4.598076923077013,4.238153846153667
3.8570000000000007,7.573090909090975,-8.380181818181946,-0.9800909090910365
3.8770000000000007,7.776000000000006,-11.871000000000063,-3.1269999999999962
3.8970000000000007,8.338000000000022,-13.64200000000009,-2.7419999999999782
3.9170000000000007,8.264999999999953,-15.62400000000004,-2.749000000000038
3.9370000000000007,7.5239999999999645,-16.13299999999997,-2.8349999999999267
3.9570000000000007,5.267999999999671,-15.148999999999894,-0.2569999999997645
3.9770000000000008,-1.7180909090910956,-12.726272727272658,3.6540909090909803
3.9970000000000008,-5.267999999999641,-8.930000000000014,0.037999999999603774
4.017000000000001,1.694500000000425,-8.902999999999977,-7.28891666666709
4.037000000000001,4.234200000000057,-7.3963999999999634,-9.324199999999998
4.057000000000001,6.040000000000108,-8.828800000000133,-6.67179999999982
4.077000000000001,7.651600000000135,-12.119000000000158,-3.2489999999998105
4.097000000000001,11.001000000000008,-12.01699999999999,1.056000000000002
4.117000000000001,11.182854304635766,-11.827596026490061,1.1011655629139083
4.137000000000001,11.364708609271531,-11.638192052980123,1.1463311258278168
4.157000000000001,11.54656291390729,-11.448788079470193,1.191496688741723
4.177000000000001,11.728417218543056,-11.259384105960255,1.2366622516556316
4.197000000000001,11.910271523178814,-11.069980132450324,1.2818278145695379
4.217000000000001,12.09212582781458,-10.880576158940386,1.3269933774834464
4.237000000000001,12.273980132450339,-10.691172185430457,1.3721589403973526
4.2570000000000014,3.4129999999925906,-5.952999999998817,-1.2849999999989181
4.277000000000001,4.466000000000041,17.92500000000041,3.954000000000204
4.2970000000000015,8.193000000000625,25.819800000000175,6.959400000000012
4.317000000000001,16.101916666666614,26.766333333333375,6.724416666666655
4.3370000000000015,12.53154545454532,27.885181818181923,7.596090909090932
4.357000000000001,15.629000000000454,28.382999999999768,5.3189999999996775
4.377000000000002,21.438769230769342,23.38607692307653,-0.30584615384648095
4.397000000000001,13.050999999999688,15.919999999999675,-2.3850000000000167
4.417000000000002,6.66799999999977,7.5939999999993395,-2.6850000000000396
4.437000000000001,4.081999999999862,-0.6002000000004966,-2.5407999999999453
4.457000000000002,1.4837272727272737,-8.917181818182105,0.5764545454546985
4.477000000000001,2.1393333333334104,-12.754833333333524,2.363500000000071
4.497000000000001,4.143400000000106,-15.365200000000115,2.0253999999999315
4.517000000000001,5.901090909090989,-16.85654545454552,-0.28418181818194255
4.537000000000001,6.153499999999975,-17.746250000000025,-1.7477500000000363
4.557000000000001,5.375115272088941,-17.78606904622586,-2.1693978935049736
4.577000000000001,5.369345816266822,-17.782207138677588,-2.170193680514921
4.597000000000001,5.363576360444704,-17.778345231129315,-2.1709894675248687
4.617000000000001,5.357806904622586,-17.77448332358104,-2.1717852545348157
4.637000000000001,5.352037448800468,-17.770621416032768,-2.1725810415447633
4.657000000000001,5.346267992978349,-17.766759508484494,-2.1733768285547104
4.677000000000001,5.340498537156232,-17.76289760093622,-2.174172615564658
4.697000000000001,5.334729081334113,-17.759035693387947,-2.174968402574605
4.717000000000001,5.328959625511995,-17.755173785839673,-2.1757641895845525
4.737000000000001,5.323190169689877,-17.7513118782914,-2.1765599765944996
4.7570000000000014,5.317420713867759,-17.747449970743123,-2.177355763604447
4.777000000000001,5.31165125804564,-17.74358806319485,-2.1781515506143947
4.7970000000000015,5.305881802223522,-17.739726155646576,-2.178947337624342
4.817000000000001,5.300112346401404,-17.735864248098302,-2.1797431246342893
4.8370000000000015,5.294342890579285,-17.73200234055003,-2.1805389116442364
4.857000000000001,5.288573434757168,-17.728140433001755,-2.181334698654184
4.877000000000002,5.282803978935049,-17.72427852545348,-2.182130485664131
4.897000000000001,5.277034523112931,-17.720416617905208,-2.1829262726740786
4.917000000000002,5.271265067290813,-17.716554710356935,-2.1837220596840257
4.937000000000001,5.265495611468695,-17.71269280280866,-2.184517846693973
4.957000000000002,5.259726155646576,-17.708830895260384,-2.1853136337039207
4.977000000000001,5.2539566998244585,-17.70496898771211,-2.186109420713868
4.997000000000002,5.24818724400234,-17.701107080163837,-2.1869052077238154
5.017000000000001,5.242417788180222,-17.697245172615563,-2.1877009947337624
5.037000000000002,5.2366483323581035,-17.69338326506729,-2.18849678174371
5.057000000000001,5.230878876535986,-17.689521357519016,-2.189292568753657
5.077000000000002,5.225109420713867,-17.685659449970743,-2.1900883557636046
5.097000000000001,5.219339964891749,-17.68179754242247,-2.1908841427735517
5.117000000000002,5.213570509069631,-17.677935634874196,-2.1916799297834992
5.137000000000001,5.207801053247513,-17.674073727325922,-2.1924757167934468
5.157000000000001,5.202031597425394,-17.67021181977765,-2.193271503803394
5.177000000000001,5.196262141603277,-17.66634991222937,-2.1940672908133414
5.197000000000001,5.190492685781158,-17.662488004681098,-2.1948630778232885
5.217000000000001,5.18472322995904,-17.658626097132824,-2.195658864833236
5.237000000000001,5.178953774136922,-17.65476418958455,-2.196454651843183
5.2570000000000014,5.173184318314804,-17.650902282036277,-2.1972504388531306
5.277000000000001,5.167414862492685,-17.647040374488004,-2.1980462258630777
5.2970000000000015,5.1616454066705675,-17.64317846693973,-2.1988420128730253
5.317000000000001,5.155875950848449,-17.639316559391457,-2.199637799882973
5.3370000000000015,5.150106495026331,-17.635454651843183,-2.20043358689292
5.357000000000001,5.1443370392042125,-17.63159274429491,-2.2012293739028674
5.377000000000002,5.138567583382094,-17.627730836746636,-2.2020251609128145
5.397000000000001,5.132798127559976,-17.62386892919836,-2.202820947922762
5.417000000000002,5.1270286717378575,-17.620007021650085,-2.203616734932709
5.437000000000001,5.12125921591574,-17.616145114101812,-2.2044125219426567
5.457000000000002,5.115489760093621,-17.61228320655354,-2.205208308952604
5.477000000000001,5.109720304271503,-17.608421299005265,-2.2060040959625513
5.497000000000002,5.103950848449385,-17.60455939145699,-2.206799882972499
5.517000000000001,5.098181392627267,-17.600697483908718,-2.207595669982446
5.537000000000002,5.092411936805148,-17.596835576360444,-2.2083914569923935
5.557000000000001,5.086642480983031,-17.59297366881217,-2.2091872440023406
5.577000000000002,5.080873025160912,-17.589111761263897,-2.209983031012288
5.597000000000001,5.075103569338794,-17.585249853715624,-2.210778818022235
5.617000000000002,5.069334113516676,-17.581387946167347,-2.2115746050321827
5.637000000000001,5.063564657694558,-17.577526038619073,-2.21237039204213
5.657000000000002,5.057795201872439,-17.5736641310708,-2.2131661790520774
5.677000000000001,5.0520257460503215,-17.569802223522526,-2.213961966062025
5.697000000000002,5.046256290228203,-17.565940315974252,-2.214757753071972
5.717000000000001,5.040486834406085,-17.56207840842598,-2.2155535400819195
5.737000000000002,5.0347173785839665,-17.558216500877705,-2.2163493270918666
5.7570000000000014,5.028947922761849,-17.554354593329432,-2.217145114101814
5.777000000000002,5.02317846693973,-17.55049268578116,-2.2179409011117612
5.7970000000000015,5.017409011117612,-17.546630778232885,-2.2187366881217088
5.817000000000001,5.011639555295494,-17.54276887068461,-2.219532475131656
5.8370000000000015,5.005870099473376,-17.538906963136334,-2.2203282621416034
5.857000000000001,5.000100643651257,-17.53504505558806,-2.221124049151551
5.877000000000002,4.99433118782914,-17.531183148039787,-2.221919836161498
5.897000000000001,4.988561732007021,-17.527321240491514,-2.2227156231714456
5.917000000000002,4.982792276184902,-17.52345933294324,-2.2235114101813926
5.937000000000001,4.977022820362785,-17.519597425394966,-2.22430719719134
5.957000000000002,4.971253364540667,-17.515735517846693,-2.2251029842012873
5.977000000000001,4.965483908718548,-17.51187361029842,-2.225898771211235
5.997000000000002,4.95971445289643,-17.508011702750146,-2.2266945582211823
6.017000000000001,4.953944997074312,-17.504149795201872,-2.2274903452311294
6.037000000000002,4.948175541252193,-17.500287887653595,-2.228286132241077
6.057000000000001,4.9424060854300755,-17.49642598010532,-2.229081919251024
6.077000000000002,4.936636629607957,-17.492564072557048,-2.2298777062609716
6.097000000000001,4.930867173785839,-17.488702165008775,-2.2306734932709187
6.117000000000002,4.9250977179637205,-17.4848402574605,-2.231469280280866
6.137000000000001,4.919328262141603,-17.480978349912228,-2.2322650672908133
6.157000000000002,4.913558806319484,-17.477116442363954,-2.233060854300761
6.177000000000001,4.907789350497366,-17.47325453481568,-2.233856641310708
6.197000000000002,4.902019894675248,-17.469392627267407,-2.2346524283206555
6.217000000000001,4.89625043885313,-17.465530719719133,-2.235448215330603
6.237000000000002,4.890480983031011,-17.46166881217086,-2.23624400234055
6.2570000000000014,4.880624999999995,-17.43293749999997,-2.237
6.277000000000002,13.728400000001269,5.969000000001799,20.4906000000014
6.2970000000000015,25.90125000000013,21.788499999999996,29.906750000000127
6.317000000000002,23.158166666666258,21.118333333333354,30.621833333333186
6.3370000000000015,21.856000000000886,22.212999999999997,26.45999999999922
6.357000000000002,28.859499999999496,19.272499999999503,17.187499999999496
6.377000000000002,15.996666666665561,11.791833333332901,10.68599999999963
6.397000000000002,4.851818181817162,6.7400909090903465,6.1523636363631065
6.417000000000002,1.1802727272726048,2.57636363636339,1.5344545454542482
6.437000000000001,1.334000000000043,-1.6523333333336223,-2.508333333333373
6.457000000000002,1.3039999999999448,-6.2780000000002865,-1.7956363636362451
6.477000000000001,1.5745384615385358,-9.659153846154004,-0.954000000000053
6.497000000000002,2.760000000000204,-12.587000000000232,-1.81500000000001
6.517000000000001,4.656692307692425,-14.62800000000012,-1.804615384615378
6.537000000000002,6.5010000000001,-16.68000000000015,-1.5379999999999328
6.557000000000001,7.178500000000014,-17.98583333333339,-0.8031666666666246
6.577000000000002,8.57050000000013,-18.39283333333336,-1.3578333333334307
6.597000000000001,0.5445714285704835,-18.00342857142852,-0.0755714285713803
6.617000000000002,-14.389000000000827,-18.225999999999562,0.31199999999965633
6.637000000000001,-12.797333333331753,-13.328500000000096,-6.258666666667172
6.657000000000002,7.3568333333351585,-12.898499999999792,-11.04366666666693
6.677000000000001,13.404999999999779,-13.606166666666809,-12.435000000000047
6.697000000000002,0.3529999999987119,-18.30680000000057,-7.140399999999154
6.717000000000001,8.081166666668064,-23.13149999999979,3.0073333333337198
6.737000000000002,28.341166666668748,-17.599833333332544,7.400666666667009
6.7570000000000014,39.95809090909092,-4.828363636362851,5.516181818181515
6.777000000000002,18.830076923074877,0.3336923076925358,0.47546153846124084
6.7970000000000015,2.272600000000314,1.074100000000046,-1.5871000000002276
6.817000000000002,7.0590769230773756,2.021461538461649,-4.198769230769404
6.8370000000000015,5.873545454545255,4.152818181818275,-1.0299999999997218
6.857000000000002,2.28041666666646,6.088500000000115,6.954083333333866
6.877000000000002,0.09899999999995597,7.731083333333464,11.922250000000066
6.897000000000002,1.159833333333818,10.899333333333697,11.672249999999648
6.917000000000002,6.164600000000066,15.942200000000426,7.172099999999783
6.937000000000002,6.869300000000403,23.678100000001006,4.825000000000023
6.957000000000002,15.558909090910234,32.57454545454573,5.9298181818183
6.977000000000002,27.666249999999742,33.19674999999976,7.771000000000274
6.997000000000002,21.885363636363735,30.727272727272492,10.739545454545429
7.017000000000002,29.751500000001034,27.198499999999463,7.80424999999949
7.037000000000002,34.715999999999354,18.900499999999244,2.1207499999997186
7.057000000000001,22.57724999999935,8.481499999999537,-0.5757500000000417
7.077000000000002,10.901099999999444,0.107499999999489,-0.016299999999812576
7.097000000000001,9.533454545454665,-4.884272727272944,1.3396363636364086
7.117000000000002,11.83900000000011,-9.787000000000386,2.010999999999964
7.137000000000001,12.199846153846124,-14.603615384615548,1.208307692307644
7.157000000000002,11.900374999999991,-18.499000000000475,-0.36562500000023124
7.177000000000001,11.311999999999939,-21.377333333333425,-1.82400000000006
7.197000000000002,10.486545454545395,-22.299909090909132,-2.56081818181823
7.217000000000001,10.495000000000058,-22.497125000000004,-3.198249999999987
7.237000000000002,11.028999999999906,-22.673636363636337,-3.406272727272822
7.2570000000000014,5.804818181817247,-22.46999999999996,-3.8161818181817493
7.277000000000002,-7.58481818181917,-20.175999999999465,-3.7226363636366755
7.2970000000000015,-13.348999999999446,-15.840999999999745,-8.593000000000838
7.317000000000002,-5.780363636363085,-14.211363636363686,-14.831636363636395
7.3370000000000015,-4.536307692308083,-15.66307692307717,-11.941999999999538
7.357000000000002,-7.264494567677682,-17.40341104572205,-8.699994114984154
7.377000000000002,-7.2611491625169755,-17.419880036215485,-8.68220325939339
7.397000000000002,-7.257803757356269,-17.43634902670892,-8.664412403802624
7.417000000000002,-7.254458352195563,-17.452818017202357,-8.64662154821186
7.437000000000002,-7.251112947034857,-17.469287007695794,-8.628830692621094
7.457000000000002,-7.2477675418741505,-17.485755998189227,-8.61103983703033
7.477000000000002,-7.244422136713444,-17.502224988682663,-8.593248981439563
7.497000000000002,-7.241076731552739,-17.5186939791761,-8.5754581258488
7.517000000000002,-7.237731326392033,-17.535162969669535,-8.557667270258033
7.537000000000002,-7.234385921231326,-17.551631960162972,-8.539876414667269
7.557000000000002,-7.23104051607062,-17.568100950656408,-8.522085559076503
7.577000000000002,-7.227695110909914,-17.584569941149844,-8.504294703485739
7.597000000000002,-7.224349705749208,-17.60103893164328,-8.486503847894973
7.617000000000002,-7.221004300588501,-17.617507922136717,-8.468712992304209
7.637000000000002,-7.217658895427795,-17.633976912630153,-8.450922136713443
7.657000000000002,-7.214313490267089,-17.650445903123586,-8.433131281122678
7.677000000000002,-7.210968085106383,-17.666914893617022,-8.415340425531912
7.697000000000002,-7.207622679945676,-17.68338388411046,-8.397549569941148
7.717000000000001,-7.20427727478497,-17.699852874603895,-8.379758714350384
7.737000000000002,-7.200931869624264,-17.71632186509733,-8.361967858759618
7.7570000000000014,-7.197586464463558,-17.732790855590768,-8.344177003168854
7.777000000000002,-7.194241059302851,-17.749259846084204,-8.326386147578088
7.7970000000000015,-7.190895654142145,-17.76572883657764,-8.308595291987324
7.817000000000002,-7.187550248981439,-17.782197827071077,-8.290804436396558
7.8370000000000015,-7.1842048438207335,-17.79866681756451,-8.273013580805793
7.857000000000002,-7.180859438660026,-17.815135808057946,-8.255222725215027
7.877000000000002,-7.177514033499321,-17.831604798551382,-8.237431869624263
7.897000000000002,-7.174168628338615,-17.84807378904482,-8.219641014033497
7.917000000000002,-7.1708232231779085,-17.864542779538255,-8.201850158442733
7.937000000000002,-7.167477818017202,-17.88101177003169,-8.184059302851967
7.957000000000002,-7.164132412856496,-17.897480760525127,-8.166268447261203
7.977000000000002,-7.16078700769579,-17.913949751018563,-8.148477591670437
7.997000000000002,-7.1574416025350835,-17.930418741512,-8.130686736079673
8.017000000000001,-7.154096197374377,-17.946887732005433,-8.112895880488908
8.037,-7.150750792213671,-17.96335672249887,-8.095105024898142
8.057,-7.147405387052965,-17.979825712992305,-8.077314169307378
8.077000000000002,-7.1440599818922585,-17.99629470348574,-8.059523313716612
8.097000000000001,-7.140714576731552,-18.012763693979178,-8.041732458125848
8.117,-7.137369171570846,-18.029232684472614,-8.023941602535082
8.137,-7.134023766410141,-18.04570167496605,-8.006150746944318
8.157000000000002,-7.1306783612494336,-18.062170665459487,-7.988359891353552
8.177000000000001,-7.127332956088727,-18.078639655952923,-7.970569035762788
8.197000000000001,-7.123987550928022,-18.095108646446356,-7.9527781801720225
8.217,-7.120642145767316,-18.111577636939792,-7.934987324581258
8.237000000000002,-7.117296740606609,-18.12804662743323,-7.9171964689904915
8.257000000000001,-7.113951335445903,-18.144515617926665,-7.899405613399727
8.277000000000001,-7.110605930285197,-18.1609846084201,-7.881614757808962
8.297,-7.107260525124491,-18.177453598913537,-7.863823902218198
8.317000000000002,-7.103915119963784,-18.193922589406974,-7.846033046627431
8.337000000000002,-7.100569714803078,-18.21039157990041,-7.828242191036667
8.357000000000001,-7.097224309642372,-18.226860570393846,-7.810451335445903
8.377,-7.093878904481666,-18.24332956088728,-7.7926604798551375
8.397,-7.090533499320959,-18.259798551380715,-7.7748696242643724
8.417000000000002,-7.087188094160253,-18.27626754187415,-7.7570787686736065
8.437000000000001,-7.083842688999547,-18.292736532367588,-7.739287913082842
8.457,-7.080497283838841,-18.309205522861024,-7.721497057492077
8.477,-7.077151878678135,-18.32567451335446,-7.703706201901312
8.497000000000002,-7.073806473517428,-18.342143503847897,-7.685915346310546
8.517000000000001,-7.070461068356722,-18.358612494341333,-7.668124490719782
8.537,-7.067115663196017,-18.37508148483477,-7.650333635129017
8.557,-7.06377025803531,-18.391550475328202,-7.6325427795382526
8.577000000000002,-7.060424852874604,-18.408019465821642,-7.614751923947486
8.597000000000001,-7.057079447713898,-18.424488456315075,-7.5969610683567215
8.617,-7.053734042553192,-18.44095744680851,-7.579170212765956
8.637,-7.050388637392485,-18.457426437301947,-7.561379357175192
8.657000000000002,-7.047043232231779,-18.473895427795384,-7.543588501584425
8.677000000000001,-7.043697827071073,-18.49036441828882,-7.525797645993661
8.697000000000001,-7.040352421910367,-18.506833408782256,-7.508006790402897
8.717,-7.03700701674966,-18.523302399275693,-7.490215934812132
8.737000000000002,-7.033661611588954,-18.53977138976913,-7.472425079221365
8.757000000000001,-7.030316206428248,-18.556240380262565,-7.454634223630601
8.777000000000001,-7.026970801267542,-18.572709370755998,-7.4368433680398365
8.797,-7.023625396106835,-18.589178361249434,-7.419052512449071
8.817000000000002,-7.020279990946129,-18.60564735174287,-7.401261656858305
8.837000000000002,-7.016934585785423,-18.622116342236307,-7.38347080126754
8.857000000000001,-7.013589180624717,-18.638585332729743,-7.365679945676776
8.877,-7.01024377546401,-18.65505432322318,-7.347889090086011
8.897000000000002,-7.006898370303304,-18.671523313716616,-7.330098234495245
8.917000000000002,-7.003552965142598,-18.687992304210052,-7.31230737890448
8.937000000000001,-7.0002075599818925,-18.70446129470349,-7.294516523313716
8.957,-6.996862154821186,-18.72093028519692,-7.276725667722951
8.977,-6.99351674966048,-18.737399275690358,-7.258934812132186
8.997000000000002,-6.990171344499774,-18.753868266183794,-7.2411439565414195
9.017000000000001,-6.9868259393390675,-18.77033725667723,-7.223353100950655
9.037,-6.983480534178361,-18.786806247170666,-7.205562245359891
9.057,-6.980135129017655,-18.803275237664103,-7.187771389769126
9.077000000000002,-6.976789723856949,-18.81974422815754,-7.169980534178359
9.097000000000001,-6.9734443186962425,-18.836213218650975,-7.152189678587595
9.117,-6.970098913535536,-18.85268220914441,-7.134398822996831
9.137,-6.96675350837483,-18.869151199637844,-7.116607967406066
9.157000000000002,-6.963408103214124,-18.885620190131284,-7.0988171118153
9.177000000000001,-6.9600626980534175,-18.902089180624717,-7.0810262562245345
9.197000000000001,-6.956717292892711,-18.918558171118153,-7.06323540063377
9.217,-6.953371887732005,-18.93502716161159,-7.045444545043005
9.237000000000002,-6.950026482571299,-18.951496152105026,-7.027653689452239
9.257000000000001,-6.9466810774105925,-18.967965142598462,-7.009862833861474
9.277000000000001,-6.943335672249887,-18.9844341330919,-6.99207197827071
9.297,-6.939990267089181,-19.000903123585335,-6.974281122679945
9.317000000000002,-6.936644861928474,-19.01737211407877,-6.956490267089179
9.337000000000002,-6.933299456767768,-19.033841104572208,-6.938699411498414
9.357000000000001,-6.929954051607062,-19.05031009506564,-6.9209085559076495
9.377,-6.926608646446356,-19.066779085559077,-6.903117700316885
9.397000000000002,-6.92326324128565,-19.083248076052513,-6.8853268447261184
9.417000000000002,-6.919917836124943,-19.09971706654595,-6.867535989135353
9.437000000000001,-6.916572430964237,-19.116186057039386,-6.849745133544589
9.457,-6.913227025803531,-19.132655047532822,-6.831954277953825
9.477000000000002,-6.909881620642825,-19.149124038026258,-6.814163422363058
9.497000000000002,-6.906536215482118,-19.165593028519694,-6.796372566772294
9.517000000000001,-6.903190810321412,-19.18206201901313,-6.778581711181529
9.537,-6.899845405160706,-19.198531009506564,-6.7607908555907645
9.557000000000002,-6.8965,-19.215000000000003,-6.742999999999998
9.577000000000002,-6.893154594839293,-19.231468990493436,-6.7252091444092335
9.597000000000001,-6.889809189678587,-19.247937980986872,-6.707418288818468
9.617,-6.886463784517881,-19.26440697148031,-6.689627433227704
9.637,-6.8831183793571755,-19.280875961973745,-6.67183657763694
9.657000000000002,-6.879772974196468,-19.29734495246718,-6.654045722046173
9.677000000000001,-6.876427569035763,-19.313813942960618,-6.636254866455408
9.697000000000001,-6.873082163875057,-19.33028293345405,-6.618464010864644
9.717,-6.8697367587143505,-19.346751923947487,-6.6006731552738795
9.737000000000002,-6.866391353553644,-19.363220914440923,-6.582882299683113
9.757000000000001,-6.863045948392938,-19.37968990493436,-6.565091444092348
9.777000000000001,-6.859700543232232,-19.396158895427796,-6.547300588501583
9.797,-6.8563551380715255,-19.412627885921232,-6.529509732910819
9.817000000000002,-6.853009732910819,-19.42909687641467,-6.511718877320052
9.837000000000002,-6.849664327750113,-19.445565866908105,-6.493928021729287
9.857000000000001,-6.846318922589407,-19.46203485740154,-6.476137166138523
9.877,-6.8429735174287005,-19.478503847894977,-6.458346310547759
9.897000000000002,-6.839628112267994,-19.494972838388414,-6.440555454956993
9.917000000000002,-6.836282707107288,-19.51144182888185,-6.422764599366228
9.937000000000001,-6.832937301946582,-19.527910819375283,-6.404973743775463
9.957,-6.8295918967858755,-19.54437980986872,-6.387182888184698
9.977000000000002,-6.826246491625169,-19.560848800362155,-6.369392032593932
9.997000000000002,-6.822901086464463,-19.57731779085559,-6.351601177003167
10.017000000000001,-6.819555681303758,-19.593786781349028,-6.333810321412402
10.037,-6.816210276143051,-19.610255771842464,-6.316019465821638
10.057000000000002,-6.812864870982344,-19.6267247623359,-6.298228610230872
10.077000000000002,-6.809519465821639,-19.643193752829337,-6.280437754640107
10.097000000000001,-6.806174060660933,-19.65966274332277,-6.262646899049342
10.117,-6.802828655500226,-19.676131733816206,-6.244856043458578
10.137000000000002,-6.79948325033952,-19.692600724309642,-6.227065187867812
10.157000000000002,-6.796137845178814,-19.70906971480308,-6.2092743322770465
10.177000000000001,-6.792792440018108,-19.725538705296515,-6.191483476686281
10.197000000000001,-6.789447034857401,-19.74200769578995,-6.173692621095517
10.217000000000002,-6.786101629696695,-19.758476686283387,-6.155901765504751
10.237000000000002,-6.782756224535989,-19.774945676776824,-6.138110909913987
10.257000000000001,-6.779410819375283,-19.79141466727026,-6.120320054323222
10.277000000000001,-6.776065414214576,-19.807883657763696,-6.102529198732457
10.297,-6.77272000905387,-19.82435264825713,-6.084738343141693
10.317000000000002,-6.769374603893164,-19.84082163875057,-6.066947487550927
10.337000000000002,-6.766029198732458,-19.857290629244,-6.0491566319601615
10.357000000000001,-6.762683793571751,-19.873759619737438,-6.031365776369396
10.377,-6.759338388411046,-19.890228610230874,-6.013574920778632
10.397000000000002,-6.755992983250339,-19.90669760072431,-5.995784065187866
10.417000000000002,-6.752647578089633,-19.923166591217747,-5.977993209597101
10.437000000000001,-6.749302172928927,-19.939635581711183,-5.960202354006336
10.457,-6.745956767768221,-19.956104572204616,-5.942411498415572
10.477000000000002,-6.742611362607515,-19.972573562698056,-5.924620642824806
10.497000000000002,-6.739265957446809,-19.98904255319149,-5.906829787234041
10.517000000000001,-6.735920552286102,-20.005511543684925,-5.889038931643276
10.537,-6.732575147125396,-20.02198053417836,-5.871248076052511
10.557000000000002,-6.72922974196469,-20.038449524671798,-5.853457220461745
10.577000000000002,-6.725884336803984,-20.054918515165234,-5.835666364870981
10.597000000000001,-6.722538931643277,-20.07138750565867,-5.817875509280216
10.617,-6.719193526482571,-20.087856496152106,-5.800084653689451
10.637000000000002,-6.715848121321865,-20.104325486645543,-5.782293798098685
10.657000000000002,-6.712502716161159,-20.12079447713898,-5.764502942507921
10.677000000000001,-6.709157311000452,-20.137263467632415,-5.746712086917156
10.697000000000001,-6.705811905839746,-20.153732458125848,-5.728921231326391
10.717000000000002,-6.70246650067904,-20.170201448619288,-5.711130375735625
10.737000000000002,-6.699121095518334,-20.18667043911272,-5.69333952014486
10.757000000000001,-6.695775690357628,-20.203139429606157,-5.675548664554095
10.777000000000001,-6.692430285196922,-20.219608420099593,-5.65775780896333
10.797000000000002,-6.689084880036215,-20.23607741059303,-5.639966953372564
10.817000000000002,-6.6857394748755095,-20.252546401086466,-5.6221760977818
10.837000000000002,-6.682394069714803,-20.269015391579902,-5.604385242191035
10.857000000000001,-6.679048664554097,-20.285484382073335,-5.58659438660027
10.877000000000002,-6.675703259393391,-20.301953372566775,-5.568803531009504
10.897000000000002,-6.6723578542326845,-20.318422363060208,-5.55101267541874
10.917000000000002,-6.669012449071978,-20.334891353553644,-5.5332218198279755
10.937000000000001,-6.665667043911272,-20.35136034404708,-5.51543096423721
10.957,-6.662321638750566,-20.367829334540517,-5.497640108646445
10.977000000000002,-6.6589762335898595,-20.384298325033953,-5.479849253055679
10.997000000000002,-6.655630828429153,-20.40076731552739,-5.462058397464915
11.017000000000001,-6.652285423268447,-20.417236306020826,-5.44426754187415
11.037,-6.648940018107741,-20.433705296514262,-5.426476686283385
11.057000000000002,-6.6455946129470345,-20.450174287007698,-5.408685830692619
11.077000000000002,-6.642249207786328,-20.466643277501134,-5.390894975101855
11.097000000000001,-6.638903802625622,-20.483112267994567,-5.37310411951109
11.117,-6.635558397464916,-20.499581258488003,-5.3553132639203245
11.137000000000002,-6.6322129923042095,-20.51605024898144,-5.3375224083295585
11.157000000000002,-6.628867587143503,-20.532519239474876,-5.319731552738794
11.177000000000001,-6.625522181982798,-20.548988229968312,-5.301940697148029
11.197000000000001,-6.622176776822092,-20.56545722046175,-5.284149841557264
11.217000000000002,-6.6188313716613845,-20.581926210955185,-5.266358985966498
11.237000000000002,-6.615485966500679,-20.59839520144862,-5.248568130375734
11.257000000000001,-6.612140561339973,-20.614864191942054,-5.23077727478497
11.277000000000001,-6.608795156179267,-20.63133318243549,-5.212986419194205
11.297000000000002,-6.60544975101856,-20.647802172928927,-5.195195563603438
11.317000000000002,-6.602104345857854,-20.664271163422363,-5.1774047080126735
11.337000000000002,-6.598758940697148,-20.6807401539158,-5.159613852421909
11.357000000000001,-6.595413535536442,-20.697209144409236,-5.141822996831144
11.377000000000002,-6.592068130375735,-20.713678134902672,-5.124032141240377
11.397000000000002,-6.588722725215029,-20.73014712539611,-5.106241285649613
11.417000000000002,-6.585377320054323,-20.746616115889545,-5.088450430058849
11.437000000000001,-6.582031914893617,-20.763085106382977,-5.070659574468084
11.457000000000003,-6.57868650973291,-20.779554096876417,-5.052868718877318
11.477000000000002,-6.575341104572204,-20.796023087369853,-5.035077863286553
11.497000000000002,-6.571995699411499,-20.812492077863286,-5.0172870076957885
11.517000000000001,-6.5686502942507925,-20.828961068356723,-4.999496152105023
11.537000000000003,-6.565304889090085,-20.84543005885016,-4.981705296514257
11.557000000000002,-6.56195948392938,-20.861899049343595,-4.963914440923492
11.577000000000002,-6.558614078768674,-20.87836803983703,-4.946123585332728
11.597000000000001,-6.5552686736079675,-20.894837030330468,-4.928332729741964
11.617,-6.551923268447261,-20.9113060208239,-4.910541874151199
11.637000000000002,-6.548577863286555,-20.92777501131734,-4.892751018560432
11.657000000000002,-6.545232458125849,-20.944244001810773,-4.874960162969668
11.677000000000001,-6.5418870529651425,-20.96071299230421,-4.8571693073789035
11.697000000000001,-6.538541647804436,-20.977181982797646,-4.839378451788138
11.717000000000002,-6.53519624264373,-20.993650973291082,-4.8215875961973715
11.737000000000002,-6.531850837483024,-21.01011996378452,-4.803796740606607
11.757000000000001,-6.5285054323223175,-21.026588954277955,-4.786005885015843
11.777000000000001,35.89700000000289,-20.249999999997343,0.8485000000001808
11.797000000000002,13.85154545454538,-17.32909090909132,-4.0713636363637224
11.817000000000002,14.028375000000066,-20.751000000000353,-4.498250000000039
11.837000000000002,14.105090909090892,-22.65609090909099,-4.758909090909101
11.857000000000001,12.817333333333197,-23.61333333333337,-4.749333333333326
11.877000000000002,10.03891666666628,-23.111499999999857,-3.971999999999823
11.897000000000002,7.1224999999995395,-22.192999999999888,-2.571999999999819
11.917000000000002,2.5655454545448624,-21.573636363636307,-1.9959090909090564
11.937000000000001,-8.187090909091438,-19.21118181818162,-1.3761818181818004
11.957000000000003,-15.601499999999614,-13.925124999999477,-2.8460000000007835
11.977000000000002,-3.6803999999985333,-12.41740000000004,-10.994000000000717
11.997000000000002,3.455272727272921,-13.248272727272859,-13.330272727272686
12.017000000000001,6.153818181818235,-18.633636363636604,-10.791454545454403
12.037000000000003,8.999000000000883,-25.455142857143958,-5.722142857141801
12.057000000000002,16.998333333334827,-27.055111111110946,-0.7556666666659277
12.077000000000002,32.87080000000179,-17.91259999999849,6.642000000000488
12.097000000000001,44.61760000000014,-7.4107999999994,4.629999999999462
12.117000000000003,29.011499999995323,-1.056999999999565,0.9185000000003574
12.137000000000002,5.8174444444418985,0.15177777777774654,4.913000000000829
12.157000000000002,1.5698181818188166,0.1324545454547409,8.893090909091132
12.177000000000001,8.913181818182055,2.4634545454546855,8.554454545454439
12.197000000000001,9.870199999999823,5.584400000000349,7.161799999999908
12.217000000000002,5.168499999999997,9.74250000000012,5.2029999999998875
12.237000000000002,6.116333333333345,11.367000000000164,4.231000000000029
12.257000000000001,4.297333333333188,16.147333333334057,7.286666666667116
12.277000000000001,8.889000000000312,25.018818181818496,10.74045454545462
12.297000000000002,22.649000000001955,31.964500000000424,12.420000000000245
12.317000000000002,26.743999999999254,32.19499999999978,15.396000000000386
12.337000000000002,17.148272727272385,30.712454545454456,17.538363636363606
12.357000000000001,22.345230769231215,27.250692307691974,14.303076923076652
12.377000000000002,23.991090909090527,18.02218181818053,10.491090909090648
12.397000000000002,17.609499999999375,7.3114999999991355,8.512499999999822
12.417000000000002,10.959363636363358,-3.447000000000616,5.028909090908823
12.437000000000001,8.979399999999982,-11.495600000000344,0.9687999999998032
12.457000000000003,10.02700000000025,-16.159000000000404,-1.6050000000001816
12.477000000000002,12.542909090909282,-19.728636363636653,-2.8698181818182738
12.497000000000002,12.99899999999992,-22.369200000000227,-3.557200000000042
12.517000000000001,11.26999999999987,-23.712200000000028,-3.991400000000027
12.537000000000003,8.690090909090596,-23.492181818181727,-4.490272727272755
12.557000000000002,6.020599999999729,-21.950399999999778,-4.847000000000056
12.577000000000002,2.8477999999996744,-19.565799999999786,-4.840399999999919
12.597000000000001,-4.862777777778529,-17.010777777777633,-2.9863333333331834
12.617000000000003,-19.056600000002533,-13.21599999999898,0.1822000000006021
12.637000000000002,-22.993999999998216,-10.216000000000285,1.0121999999994213
12.657000000000002,1.610000000003029,-12.96200000000012,-8.435000000001285
12.677000000000001,18.62600000000026,-13.145000000000026,-16.660000000000345
12.697000000000003,11.039727272725813,-16.121636363637023,-14.319272727271827
12.717000000000002,3.501538461538546,-22.141538461538737,-4.994230769230214
12.737000000000002,17.279538461539843,-20.802846153845717,3.7812307692311267
12.757000000000001,39.04580000000114,-10.484599999998869,3.3903999999993815
12.777000000000003,29.156555555551417,-3.627777777777415,-0.3267777777777673
12.797000000000002,5.8229090909074195,-3.1569090909090702,2.3072727272731313
12.817000000000002,-0.1436249999996042,-2.806749999999967,3.4188749999997974
12.837000000000002,7.701909090909417,-1.4146363636362538,-0.6910909090910786
12.857000000000001,8.649399999999961,0.03700000000002557,0.4190000000000652
12.877000000000002,4.960399999999682,1.5916000000002049,4.603600000000425
12.897000000000002,6.568272727273131,3.82990909090932,6.5249090909091185
12.917000000000002,11.784800000000256,8.047800000000265,6.705200000000011
12.937000000000001,17.813777777778242,15.000666666667211,5.3415555555554075
12.957000000000003,24.19825000000087,21.53975000000071,3.516249999999957
12.977000000000002,24.40499999999978,25.10260000000035,8.842400000001122
12.997000000000002,23.377799999999993,27.03360000000013,15.795000000000348
13.017000000000001,22.57849999999969,26.67699999999982,20.65200000000044
13.037000000000003,14.012399999998962,22.688799999999496,26.538000000000405
13.057000000000002,5.728999999999372,18.011499999999604,22.92999999999903
13.077000000000002,1.5547999999998887,14.038799999999767,5.731199999998061
13.097000000000001,2.8585000000001535,11.069499999999694,-6.715500000000471
13.117000000000003,4.539333333333487,5.017999999999326,-6.64033333333279
13.137000000000002,7.170000000000323,-1.4200000000004842,-0.5184285714281509
13.157000000000002,13.475000000000472,-8.39418181818232,2.720454545454608
13.177000000000001,18.962818181818406,-15.973454545455038,2.3336363636362796
13.197000000000003,19.033999999999676,-22.034076923077457,0.10007692307657268
13.217000000000002,15.12907692307657,-24.109461538461566,-2.367769230769369
13.237000000000002,10.807333333332892,-22.499999999999723,-3.7893333333334636
13.257000000000001,6.471272727272463,-19.45818181818166,-4.733909090909114
13.277000000000003,-1.513000000001504,-17.70427272727235,-3.4643636363633936
13.297000000000002,-12.890750000000404,-11.990499999999498,-2.2042500000000165
13.317000000000002,-4.199999999998576,-12.507500000000071,-3.816250000000066
13.337000000000002,6.220333333333545,-14.24308333333346,-3.6124166666666513
13.357000000000003,3.7264999999993,-16.22550000000025,-2.5724999999997427
13.377000000000002,-1.8040000000003502,-19.96233333333377,0.4243333333336079
13.397000000000002,0.42416666666789027,-24.51916666666737,1.5928333333332862
13.417000000000002,14.773222222224248,-24.392444444444187,-1.3720000000004386
13.437000000000003,30.826222222224086,-16.61399999999871,-4.741666666667141
13.457000000000003,30.352555555554652,-8.245999999999086,-5.753944444444288
13.477000000000002,17.311545454544607,0.1525454545457614,-1.6459090909087097
13.497000000000002,11.396545454545237,2.5977272727274032,2.010727272727446
13.517000000000001,8.769636363636321,5.117454545454654,3.591636363636332
13.537000000000003,6.379444444443866,6.243444444444536,2.0005555555553727
13.557000000000002,5.070409836065448,6.1630655737704725,1.5022459016392928
13.577000000000002,4.04975409836055,6.005360655737689,1.0858524590163503
13.597000000000001,3.029098360655653,5.847655737704905,0.6694590163934082
13.617000000000003,3.8085000000003233,11.763750000001096,6.85700000000063
13.637000000000002,10.199181818182725,21.139636363637297,9.055272727272884
13.657000000000002,26.99315384615552,28.689384615385013,9.759769230769136
13.677000000000001,37.15675000000016,31.317250000000097,10.596750000000267
13.697000000000003,30.24624999999868,30.190249999999832,15.371000000000489
13.717000000000002,26.51327272727271,26.051909090908527,12.607545454544985
13.737000000000002,22.25799999999917,17.29599999999893,7.7866666666661954
13.757000000000001,10.573299999999087,7.042599999999281,3.1305999999996335
13.777000000000003,4.927749999999608,-0.6315000000014102,-1.053250000000725
13.797000000000002,5.059000000000134,-7.523857142858331,-3.3184285714288095
13.817000000000002,6.4217500000001415,-12.57500000000038,-2.8017499999998776
13.837000000000002,7.392142857142884,-16.85942857142888,-1.4445714285713511
13.857000000000003,6.9621249999998245,-19.995375000000507,-0.767999999999941
13.877000000000002,5.625333333333145,-21.412750000000052,-0.8530833333333587
13.897000000000002,4.513624999999896,-20.98312499999991,-1.0288750000000328
13.917000000000002,4.001272727272691,-19.903636363636245,-1.932181818181912
13.937000000000003,2.661545454545184,-18.392454545454353,-2.288727272727218
13.957000000000003,-3.2966666666675666,-16.68866666666647,-0.16233333333304645
13.977000000000002,-11.029750000000616,-15.354249999999924,1.860916666666741
13.997000000000002,-11.723499999999667,-13.701000000000013,0.6634999999998427
14.017000000000003,1.4154000000019278,-15.499200000000192,-4.244400000000638
14.037000000000003,9.133666666667077,-16.956222222222497,-6.351222222222188
14.057000000000002,9.605999999999932,-19.420500000000157,-3.3744999999997347
14.077000000000002,9.3033636363638,-21.665181818181804,2.476090909091151
14.097000000000001,20.68366666666845,-18.360999999999418,2.1986666666664076
14.117000000000003,34.702545454546154,-8.44499999999862,-1.1461818181822614
14.137000000000002,23.788499999996617,-0.8419999999996458,-2.4369999999997907
14.157000000000002,0.6969999999986465,1.2416000000002665,0.7758000000002194
14.177000000000001,0.8773333333345641,4.177666666666835,-2.2290000000006778
14.197000000000003,13.683000000001062,6.0277272727275175,-6.856727272727517
14.217000000000002,11.715749999999277,6.195499999999951,-5.217499999999604
14.237000000000002,1.1644999999996173,4.645699999999845,3.163100000000555
14.257000000000001,1.8208000000002884,4.356300000000071,7.536100000000208
14.277000000000003,6.565272727273278,7.155454545455023,8.08745454545448
14.297000000000002,7.351799999999823,12.756200000000847,7.297599999999906
14.317000000000002,11.033000000000625,22.01610000000067,4.964199999999739
14.337000000000002,17.257600000000185,29.315400000000327,3.797000000000038
14.357000000000003,18.19566666666669,32.84050000000067,6.801833333333818
14.377000000000002,30.114916666668716,33.99333333333281,7.171833333333155
14.397000000000002,26.279583333331527,27.434166666665842,9.349916666667053
14.417000000000002,7.688166666665917,18.049249999999535,9.161499999999721
14.437000000000003,-2.8588333333339784,12.104083333332913,0.3074166666655591
14.457000000000003,-1.9458333333328413,7.641416666665986,-3.6569166666665702
14.477000000000002,0.30741666666677087,1.5269999999993782,1.0079166666673334
14.497000000000002,0.8068181818181693,-4.562272727273154,7.544818181818587
14.517000000000003,1.949250000000393,-7.663250000000298,8.741499999999817
14.537000000000003,7.073818181818757,-10.129636363636664,5.34881818181779
14.557000000000002,9.928750000000301,-13.328500000000574,2.640249999999605
14.577000000000002,9.345333333333153,-16.336888888889195,1.0671111111109828
14.597000000000003,7.129333333333027,-17.87944444444456,0.17144444444431078
14.617000000000003,5.531538461538281,-17.571999999999917,-0.7529230769231715
14.637000000000002,1.6276999999994888,-17.21659999999996,0.04180000000020856
14.657000000000002,-7.664000000000583,-13.6238181818178,3.694363636363839
14.677000000000003,-3.1329999999970575,-7.007545454544641,-0.17800000000138905
14.697000000000003,22.01933333333538,-6.242666666666788,-10.077666666667561
14.717000000000002,22.792074074074065,-6.283962962962962,-10.486851851851855
14.737000000000002,22.696362573099407,-6.273397660818712,-10.520380116959068
14.757000000000001,22.60065107212475,-6.262832358674463,-10.553908382066279
14.777000000000003,22.504939571150086,-6.252267056530213,-10.587436647173494
14.797000000000002,22.409228070175427,-6.241701754385963,-10.620964912280705
14.817000000000002,22.31351656920077,-6.2311364522417145,-10.654493177387916
14.837000000000002,22.217805068226117,-6.220571150097465,-10.68802144249513
14.857000000000003,22.12209356725145,-6.210005847953215,-10.721549707602342
14.877000000000002,22.026382066276792,-6.199440545808965,-10.755077972709556
14.897000000000002,21.930670565302137,-6.188875243664716,-10.788606237816767
14.917000000000002,21.834959064327478,-6.1783099415204665,-10.822134502923978
14.937000000000003,21.739247563352816,-6.167744639376217,-10.855662768031193
14.957000000000003,21.643536062378157,-6.157179337231967,-10.889191033138404
14.977000000000002,21.5478245614035,-6.146614035087718,-10.922719298245617
14.997000000000002,21.452113060428843,-6.136048732943468,-10.956247563352829
15.017000000000003,21.356401559454177,-6.1254834307992185,-10.989775828460044
15.037000000000003,21.260690058479522,-6.11491812865497,-11.023304093567255
15.057000000000002,21.164978557504863,-6.10435282651072,-11.056832358674466
15.077000000000002,21.069267056530208,-6.093787524366471,-11.09036062378168
15.097000000000003,20.973555555555542,-6.08322222222222,-11.123888888888892
15.117000000000003,20.877844054580887,-6.072656920077971,-11.157417153996105
15.137000000000002,20.78213255360623,-6.062091617933722,-11.190945419103317
15.157000000000002,20.686421052631573,-6.051526315789473,-11.224473684210528
15.177000000000003,20.590709551656907,-6.040961013645222,-11.258001949317743
15.197000000000003,20.49499805068225,-6.030395711500973,-11.291530214424954
15.217000000000002,14.817999999998007,-5.454799999999798,-10.353799999999659
15.237000000000002,7.904999999999761,-19.064000000000743,-4.187500000000065
15.257000000000003,6.710916666666467,-20.78016666666689,-3.5034999999997862
15.277000000000003,5.500999999999866,-21.4029999999999,-1.5559999999998446
15.297000000000002,5.155399999999998,-20.94733333333329,-1.2903333333333609
15.317000000000002,5.251400000000011,-20.2065999999999,-2.490000000000136
15.337000000000003,2.530923076922362,-19.313692307692154,-2.176461538461405
15.357000000000003,-5.799444444445472,-17.133666666666354,-0.6374444444443155
15.377000000000002,-10.57781818181882,-14.709909090908582,-1.3837272727274719
15.397000000000002,-8.310199999999014,-13.56320000000017,-4.246600000000467
15.417000000000002,-0.8488571428568235,-14.051000000000016,-5.661142857142836
15.437000000000003,4.965000000000648,-16.931000000000605,-4.058000000000014
15.457000000000003,10.476000000000463,-22.075000000000227,-3.7939999999998757
15.477000000000002,17.06300000000077,-23.285999999999678,-1.9419999999997992
15.497000000000002,25.431800000000607,-18.580999999999516,0.05826666666679059
15.517000000000003,33.32790000000023,-3.1515999999982975,-2.1224000000006256
15.537000000000003,21.84619999999804,4.882900000000603,-2.3804999999996155
15.557000000000002,5.872333333331821,8.04566666666704,4.88200000000084
15.577000000000002,2.3120000000004293,10.824000000000217,8.22619999999986
15.597000000000003,6.589727272727661,12.916000000000238,4.088545454544827
15.617000000000003,3.813888888888254,13.220666666666661,2.5993333333334485
15.637000000000002,2.129000000000219,11.661999999999848,6.461000000000287
15.657000000000002,5.175000000000054,9.143999999999808,10.353000000000186
15.677000000000003,5.521111111111089,6.612777777777298,12.339555555555817
15.697000000000003,9.61900000000063,3.7469999999997774,13.107999999999928
15.717000000000002,10.81599999999977,3.3680909090910034,13.17281818181827
15.737000000000002,9.519800000000002,4.128200000000117,16.04760000000022
15.757000000000003,12.789333333334124,7.382444444444976,14.526777777776905
15.777000000000003,16.058692307692656,12.764461538462497,4.513923076921528
15.797000000000002,18.61066666666692,18.39222222222285,-5.633777777779089
15.817000000000002,9.705833333332613,17.81299999999988,-4.319166666666392
15.837000000000003,-5.054444444447037,13.632111111110085,4.354111111113104
15.857000000000003,-9.574000000000249,10.270999999999683,10.705222222222844
15.877000000000002,-8.937555555555422,8.75233333333317,9.205666666666081
15.897000000000002,-6.379416666666548,7.2952499999999425,2.242416666666366
15.917000000000003,-4.408090909090573,5.879636363636045,0.21918181818197446
15.937000000000003,0.6423571428579191,2.2261428571423236,2.9004285714289733
15.957000000000003,7.763000000000305,-4.48600000000051,4.797000000000007
15.977000000000002,11.407583333333498,-11.125083333333693,4.140083333333223
15.997000000000003,13.61,-17.05164285714332,1.973642857142599
16.017000000000003,11.708615384614092,-20.659307692307898,-0.17400000000008362
16.037000000000003,4.535999999998453,-21.017909090909022,-0.022727272727124492
16.057000000000002,-8.502636363638674,-21.786818181818386,1.5788181818183844
16.077,-30.397363636366222,-15.165999999998517,-2.764181818183056
16.097,-16.117199999997702,-13.130800000000207,-8.50640000000015
16.117,20.849000000001638,-17.419166666666907,-12.22050000000026
16.137000000000004,27.550599999997942,-20.58940000000006,-9.372999999998173
16.157000000000004,8.238499999996554,-19.207499999999882,2.4395000000023455
16.177000000000003,5.83300000000182,-18.0209999999995,8.796999999999791
16.197000000000003,16.296000000000767,-14.004599999999588,6.10919999999965
16.217000000000002,17.672749999999425,-7.00699999999892,0.3532499999991292
16.237000000000002,5.9933636363624325,-2.227909090908906,-4.5139090909092054
16.257,-1.9805000000001345,-0.8467499999999559,-4.653833333333192
16.277,-2.4250000000000003,0.33849999999999997,-1.7335
16.297000000000004,3.7948000000019113,3.2441000000009033,2.017100000000926
16.317000000000004,9.266111111111766,7.840888888889502,6.829888888889625
16.337000000000003,11.245161165048547,10.001683495145635,9.891588349514569
16.357000000000003,11.256630420711977,10.018757928802591,9.91956245954693
16.377000000000002,11.268099676375407,10.03583236245955,9.947536569579292
16.397000000000002,11.279568932038837,10.052906796116506,9.975510679611654
16.417,11.291038187702267,10.069981229773465,10.003484789644016
16.437,11.302507443365696,10.087055663430421,10.031458899676377
16.457000000000004,11.31397669902913,10.104130097087383,10.059433009708744
16.477000000000004,11.32544595469256,10.12120453074434,10.087407119741107
16.497000000000003,11.33691521035599,10.138278964401298,10.115381229773467
16.517000000000003,11.34838446601942,10.155353398058255,10.14335533980583
16.537000000000003,11.35985372168285,10.172427831715213,10.171329449838192
16.557000000000002,11.37132297734628,10.18950226537217,10.199303559870554
16.577,11.38279223300971,10.206576699029128,10.227277669902914
16.597,11.39426148867314,10.223651132686085,10.255251779935277
16.617000000000004,11.405730744336573,10.240725566343047,10.283225889967644
16.637000000000004,11.417200000000003,10.257800000000003,10.311200000000005
16.657000000000004,11.428669255663433,10.274874433656962,10.339174110032367
16.677000000000003,11.440138511326863,10.291948867313918,10.36714822006473
16.697000000000003,11.451607766990293,10.309023300970876,10.395122330097092
16.717000000000002,11.463077022653723,10.326097734627833,10.423096440129452
16.737000000000002,11.474546278317153,10.343172168284791,10.451070550161814
16.757,11.486015533980584,10.36024660194175,10.479044660194177
16.777,11.497484789644014,10.377321035598706,10.507018770226539
16.797000000000004,11.508954045307446,10.394395469255667,10.534992880258905
16.817000000000004,11.520423300970876,10.411469902912625,10.562966990291267
16.837000000000003,11.531892556634306,10.428544336569582,10.59094110032363
16.857000000000003,11.543361812297736,10.44561877022654,10.61891521035599
16.877000000000002,11.554831067961166,10.462693203883497,10.646889320388352
16.897000000000002,11.566300323624597,10.479767637540455,10.674863430420714
16.917,11.577769579288027,10.496842071197413,10.702837540453077
16.937,11.589238834951457,10.51391650485437,10.730811650485437
16.957000000000004,11.600708090614889,10.53099093851133,10.758785760517805
16.977000000000004,11.612177346278319,10.548065372168288,10.786759870550167
16.997000000000003,11.623646601941749,10.565139805825245,10.814733980582528
17.017000000000003,11.635115857605179,10.582214239482203,10.84270809061489
17.037000000000003,11.64658511326861,10.59928867313916,10.870682200647252
17.057000000000002,11.65805436893204,10.616363106796118,10.898656310679614
17.077,11.66952362459547,10.633437540453077,10.926630420711975
17.097,11.6809928802589,10.650511974110033,10.954604530744337
17.117000000000004,11.692462135922332,10.667586407766994,10.982578640776705
17.137000000000004,11.703931391585762,10.684660841423952,11.010552750809065
17.157000000000004,11.715400647249192,10.701735275080908,11.038526860841428
17.177000000000003,11.726869902912624,10.718809708737867,11.06650097087379
17.197000000000003,11.738339158576053,10.735884142394823,11.094475080906152
17.217000000000002,11.749808414239483,10.752958576051782,11.122449190938513
17.237000000000002,11.761277669902913,10.77003300970874,11.150423300970875
17.257,11.772746925566343,10.787107443365697,11.178397411003237
17.277000000000005,11.784216181229775,10.804181877022657,11.206371521035603
17.297000000000004,11.795685436893205,10.821256310679615,11.234345631067965
17.317000000000004,11.807154692556637,10.838330744336572,11.262319741100328
17.337000000000003,11.818623948220067,10.85540517799353,11.29029385113269
17.357000000000003,11.830093203883496,10.872479611650487,11.31826796116505
17.377000000000002,11.841562459546926,10.889554045307445,11.346242071197413
17.397000000000002,11.853031715210356,10.906628478964404,11.374216181229775
17.417,11.864500970873786,10.92370291262136,11.402190291262137
17.437,11.875970226537216,10.940777346278319,11.430164401294498
17.457000000000004,11.88743948220065,10.957851779935279,11.458138511326865
17.477000000000004,11.89890873786408,10.974926213592235,11.486112621359228
17.497000000000003,11.91037799352751,10.992000647249194,11.51408673139159
17.517000000000003,11.92184724919094,11.00907508090615,11.54206084142395
17.537000000000003,11.93331650485437,11.026149514563109,11.570034951456313
17.557000000000002,11.9447857605178,11.043223948220067,11.598009061488675
17.577,11.95625501618123,11.060298381877024,11.625983171521035
17.597,11.96772427184466,11.077372815533982,11.653957281553398
17.617000000000004,11.979193527508093,11.094447249190942,11.681931391585765
17.637000000000004,11.990662783171523,11.1115216828479,11.709905501618127
17.657000000000004,12.002132038834953,11.128596116504857,11.737879611650488
17.677000000000003,12.013601294498383,11.145670550161814,11.76585372168285
17.697000000000003,12.025070550161812,11.162744983818772,11.793827831715213
17.717000000000002,12.036539805825242,11.17981941747573,11.821801941747573
17.737000000000002,12.048009061488672,11.196893851132687,11.849776051779935
17.757,12.059478317152104,11.213968284789646,11.877750161812298
17.777000000000005,12.070947572815536,11.231042718446606,11.905724271844665
17.797000000000004,12.082416828478966,11.248117152103564,11.933698381877026
17.817000000000004,12.093886084142396,11.26519158576052,11.961672491909388
17.837000000000003,12.105355339805826,11.282266019417477,11.98964660194175
17.857000000000003,12.116824595469255,11.299340453074436,12.01762071197411
17.877000000000002,-1.220000000001954,1.3869999999986358,0.8130000000067821
17.897000000000002,-2.63622727272742,1.364863636363698,3.0821363636364247
17.917,-0.7919090909090953,1.102090909090909,0.4525454545454378
17.937,-1.5508461538462721,1.3545384615385083,-0.3349230769231449
17.957000000000004,-3.7858181818187164,1.3148181818182305,-0.4268181818177759
17.977000000000004,-4.9469130434784425,1.317130434782582,0.37282608695662556
17.997000000000003,-5.290999999999738,1.5960000000001167,-0.51300000000026
18.017000000000003,-3.1499253731342605,1.7400149253731094,-1.5332388059701674
18.037000000000003,-2.6588805970148695,1.5582238805969943,-1.6645820895522538
18.057000000000002,-2.167835820895478,1.3764328358208793,-1.7959253731343403
18.077,-1.710199999999978,1.1927454545454417,-1.903181818181819
18.097,-1.3861999999999832,1.0014727272727173,-1.9140909090909097
18.117000000000004,-1.062199999999931,0.8101999999999592,-1.9250000000000023
18.137000000000004,-0.20266666666898614,0.0873333333346566,-0.6196666666663572
18.157000000000004,-2.6429999999998826,1.3429999999997264,-1.8099999999993783
18.177000000000003,-0.4520000000002416,0.2430000000000715,-0.9300000000007155
18.197000000000003,-1.5575384615383994,1.568230769230906,-1.7402307692306056
18.217000000000002,-0.5676923076922167,2.767307692307692,0.33761538461551593
18.237000000000002,2.027000000000326,1.0049999999997445,2.870333333333617
18.257,2.344,-0.587,3.345
18.277000000000005,1.7806666666665443,-0.8470000000000564,2.9172222222221293
18.297000000000004,1.0593333333330128,-1.1425555555556592,2.151888888888388
18.317000000000004,0.1862307692307188,-1.0781538461538165,0.7106923076922571
18.337000000000003,-0.2730000000010978,-0.5579999999981882,0.27900000000007463
18.357000000000003,-0.5847999999999951,0.48499999999998655,-0.5450000000000071
18.377000000000002,-0.8712222222222549,0.4891111111111037,-0.08088888888883702
18.397000000000002,-0.7634999999999915,0.6512500000000211,-0.0029999999999973347
18.417,-0.6698888888888844,0.650333333333335,-0.0810000000000142
18.437000000000005,-0.6977692307692501,0.7988461538461744,-0.13176923076922342
18.457000000000004,-0.751454545454566,0.6527272727271871,0.05763636363637738
18.477000000000004,-1.014909090909116,0.6070000000000045,-0.36200000000011756
18.497000000000003,-0.8833636363636174,0.5533636363636433,-0.6418181818181901
18.517000000000003,-1.0555454545454737,0.5036363636363487,-0.10081818181810986
18.537000000000003,-0.9389999999999787,0.3421428571428474,0.285428571428591
18.557000000000002,-0.6341111111110643,0.24966666666663667,0.5418888888889191
18.577,-0.5514000000000205,0.18240000000001622,0.28499999999989767
18.597,-0.405,0.208,-0.173
18.617000000000004,-0.030818181818095675,0.06881818181814219,-0.31972727272729173
18.637000000000004,0.11044444444445997,-0.057777777777794886,-0.07711111111104688
18.657000000000004,0.11627272727269554,-0.361181818181841,0.23090909090911954
18.677000000000003,-0.8690000000001759,-0.2700000000000121,-0.045000000000082065
18.697000000000003,-1.568166666666691,0.03850000000004056,0.23233333333339357
18.717000000000002,-1.068999999999845,0.012999999999800336,0.6129999999997904
18.737000000000002,-0.30118181818174317,-0.22081818181810764,-0.34609090909099255
18.757,-0.03,-0.356,-1.505
18.777000000000005,0.006555555555555819,-0.23599999999992421,-1.6802222222221783
18.797000000000004,-0.2552857142858141,-0.017999999999965738,-0.9734285714283307
18.817000000000004,-0.936999999999921,0.20579999999990492,0.23040000000025407
18.837000000000003,-0.5353999999998746,0.01619999999997143,0.59139999999996
18.857000000000003,-0.11103225806451503,0.12790322580649618,0.3329677419353956
18.877000000000002,-0.10458064516128984,0.3872580645161483,-0.1805806451613286
18.897000000000002,-0.13120754716981392,0.4334905660377307,-0.4156603773584932
18.917,-0.17988679245283426,0.3376415094339542,-0.4650943396226457
18.937000000000005,-0.22856603773586326,0.2417924528301607,-0.5145283018868069
18.957000000000004,0.26300000000009166,0.2620000000000533,-1.3276000000000017
18.977000000000004,0.5111818181818201,0.21427272727268498,-0.8105454545453263
18.997000000000003,0.569666666666677,-0.06066666666668025,0.24266666666674985
19.017000000000003,0.5873333333333253,-0.22266666666668955,0.9860000000000444
19.037000000000003,0.4152631578947214,-0.22947368421050665,1.546368421052732
19.057000000000002,0.16599999999989565,0.0020000000000115464,2.429999999999942
19.077,-0.2532857142857299,-0.03971428571429145,1.7547142857142397
19.097000000000005,-0.690357142857189,-0.170857142857161,0.05178571428557907
19.117000000000004,-0.7119999999999328,-0.22181818181818416,-0.28627272727273667
19.137000000000004,-0.4119999999999408,-0.12799999999996803,-0.33266666666665323
19.157000000000004,-0.18199999999998864,-0.17350000000002735,-0.3215000000000345
19.177000000000003,-0.309333333333361,-0.13291666666664437,-0.6377500000000397
19.197000000000003,-0.3739999999999796,-0.06963636363637737,-0.9344545454545486
19.217000000000002,-0.2265999999999934,-0.15239999999999382,-0.6829999999999468
19.237000000000002,-0.21599999999999894,-0.05549999999999272,-0.2254999999999753
19.257,-0.258444444444447,-0.08844444444444931,-0.05944444444443392
19.277000000000005,-0.295199999999997,-0.13860000000000597,0.0878000000000371
19.297000000000004,-0.1889999999999872,-0.1995000000000089,0.18349999999999964
19.317000000000004,-0.22072727272728304,-0.19563636363635994,0.13154545454543393
19.337000000000003,-0.06049999999995133,-0.1854999999999954,-0.2300000000000753
19.357000000000003,-0.01840000000002793,-0.00039999999996503943,-0.4548000000000047
19.377000000000002,-0.3514545454545703,0.17399999999999033,-0.5250000000000112
19.397000000000002,-0.22799999999996484,-0.04550000000001119,-0.770500000000007
19.417,0.0141666666666947,0.0037500000000088816,-0.32774999999992593
19.437000000000005,0.7100000000002537,-0.03250000000004742,0.2675000000000688
19.457000000000004,1.111749999999982,0.014000000000003551,0.19349999999992953
19.477000000000004,0.671909090908962,0.1834545454545585,0.23045454545469413
19.497000000000003,0.012999999999889156,0.054999999999942435,1.2506000000001594
19.517000000000003,-0.5074000000000567,-0.23420000000001984,1.527599999999985
19.537000000000003,-0.9350000000000224,-0.3282000000000102,1.1433999999999276
19.557000000000002,-1.08500000000001,-0.6555000000000336,0.4969999999999858
19.577,-1.2364545454545621,-0.8100909090909014,0.689272727272748
19.597000000000005,-1.0066666666664494,-0.4703333333331892,1.2110833333337265
19.617000000000004,-0.3572499999999328,-0.15999999999995265,2.0302499999998997
19.637000000000004,0.009666666666751533,0.15100000000002725,0.45966666666625894
19.657000000000004,0.2765999999999825,0.015399999999857611,-1.0188000000001691
19.677000000000003,-0.14433333333348056,-0.4440000000000095,-1.5586666666667244
19.697000000000003,-0.7435333333333506,-0.2619333333333221,-1.5632666666666497
19.717000000000002,-0.7713571428571179,-0.16314285714287508,-0.9325714285712994
19.737000000000002,-0.21179999999992047,-0.2569999999999851,0.2186000000000968
