timestamp,gyro_x,gyro_y,gyro_z
0.022,-0.07,-0.13,0.01
0.041999999999999996,-0.06833333333333333,0.08833333333333333,-0.01
0.06199999999999999,-0.12999999999999998,0.05000000000000003,0.009999999999999978
0.08199999999999999,-0.14,-0.034999999999999934,0.0
0.10199999999999998,-0.15,-0.02000000000000007,-0.01
0.12199999999999997,-0.15,0.0,-0.02
0.142,-0.15,0.0,-0.02
0.16199999999999998,-0.1400000000000001,0.02,-0.020000000000000094
0.18199999999999997,-0.14,0.024999999999999863,-0.02
0.20199999999999996,-0.16,0.07,-0.01
0.22199999999999995,-0.1799999999999998,0.03,0.0
0.24199999999999997,-0.17,0.03,-0.01
0.26199999999999996,-0.15,0.08,-0.02749999999999986
0.282,-0.15,0.1,-0.04
0.302,-0.14,0.14,-0.1
0.32199999999999995,-0.14,0.21999999999999964,-0.22999999999999965
0.34199999999999997,-0.19,0.4099999999999994,-0.36999999999999983
0.362,-0.18,0.58,-0.5
0.38199999999999995,-0.11714285714285722,0.6,-0.6014285714285714
0.40199999999999997,-0.06,0.5700000000000003,-0.6999999999999997
0.42199999999999993,-0.16999999999999965,0.3800000000000004,-0.8499999999999996
0.44199999999999995,-0.3824999999999996,0.2050000000000003,-0.9674999999999998
0.46199999999999997,-0.7699999999999991,0.1499999999999998,-1.0499999999999998
0.48199999999999993,-1.0399999999999978,0.23000000000000057,-1.0699999999999994
0.5019999999999999,-1.469999999999997,-0.44999999999999446,-0.9500000000000022
0.5219999999999999,-1.6599999999999995,-0.3600000000000037,-0.9699999999999981
0.5419999999999999,-1.6700000000000004,0.7099999999999944,-1.499999999999996
0.5619999999999999,-1.5133333333333339,0.8766666666666677,-1.9266666666666654
0.582,-1.31,0.67,-2.22
0.602,-1.09,0.85,-2.42
0.6219999999999999,-1.01,0.9200000000000015,-2.290000000000001
0.6419999999999999,-0.7100000000000022,0.07333333333333185,-1.8300000000000023
0.6619999999999999,-0.1300000000000026,1.30999999999999,-1.5500000000000007
0.6819999999999999,0.2799999999999978,2.130000000000022,-1.5399999999999978
0.702,1.24,1.0966666666666667,-1.5733333333333335
0.7219999999999999,2.329999999999996,0.5400000000000041,-1.799999999999999
0.7419999999999999,2.336666666666667,-2.796666666666656,-1.763333333333334
0.7619999999999999,2.6199999999999988,-1.8600000000000065,-1.582500000000001
0.7819999999999999,2.1925000000000012,-0.5050000000000009,-1.1762500000000007
0.8019999999999999,1.1900000000000028,-0.2700000000000026,-0.7800000000000008
0.8219999999999998,0.7266666666666681,-0.3299999999999989,-0.753333333333333
0.8419999999999999,0.563333333333334,-0.5066666666666659,-0.746666666666667
0.8619999999999999,0.5099999999999997,-0.8299999999999981,-0.6600000000000008
0.8819999999999999,0.7233333333333326,-0.98,-0.6233333333333332
0.9019999999999999,1.1566666666666647,-0.973333333333334,-0.626666666666667
0.9219999999999999,1.6599999999999977,-0.5866666666666681,-0.6033333333333329
0.9419999999999998,2.0599999999999987,-0.4199999999999996,-0.72
0.9619999999999999,2.389999999999999,-0.2500000000000007,-0.8599999999999997
0.9819999999999999,2.4050000000000002,-0.41499999999999915,-0.6100000000000011
1.0019999999999998,2.080000000000001,-0.6150000000000005,-0.02000000000000111
1.0219999999999998,1.7700000000000045,-0.5699999999999992,0.10999999999999852
1.0419999999999998,1.0466666666666717,-0.44666666666666865,0.3433333333333328
1.0619999999999998,0.32000000000000667,-0.3099999999999993,0.4499999999999993
1.0819999999999999,-0.40999999999999814,-0.5199999999999992,0.5349999999999998
1.1019999999999999,-1.0799999999999979,-1.3999999999999924,0.7249999999999994
1.1219999999999999,-1.21,-2.3999999999999932,0.64
1.142,-1.09,-3.8,0.11
1.162,-1.15,-4.39,-1.42
1.182,-0.87,-4.37,-1.45
1.2019999999999997,-0.49500000000000166,-3.5550000000000184,-1.5349999999999917
1.2219999999999998,-0.6266666666666617,-2.760000000000009,-1.9333333333333294
1.2419999999999998,-1.4099999999999766,-2.3900000000000032,-2.0949999999999984
1.2619999999999998,-2.7033333333333256,-2.67333333333333,-2.0200000000000014
1.2819999999999998,-3.7799999999999945,-2.9100000000000033,-1.880000000000001
1.3019999999999998,-4.299999999999998,-2.4800000000000053,-1.7399999999999993
1.3219999999999998,-4.205000000000002,-2.090000000000001,-1.84
1.3419999999999999,-4.1,-2.3149999999999986,-1.720000000000001
1.3619999999999999,-4.424999999999998,-2.927499999999998,-1.380000000000001
1.382,-4.786,-3.2579999999999996,-1.0980000000000008
1.402,-4.54,-2.97,-0.72
1.4219999999999997,-3.970000000000007,-2.365000000000008,-0.26000000000000667
1.4419999999999997,-3.790000000000003,-2.1750000000000016,0.16499999999998835
1.4619999999999997,-3.270000000000012,-2.1866666666666648,0.9399999999999882
1.4819999999999998,-2.2766666666666717,-2.466666666666664,1.7066666666666641
1.5019999999999998,-1.1550000000000074,-3.4199999999999946,2.02
1.5219999999999998,-0.14000000000000667,-3.610000000000002,1.8150000000000017
1.5419999999999998,0.4749999999999983,-2.860000000000008,1.4550000000000038
1.5619999999999998,0.26750000000000196,-1.6650000000000051,0.8550000000000028
1.5819999999999999,-0.39999999999999597,-0.35000000000000664,0.1300000000000037
1.6019999999999999,-1.1049999999999984,1.0299999999999934,-0.774999999999995
1.6219999999999997,-0.9300000000000074,1.866666666666658,-1.6266666666666543
1.6419999999999997,-0.01500000000002831,1.99000000000001,-2.464999999999978
1.6619999999999997,1.3333333333333206,1.0566666666666766,-3.549999999999985
1.6819999999999997,1.7533333333333336,1.0099999999999971,-4.629999999999995
1.7019999999999997,1.3280000000000007,3.0159999999999827,-5.949999999999994
1.7219999999999998,2.1999999999999793,4.95333333333332,-6.579999999999994
1.7419999999999998,4.044999999999962,5.31,-6.9699999999999935
1.7619999999999998,5.534999999999995,5.2125,-7.182499999999999
1.7819999999999998,6.669999999999998,4.995714285714286,-7.374285714285714
1.8019999999999998,7.679999999999997,4.540000000000003,-7.8966666666666665
1.8219999999999998,8.054999999999996,3.480000000000012,-7.4350000000000085
1.8419999999999996,8.609999999999992,1.29666666666671,-5.340000000000044
1.8619999999999997,7.960000000000018,-0.49999999999998934,-2.892000000000022
1.8819999999999997,4.308000000000026,-0.7900000000000053,-0.6560000000000112
1.9019999999999997,1.5600000000000112,-0.10000000000000382,0.46999999999999614
1.9219999999999997,-0.1999999999999867,0.3650000000000283,0.9899999999999767
1.9419999999999997,-0.7799999999999834,-1.9599999999999467,2.994999999999948
1.9619999999999997,-1.9959999999999898,-3.505999999999998,5.053999999999989
1.9819999999999998,-3.2849999999999917,-3.3412500000000036,6.134999999999995
2.002,-5.01,-2.49,6.62
2.022,-5.639999999999997,-3.0066666666666535,7.306666666666653
2.0419999999999994,-5.550000000000015,-4.149999999999963,8.469999999999963
2.0619999999999994,-4.200000000000056,-5.329999999999969,9.279999999999992
2.0819999999999994,-2.648000000000016,-5.682000000000002,8.892000000000008
2.1019999999999994,-1.86857142857142,-4.4714285714285955,7.572857142857153
2.1219999999999994,-4.199999999999926,-1.7433333333334247,6.956666666666724
2.1419999999999995,-6.356666666666639,1.9433333333332639,3.3666666666667497
2.1619999999999995,-6.390000000000035,3.933333333333344,-0.20999999999996893
2.1819999999999995,-3.2114285714286157,1.5571428571428854,0.1114285714285649
2.2019999999999995,1.5899999999998535,0.5499999999999379,-2.139999999999796
2.2219999999999995,2.6199999999999957,2.7799999999999243,-5.8599999999999115
2.2419999999999995,2.769999999999991,5.20666666666663,-7.996666666666639
2.2619999999999996,3.7449999999999917,6.189999999999999,-9.029999999999994
2.2819999999999996,4.6437499999999945,6.231250000000001,-9.606249999999994
2.3019999999999996,5.577499999999996,6.123750000000001,-10.729999999999993
2.3219999999999996,6.329999999999991,5.220000000000035,-11.7
2.3419999999999996,6.320000000000004,4.210000000000022,-11.290000000000013
2.3619999999999997,6.213333333333337,3.0800000000000205,-10.423333333333355
2.3819999999999992,5.160000000000046,1.265000000000025,-7.085000000000085
2.4019999999999992,2.6600000000000668,0.2600000000000178,-3.450000000000086
2.4219999999999993,-2.0799999999998136,1.4599999999998756,1.1099999999998624
2.4419999999999993,-4.17999999999996,2.7400000000000313,2.489999999999938
2.4619999999999993,-3.0300000000001286,-0.4599999999997558,4.8299999999998
2.4819999999999993,-0.8900000000000414,-3.533333333333296,8.18333333333326
2.5019999999999993,-0.3299999999999889,-3.780000000000013,10.199999999999978
2.5219999999999994,-1.149999999999963,-3.0866666666666935,9.660000000000052
2.5419999999999994,-2.126666666666649,-2.8133333333333135,7.783333333333373
2.5619999999999994,-1.9666666666666939,-3.8166666666666567,8.066666666666627
2.5819999999999994,-1.1350000000000118,-3.82,8.978749999999991
2.6019999999999994,-0.74499999999999,-3.67,7.845000000000083
2.6219999999999994,-0.9799999999999933,-3.7900000000000045,6.400000000000018
2.6419999999999995,-1.4133333333333216,-3.0200000000000222,6.2433333333333305
2.6619999999999995,-2.1999999999999735,-1.8900000000000445,6.475000000000007
2.6819999999999995,-3.2299999999999924,-0.053333333333349386,4.9433333333333564
2.7019999999999995,-3.420000000000004,1.429999999999989,1.3500000000000363
2.7219999999999995,-0.9500000000000821,1.3800000000000288,-1.8300000000000023
2.7419999999999995,1.6799999999999533,1.1899999999999955,-2.349999999999938
2.7619999999999996,2.2433333333333345,1.4566666666666597,-5.706666666666622
2.7819999999999996,1.861111111111115,2.0399999999999965,-8.145555555555543
2.801999999999999,1.1400000000000088,2.75999999999999,-9.459999999999992
2.821999999999999,0.5599999999999971,4.289999999999949,-9.899999999999991
2.841999999999999,1.3399999999999335,4.950000000000005,-10.629999999999939
2.861999999999999,2.7233333333332914,3.9066666666667085,-11.499999999999977
2.8819999999999992,3.4649999999999945,2.900000000000011,-11.700000000000005
2.9019999999999992,3.3600000000000065,2.250000000000009,-11.110000000000012
2.9219999999999993,2.4500000000000357,1.6800000000000237,-9.510000000000083
2.9419999999999993,1.5600000000000445,1.2200000000000117,-6.310000000000133
2.9619999999999993,0.5300000000000444,1.03,-2.9500000000001365
2.9819999999999993,-0.6099999999999769,1.05,0.4399999999999307
3.0019999999999993,-1.3899999999999946,0.9100000000000023,2.3099999999999885
3.0219999999999994,-1.6700000000000133,-0.9799999999999659,6.179999999999922
3.0419999999999994,-0.833333333333358,-1.8233333333333284,10.143333333333224
3.0619999999999994,-0.31600000000000567,-1.9739999999999942,12.341999999999983
3.0819999999999994,-0.31199999999999717,-2.9059999999999775,11.69400000000003
3.1019999999999994,-0.42,-3.809999999999978,9.88000000000012
3.1219999999999994,-0.4099999999999991,-3.310000000000008,7.780000000000017
3.1419999999999995,-0.3300000000000074,-3.0699999999999967,8.109999999999978
3.1619999999999995,-0.29874999999999796,-2.973750000000003,8.368750000000006
3.1819999999999995,-1.159999999999951,-2.4600000000000133,6.370000000000116
3.2019999999999995,-1.5233333333333372,-2.3066666666666626,5.010000000000006
3.221999999999999,-0.7966666666667115,-2.6933333333333094,5.423333333333298
3.241999999999999,0.06999999999997929,-2.8600000000000176,5.960000000000006
3.261999999999999,-0.49999999999994965,-1.650000000000056,3.8700000000001333
3.281999999999999,-2.0199999999999627,-0.040000000000046165,0.14000000000008705
3.301999999999999,-2.7787499999999987,1.3449999999999807,-1.513749999999995
3.321999999999999,-1.9000000000000266,2.9433333333333036,-2.5833333333332327
3.341999999999999,-0.9160000000000332,3.7479999999999825,-5.97199999999991
3.361999999999999,0.5099999999999467,4.020000000000006,-8.84999999999992
3.3819999999999992,1.3899999999999877,3.8600000000000034,-10.039999999999981
3.4019999999999992,1.50000000000002,3.79,-11.074999999999976
3.4219999999999993,0.6333333333333551,4.2799999999999825,-11.313333333333333
3.4419999999999993,-0.07799999999999503,4.995999999999991,-11.230000000000006
3.4619999999999993,0.0324999999999864,5.424999999999996,-10.550000000000024
3.4819999999999993,0.7399999999999787,5.100000000000016,-9.270000000000037
3.5019999999999993,1.6699999999999928,4.400000000000006,-7.84000000000001
3.5219999999999994,3.0933333333333075,2.7633333333333905,-6.2200000000000415
3.5419999999999994,3.6699999999999986,-0.5599999999999274,-3.480000000000074
3.5619999999999994,3.050000000000019,-2.2500000000000013,0.9799999999999156
3.5819999999999994,1.2100000000001132,-0.7450000000000833,4.389999999999894
3.6019999999999994,-1.5566666666666271,0.6566666666666567,7.179999999999929
3.6219999999999994,-2.486666666666663,0.6366666666666746,10.113333333333266
3.6419999999999995,-2.283333333333343,-0.22333333333330177,12.076666666666645
3.661999999999999,-1.720000000000031,-1.829999999999917,11.606666666666733
3.681999999999999,-0.8680000000000234,-3.2219999999999764,9.840000000000058
3.701999999999999,-0.20272727272727847,-3.6781818181818147,7.727272727272753
3.721999999999999,0.4399999999999645,-3.810000000000018,7.069999999999974
3.741999999999999,0.5550000000000117,-3.1475000000000213,7.155000000000012
3.761999999999999,-0.3099999999999756,-2.5700000000000087,6.250000000000027
3.781999999999999,-0.8299999999999921,-2.370000000000003,5.680000000000006
3.801999999999999,-0.7200000000000355,-2.0250000000000044,5.8449999999999775
3.821999999999999,-0.06500000000003109,-2.0450000000000133,5.825000000000022
3.841999999999999,-0.05999999999996447,-1.4650000000000398,4.370000000000151
3.861999999999999,-0.9714285714285497,-0.6000000000000285,1.4585714285714884
3.8819999999999992,-2.0174999999999903,1.014999999999965,-0.9874999999999747
3.9019999999999992,-1.6666666666666865,2.2699999999999823,-2.4299999999999464
3.9219999999999993,-0.7000000000000399,2.8749999999999902,-5.3149999999998565
3.9419999999999993,0.04499999999997669,2.7450000000000165,-8.234999999999923
3.9619999999999993,0.24000000000000443,2.6999999999999935,-9.14999999999999
3.9819999999999993,-0.1285714285714199,3.1871428571428475,-9.435714285714282
4.002,-0.6522222222222196,3.986666666666662,-9.667777777777777
4.021999999999999,-0.9250000000000067,5.154999999999981,-9.824999999999998
4.042,-0.46500000000001995,5.864999999999981,-9.685000000000011
4.061999999999999,0.5299999999999689,6.125000000000011,-8.955000000000028
4.082,1.74,5.363333333333333,-7.763333333333334
4.101999999999999,2.7744444444444385,4.1833333333333425,-6.472222222222231
4.122,3.9266666666666667,1.2666666666666666,-4.016666666666667
4.1419999999999995,3.5366666666667044,-2.0799999999999645,0.6499999999998698
4.162,0.96,-1.71,5.49
4.1819999999999995,-3.119999999999949,0.30999999999998096,7.342857142857134
4.202,-5.7459999999999996,0.498,8.376000000000001
4.2219999999999995,-5.060000000000075,-1.9849999999999666,11.654999999999948
4.242,-2.086666666666633,-3.193333333333352,11.653333333333311
4.262,-0.32000000000001777,-4.44,8.836666666666764
4.282,-0.34,-3.65,5.16
4.302,-0.8,-2.88,4.42
4.321999999999999,-0.6033333333333373,-3.1166666666666627,5.226666666666663
4.342,-0.27500000000001557,-3.339999999999991,5.200000000000005
4.361999999999999,0.4633333333332899,-3.55,4.7733333333333485
4.382,1.36499999999998,-3.3250000000000064,4.5550000000000015
4.401999999999999,1.6066666666666707,-3.080000000000012,4.443333333333336
4.422,0.9700000000000149,-2.016666666666686,3.7966666666666864
4.441999999999999,-0.8766666666666173,-0.17333333333338272,1.1633333333334064
4.462,-1.93,1.3466666666666507,-0.7166666666666539
4.481999999999999,-1.4450000000000154,2.294999999999971,-2.1649999999999308
4.502,-0.93,3.05,-5.68
4.521999999999999,-0.5933333333333373,2.99,-7.866666666666654
4.542,-0.46,3.1619999999999937,-8.277999999999995
4.561999999999999,-0.5666666666666628,3.729999999999988,-8.746666666666652
4.582,-0.7099999999999955,4.249999999999987,-9.244999999999994
4.601999999999999,-0.5933333333333373,4.966666666666657,-9.489999999999997
4.622,-0.05000000000002221,5.584999999999988,-9.405000000000012
4.6419999999999995,1.036666666666648,5.763333333333337,-8.706666666666678
4.662,2.8033333333333106,4.730000000000021,-7.726666666666681
4.6819999999999995,3.9099999999999815,3.360000000000033,-6.9400000000000155
4.702,4.65,0.40499999999999997,-5.58
4.7219999999999995,3.850000000000018,-2.859999999999982,-1.4600000000000564
4.741999999999999,1.7433333333334795,-1.9633333333334675,3.6766666666664256
4.762,-1.7599999999999585,0.7233333333333077,7.239999999999967
4.781999999999999,-3.8949999999999756,1.0050000000000379,9.954999999999922
4.802,-3.5550000000000423,-0.8449999999999489,12.409999999999952
4.821999999999999,-2.835882352941186,-1.4899999999999927,12.939411764705877
4.842,-0.590000000000009,-3.5166666666666506,9.980000000000038
4.861999999999999,-0.2499999999999778,-3.5200000000000533,6.730000000000151
4.882,-0.64,-2.71,5.63
4.901999999999999,-0.7085714285714274,-2.182857142857145,5.302857142857149
4.922,-1.01,-2.04,4.01
4.941999999999999,-0.5500000000000267,-2.0899999999999967,3.8599999999999968
4.962,0.3412499999999982,-2.3087499999999994,4.1125
4.981999999999999,1.1866666666666548,-2.406666666666668,3.970000000000009
5.002,1.42,-2.265454545454547,3.478181818181821
5.021999999999999,0.3300000000000844,-0.9900000000000622,1.1200000000001333
5.042,-1.35,0.24,-0.7
5.061999999999999,-1.979999999999997,1.0266666666666597,-1.3533333333333224
5.082,-1.97,1.83,-2.97
5.101999999999999,-1.6600000000000088,2.17,-5.549999999999924
5.122,-1.5250000000000021,2.15,-6.929999999999955
5.1419999999999995,-1.8249999999999944,2.874999999999986,-7.724999999999997
5.161999999999999,-2.2099999999999644,3.859999999999902,-8.179999999999938
5.1819999999999995,-2.170000000000003,4.6433333333333255,-8.736666666666663
5.201999999999999,-1.790000000000071,5.23999999999992,-8.889999999999992
5.2219999999999995,-0.5800000000001243,5.939999999999983,-8.570000000000036
5.241999999999999,0.649999999999929,5.810000000000013,-8.130000000000031
5.262,2.0,5.54,-7.48
5.281999999999999,3.1299999999999155,4.8200000000000935,-7.150000000000023
5.302,4.55,0.7,-5.87
5.321999999999999,4.32000000000003,-3.0999999999998993,-2.310000000000169
5.342,2.96,-2.57,3.51
5.361999999999999,0.1600000000001066,0.3999999999999023,8.769999999999818
5.382,-2.1,1.64,13.0
5.401999999999999,-3.109999999999969,0.08000000000014212,14.050000000000036
5.422,-3.231818181818182,-1.0413636363636332,13.414090909090913
5.441999999999999,-1.7600000000000622,-3.2749999999999844,9.430000000000074
5.462,0.40499999999995784,-3.51,6.87500000000006
5.481999999999999,1.189999999999991,-3.1000000000000356,5.460000000000038
5.502,0.51,-2.38,3.8
5.521999999999999,-0.08999999999998966,-2.1000000000000045,3.220000000000008
5.542,-0.5033333333333373,-1.6533333333333342,3.369999999999997
5.561999999999999,0.1799999999999674,-1.7999999999999823,3.240000000000009
5.581999999999999,0.9799999999999822,-2.3899999999999877,3.269999999999993
5.601999999999999,1.2866666666666664,-2.293333333333337,3.68333333333333
5.621999999999999,-0.5799999999999111,-0.3200000000000444,2.1600000000001036
5.6419999999999995,-2.879999999999911,0.5999999999999511,-0.4199999999999156
5.661999999999999,-3.409999999999997,1.4699999999999733,-1.5399999999999527
5.6819999999999995,-3.2600000000000176,2.429999999999938,-3.579999999999858
5.701999999999999,-2.71000000000008,3.2799999999999376,-6.3899999999997155
5.7219999999999995,-1.8600000000000978,3.659999999999947,-7.789999999999929
5.741999999999999,-1.16800000000001,4.309999999999985,-8.24199999999999
5.762,-0.92,5.17,-8.87
5.781999999999999,-0.9000000000000059,6.269999999999955,-9.07
5.802,-0.3,7.31,-8.83
5.821999999999999,0.4038461538461351,7.547692307692305,-8.585384615384621
5.842,3.4099999999999735,6.115000000000024,-7.68250000000001
5.861999999999999,5.106666666666639,3.9400000000000532,-6.816666666666686
5.882,5.67,1.45,-5.6
5.901999999999999,4.610000000000169,-1.8899999999996357,-2.7000000000004443
5.922,3.04,-3.13,1.61
5.941999999999999,0.34333333333340244,-0.7700000000000652,7.343333333333231
5.962,-2.3466666666666094,1.1633333333333136,11.176666666666579
5.981999999999999,-4.064999999999977,0.9550000000000233,14.172499999999951
6.001999999999999,-4.7799999999999825,-0.649999999999926,15.459999999999988
6.021999999999999,-4.770000000000044,-2.5099999999997955,14.000000000000364
6.041999999999999,-3.5200000000000564,-3.5799999999999854,7.830000000000237
6.061999999999999,-1.9300000000000976,-3.4600000000000133,3.9700000000000712
6.081999999999999,-0.19000000000007106,-3.75999999999996,3.8200000000000087
6.101999999999999,0.02666666666667456,-3.7100000000000177,3.433333333333337
6.121999999999999,-0.05666666666666601,-3.400000000000006,3.4066666666666663
6.1419999999999995,0.58999999999998,-3.009999999999993,3.270000000000011
6.161999999999999,1.3899999999999824,-3.489999999999994,3.1033333333333255
6.1819999999999995,1.8699999999999923,-3.29000000000001,3.6099999999999888
6.201999999999999,1.6040000000000163,-2.120000000000023,3.2110000000000243
6.2219999999999995,-1.319999999999929,0.2599999999999408,-0.7699999999999231
6.241999999999999,-2.2399999999999736,1.464999999999951,-2.2399999999999114
6.262,-2.3950000000000022,2.5349999999999846,-4.322499999999963
6.281999999999999,-2.0100000000000118,3.389999999999988,-7.069999999999941
6.302,-1.37,3.74,-8.56
6.321999999999999,-1.0717647058823574,3.8741176470588212,-8.810588235294114
6.342,-0.21500000000000222,4.419999999999991,-10.129999999999981
6.361999999999999,-0.19,4.929999999999973,-10.489999999999995
6.382,-0.08,5.69,-10.46
6.401999999999999,0.5699999999999763,6.10333333333333,-9.953333333333353
6.421999999999999,1.1560869565217295,6.063043478260871,-9.522173913043485
6.441999999999999,3.3499999999998757,4.0400000000002665,-7.730000000000134
6.461999999999999,3.830000000000012,0.8700000000001391,-5.990000000000083
6.481999999999999,2.240000000000058,-2.7299999999999645,-1.6650000000001488
6.501999999999999,-0.036666666666528513,-1.4033333333334834,3.549999999999775
6.521999999999999,-0.8733333333333193,-0.5266666666666796,4.786666666666648
6.541999999999999,-4.45,-0.6599999999998933,10.396666666666482
6.561999999999999,-3.4833333333333787,-2.626666666666627,13.903333333333267
6.581999999999999,-1.5100000000001332,-3.9049999999999265,15.380000000000067
6.601999999999999,-0.8899999999999911,-4.09,11.785000000000153
6.621999999999999,-1.2399999999999645,-4.449999999999947,7.420000000000506
6.6419999999999995,-0.8650000000000155,-3.780000000000027,5.894999999999971
6.661999999999999,-0.7549999999999778,-3.06500000000004,6.6300000000000185
6.6819999999999995,-1.1799999999999955,-2.375000000000011,5.3750000000000515
6.701999999999999,-0.6600000000000621,-2.5699999999999736,3.8450000000000575
6.7219999999999995,0.6319999999999829,-3.1019999999999937,3.473999999999998
6.741999999999999,1.0449999999999915,-3.223333333333331,3.5349999999999984
6.762,1.02,-2.26,2.51
6.781999999999999,-1.69999999999984,-0.26000000000013324,-0.12999999999987566
6.802,-3.8899999999999597,1.91499999999994,-1.2649999999999757
6.821999999999999,-4.651249999999994,3.4437499999999712,-2.2737499999999713
6.842,-4.635909090909092,4.113181818181814,-3.08136363636363
6.861999999999999,-0.46333333333338955,5.030000000000013,-8.293333333333305
6.881999999999999,1.9599999999999111,4.34000000000003,-9.23999999999994
6.901999999999999,2.4600000000000177,4.239999999999956,-10.10999999999991
6.921999999999999,1.7100000000000593,5.013333333333269,-10.643333333333315
6.941999999999999,1.3100000000000889,5.489999999999885,-10.749999999999982
6.961999999999999,1.4666666666666273,6.27,-10.220000000000034
6.981999999999999,2.709999999999958,5.7333333333333645,-9.060000000000036
7.001999999999999,4.176666666666615,3.423333333333491,-7.560000000000083
7.021999999999999,4.130000000000031,0.08000000000008883,-5.650000000000066
7.041999999999999,3.940370370370376,-0.38037037037035865,-5.2677777777777886
7.061999999999999,-0.9199999999999231,-0.6566666666667219,2.126666666666562
7.081999999999999,-3.7099999999998268,0.5750000000000466,6.15999999999968
7.101999999999999,-4.539999999999991,-0.43999999999982237,9.50999999999952
7.121999999999999,-4.418857142857146,-0.9177142857142794,10.867714285714268
7.1419999999999995,-3.9700000000001423,-1.5699999999998313,12.659999999999556
7.161999999999999,-0.6499999999999911,-4.170000000000033,13.200000000000198
7.1819999999999995,-1.9999999999999822,-3.2766666666666744,6.756666666666722
7.201999999999999,-2.6999999999999957,-2.560000000000018,4.870000000000003
7.2219999999999995,-2.1966666666666743,-2.943333333333326,5.816666666666663
7.241999999999999,-1.5133333333333727,-3.219999999999988,5.013333333333408
7.262,-0.2966666666666864,-3.6933333333333227,3.706666666666677
7.281999999999999,1.1699999999999289,-4.729999999999956,3.305000000000004
7.301999999999999,1.52000000000004,-4.460000000000062,3.5399999999999867
7.321999999999999,-0.6099999999998268,-2.570000000000133,3.1400000000000667
7.341999999999999,-4.069999999999823,0.33999999999982683,0.5700000000001687
7.361999999999999,-5.440000000000008,2.589999999999902,-1.6549999999998979
7.381999999999999,-3.8100000000001377,3.7599999999999687,-3.3799999999999155
7.401999999999999,-1.2066666666667298,4.079999999999994,-5.169999999999947
7.421999999999999,0.8699999999998312,4.259999999999982,-7.3299999999998136
7.441999999999999,1.779999999999969,4.2099999999999955,-8.399999999999961
7.461999999999999,1.8466666666666747,4.586666666666627,-8.946666666666639
7.481999999999999,1.5333333333333412,5.346666666666647,-9.58333333333331
7.501999999999999,1.2666666666666746,5.953333333333314,-10.319999999999975
7.521999999999999,1.267894736842105,6.10157894736842,-10.443684210526314
7.541999999999999,2.0899999999999523,5.9833333333333725,-9.860000000000047
7.561999999999999,3.1699999999999524,4.800000000000065,-8.77000000000005
7.581999999999999,4.04,1.6500000000001864,-6.930000000000111
7.601999999999999,2.8600000000001153,-1.1499999999998889,-4.3300000000002
7.621999999999999,0.050000000000173184,-1.24000000000008,-0.15000000000023983
7.6419999999999995,-3.2199999999998226,0.7099999999999245,3.41999999999984
7.661999999999999,-5.514999999999933,0.2200000000000977,6.0949999999998
7.6819999999999995,-5.126666666666689,-1.7999999999999823,10.626666666666607
7.701999999999999,-2.396666666666828,-2.9833333333332543,14.50999999999988
7.721999999999999,0.42999999999962696,-4.83999999999968,14.550000000000498
7.741999999999999,0.7266666666666863,-4.9166666666666865,11.290000000000179
7.761999999999999,-0.009999999999964468,-4.050000000000044,7.600000000000109
7.781999999999999,-0.9199999999999512,-2.700000000000067,6.330000000000013
7.801999999999999,-1.8399999999999526,-2.300000000000012,6.0633333333333725
7.821999999999999,-2.5233333333333254,-1.9933333333333372,4.956666666666722
7.841999999999999,-2.4900000000000264,-2.02499999999998,4.725000000000073
7.861999999999999,-0.3166666666667456,-3.583333333333278,3.8766666666666625
7.881999999999999,1.2099999999999334,-4.18,4.319999999999974
7.901999999999999,1.5900000000000312,-3.5900000000000487,4.060000000000066
7.921999999999999,0.3675000000001099,-2.60000000000008,2.307500000000123
7.941999999999999,-1.4899999999996092,-1.1500000000003108,0.6000000000002842
7.961999999999999,-4.939999999999974,3.3799999999998844,-0.5499999999999512
7.981999999999999,-4.000000000000074,4.759999999999962,-2.8999999999998787
8.001999999999999,-0.980000000000373,5.090000000000044,-6.119999999999716
8.021999999999998,1.959999999999834,4.370000000000047,-7.459999999999958
8.042,2.389999999999997,4.220869565217392,-7.581739130434782
8.062,2.91,4.23,-9.34
8.081999999999999,2.2100000000000355,4.929999999999968,-10.42999999999995
8.101999999999999,1.6900000000000177,5.439999999999965,-11.059999999999974
8.122,1.72,5.47,-10.98
8.142,1.74,5.47,-10.95
8.161999999999999,2.7399999999999114,4.940000000000134,-9.390000000000134
8.181999999999999,3.090000000000053,2.2200000000004354,-7.370000000000311
8.201999999999998,1.0866666666669351,-1.9299999999997868,-2.773333333333941
8.222,-1.49,-1.11,2.95
8.241999999999999,-4.043333333333296,1.4766666666666568,6.513333333333278
8.261999999999999,-4.393333333333355,-0.4833333333332426,8.686666666666609
8.281999999999998,-2.776666666666864,-3.4599999999998343,10.79333333333316
8.302,-0.98,-4.16,11.75
8.322,-0.29111111111111043,-3.9761111111111136,10.79611111111112
8.341999999999999,-0.48999999999987565,-3.7100000000001065,9.740000000000498
8.361999999999998,-0.8700000000000355,-3.7699999999999823,7.300000000000053
8.382,-0.93,-3.21,6.94
8.402,-1.81,-2.34,6.52
8.421999999999999,-2.4499999999999824,-1.9999999999999822,5.290000000000131
8.441999999999998,-2.468181818181816,-2.063636363636356,5.080909090909116
8.462,-0.98,-3.57,3.94
8.482,-0.39,-3.27,4.77
8.501999999999999,-0.9799999999998994,-2.2500000000001066,3.530000000000195
8.521999999999998,-2.7399999999998226,-0.3200000000002043,1.0200000000001688
8.542,-2.868571428571424,-0.16285714285714886,0.9128571428571469
8.562,-3.3900000000000237,2.8699999999999526,-1.7099999999999231
8.581999999999999,-1.860000000000231,4.349999999999893,-4.759999999999689
8.601999999999999,0.48999999999982236,4.52,-6.3599999999999355
8.621999999999998,2.449999999999888,4.7599999999999705,-6.919999999999958
8.642,2.6227272727272672,4.805454545454544,-6.983636363636362
8.661999999999999,4.169999999999971,5.220000000000011,-8.509999999999923
8.681999999999999,4.310000000000006,4.90000000000003,-9.599999999999934
8.701999999999998,3.9400000000000475,4.73,-9.943333333333324
8.722,3.639666666666667,4.578000000000001,-9.919666666666666
8.741999999999999,3.633,4.538000000000001,-9.913
8.761999999999999,4.489999999999876,2.940000000000533,-8.070000000000586
8.781999999999998,3.073333333333586,-1.8233333333330886,-1.456666666667314
8.802,0.45,-1.46,4.17
8.822,-2.5106451612903165,0.6619354838709667,6.309677419354839
8.841999999999999,-2.7235483870967596,0.70064516129032,6.303225806451613
8.861999999999998,-3.340000000000355,-1.679999999999538,8.119999999999502
8.882,-0.5333333333333669,-3.6233333333333198,10.309999999999988
8.902,-0.20499999999996005,-3.48500000000004,9.865000000000075
8.921999999999999,-0.32484848484847956,-3.3824242424242463,9.664848484848493
8.941999999999998,-1.8199999999995737,-2.8000000000001064,7.6500000000005155
8.962,-3.63,-1.91,6.76
8.982,-2.710000000000062,-2.4099999999999646,6.260000000000071
9.001999999999999,-1.5350000000000668,-3.0199999999999645,4.955000000000049
9.021999999999998,-0.5275000000000366,-3.5674999999999835,4.75249999999999
9.041999999999998,-0.021000000000004793,-3.4490000000000114,5.144999999999992
9.062,-0.08999999999996447,-2.525000000000049,4.63000000000009
9.081999999999999,-1.4699999999999467,-1.3533333333333786,2.266666666666728
9.101999999999999,-3.6999999999997604,0.5699999999997779,0.9900000000000178
9.121999999999998,-4.760399999999999,2.3583999999999805,0.6224000000000178
9.142,-4.768399999999999,2.526399999999989,0.4704000000000097
9.161999999999999,-2.1600000000001836,4.729999999999989,-3.8299999999998637
9.181999999999999,0.11333333333326626,4.72,-4.853333333333314
9.201999999999998,2.8699999999998105,4.77,-5.633333333333278
9.222,4.30342857142857,4.719428571428572,-6.302571428571427
9.241999999999999,4.371999999999996,4.708,-6.353999999999997
9.261999999999999,4.839999999999947,4.590000000000018,-6.83999999999992
9.281999999999998,4.630000000000036,3.915000000000009,-7.689999999999964
9.302,4.365000000000005,3.830000000000018,-7.795000000000013
9.322,4.67,3.24,-7.14
9.341999999999999,4.859999999999997,2.9280000000000066,-6.762000000000008
9.361999999999998,3.4850000000003996,-3.259999999999822,0.3999999999994848
9.382,-0.64,-1.585,3.55
9.402,-4.60999999999984,1.6899999999998934,3.190000000000045
9.421999999999999,-5.6200000000000445,1.8400000000000798,2.9999999999999645
9.441999999999998,-5.478064516129042,1.609032258064531,3.1074193548387026
9.461999999999998,-2.640000000000675,-1.6399999999993782,4.629999999999733
9.482,0.010000000000008882,-3.370000000000018,4.255000000000075
9.501999999999999,-0.8999999999999289,-3.19,2.9600000000000533
9.521999999999998,-1.9862499999999965,-3.281874999999999,2.764999999999997
9.541999999999998,-2.048749999999995,-3.3006249999999984,2.814999999999996
9.562,-2.31,-4.3,4.86
9.581999999999999,-1.7000000000000237,-4.896666666666651,6.213333333333265
9.601999999999999,-1.3500000000000356,-5.055000000000062,8.199999999999715
9.621999999999998,-1.2854285714285736,-4.822571428571441,8.830571428571407
9.642,-1.25,-4.2,9.51
9.661999999999999,-7.999999999999982,4.479999999999858,1.2550000000002708
9.681999999999999,-3.9700000000003555,3.6966666666668284,-1.1633333333333136
9.701999999999998,2.059999999999556,0.43000000000019545,-1.9099999999998403
9.722,3.5680000000000085,0.46199999999997016,-3.2639999999999723
9.741999999999999,3.504838709677422,0.5880645161290275,-3.363548387096771
9.761999999999999,1.7200000000003552,2.4299999999996804,-3.989999999999876
9.781999999999998,1.0099999999998757,4.059999999999822,-4.749999999999911
9.802,2.2466666666666035,4.6266666666666625,-5.2699999999999525
9.822,2.7123076923076854,4.634230769230769,-5.729615384615377
9.841999999999999,4.249999999999911,4.130000000000035,-8.349999999999698
9.861999999999998,4.2333333333333485,3.873333333333349,-9.476666666666627
9.881999999999998,3.64500000000008,3.535000000000044,-10.199999999999946
9.902,2.8900000000000357,3.2600000000000118,-10.53
9.921999999999999,2.2430434782608732,3.099130434782609,-10.293043478260874
9.941999999999998,2.1734782608695693,3.090434782608696,-10.22347826086957
9.961999999999998,0.9300000000000178,2.69000000000004,-8.180000000000085
9.982,1.1799999999999762,0.9533333333334557,-5.23000000000019
10.001999999999999,1.48,-0.7299999999999763,-0.9400000000002132
10.021999999999998,1.0455555555555642,-0.20666666666667458,2.2633333333333137
10.041999999999998,0.170000000000302,0.2899999999999289,3.8299999999995027
10.062,-1.3666666666666272,-0.3266666666666509,8.636666666666473
10.081999999999999,-1.7799999999999823,-0.28,11.99999999999976
10.101999999999999,-1.72,-1.3633333333332307,11.973333333333432
10.121999999999998,-1.5883333333333367,-2.77499999999999,9.92444444444447
10.142,-1.5550000000000008,-2.874999999999998,9.680000000000005
10.161999999999999,0.17999999999976907,-3.5699999999999643,6.9899999999997515
10.181999999999999,-0.003333333333266214,-2.810000000000059,9.329999999999988
10.201999999999998,-1.9533333333332308,-1.6400000000000357,7.890000000000119
10.222,-3.3547058823529388,-1.3194117647058827,5.6764705882353015
10.241999999999999,-3.4017647058823512,-1.3135294117647063,5.541176470588241
10.261999999999999,-3.0400000000002665,-1.6299999999998578,4.3900000000000885
10.281999999999998,0.06333333333328992,-2.9,5.286666666666663
10.301999999999998,0.4327272727272698,-2.661818181818191,5.022727272727286
10.322,0.25666666666668636,-1.5733333333333965,3.5066666666667574
10.341999999999999,-0.28999999999997333,0.07999999999984012,0.9400000000003019
10.361999999999998,0.2399999999998934,1.0499999999999468,-1.0999999999997958
10.381999999999998,1.1799999999999466,1.4799999999999822,-3.539999999999787
10.402,1.67,1.42,-6.57
10.421999999999999,1.722500000000005,0.717500000000015,-8.23999999999998
10.441999999999998,1.3220000000000038,0.26200000000000173,-8.356000000000002
10.461999999999998,1.2500000000000064,0.23000000000000284,-8.300000000000006
10.482,-1.69,1.38,-7.32
10.501999999999999,-2.6299999999999644,2.439999999999923,-7.1700000000000115
10.521999999999998,-2.56000000000003,3.1699999999999644,-6.940000000000012
10.541999999999998,-2.0442857142857322,3.3807142857142805,-6.89
10.562,-1.13,3.81,-6.94
10.581999999999999,-0.5800000000000296,4.169999999999976,-6.840000000000011
10.601999999999999,-0.16000000000002962,4.489999999999976,-6.560000000000029
10.621999999999998,0.31999999999995854,4.809999999999982,-6.050000000000042
10.642,0.6775757575757562,4.916969696969698,-5.698484848484849
10.661999999999999,0.7078787878787863,4.904848484848486,-5.692424242424243
10.681999999999999,2.519999999999716,1.3500000000007817,-3.0700000000008703
10.701999999999998,3.679999999999858,-1.4699999999997513,2.319999999998721
10.721999999999998,2.5600000000002043,-0.5000000000001421,7.979999999999645
10.741999999999999,2.3975000000000035,-0.4125000000000019,8.204999999999995
10.761999999999999,-0.6499999999992362,0.20999999999991117,9.979999999999787
10.781999999999998,-4.849999999999946,-0.13999999999990526,12.799999999999935
10.801999999999998,-4.040000000000166,-2.3099999999998224,12.08000000000016
10.822,-1.5285714285714496,-3.628571428571424,8.720000000000041
10.841999999999999,-0.5132258064516146,-3.7877419354838717,5.678709677419376
10.861999999999998,-0.4938709677419369,-3.7812903225806456,5.446451612903243
10.881999999999998,-1.2099999999999467,-2.3900000000001067,5.370000000000089
10.902,-1.47,-2.14,4.17
10.921999999999999,-1.1360000000000192,-2.455999999999987,3.036000000000019
10.941999999999998,-0.17000000000011548,-2.759999999999991,3.3599999999998933
10.961999999999998,0.6199999999999704,-2.690000000000012,4.299999999999964
10.982,0.34,-2.37,4.12
11.001999999999999,-0.42999999999995264,-2.0200000000000475,4.0399999999999645
11.021999999999998,-1.0499999999999408,-0.7400000000001303,4.230000000000054
11.041999999999998,-1.6046153846153821,0.7284615384615121,2.701538461538504
11.062,-0.6500000000000977,1.7349999999999954,-0.5399999999998668
11.081999999999999,1.3899999999998578,1.6199999999999883,-2.8499999999998344
11.101999999999999,2.8499999999999233,1.6700000000000177,-5.539999999999775
11.121999999999998,3.1500000000000234,0.7100000000001065,-8.069999999999864
11.141999999999998,2.338125000000018,-0.3631249999999927,-8.71
11.161999999999999,0.4300000000004441,0.10999999999975132,-8.390000000000107
11.181999999999999,-1.4799999999998816,1.279999999999923,-7.860000000000042
11.201999999999998,-2.469999999999959,2.099999999999947,-7.480000000000024
11.221999999999998,-2.4400000000000297,2.589999999999982,-7.320000000000012
11.241999999999999,-2.4036363636363656,2.602121212121211,-7.313939393939394
11.261999999999999,-1.8300000000001422,2.6599999999999824,-7.31
11.281999999999998,-0.9200000000000237,3.2799999999999643,-7.120000000000018
11.301999999999998,-0.5366666666666983,3.5633333333333255,-6.880000000000024
11.322,-0.23,3.63,-6.78
11.341999999999999,0.07058823529411525,3.3841176470588272,-7.085882352941173
11.361999999999998,0.10588235294117443,3.3311764705882383,-7.138823529411762
11.381999999999998,2.52999999999968,-0.28999999999948484,-4.150000000001066
11.402,3.53,-0.99,3.96
11.421999999999999,2.0900000000001597,0.3399999999998875,8.5699999999998
11.441999999999998,-0.4949999999999743,1.1621428571428558,8.625000000000009
11.461999999999998,-0.7949999999999628,1.1764285714285696,8.525000000000013
11.482,-3.41,-0.39,12.06
11.501999999999999,-2.080000000000077,-2.089999999999911,12.240000000000137
11.521999999999998,-1.7321428571428523,-2.9035714285714205,8.825714285714364
11.541999999999998,-2.08249999999999,-2.9550000000000067,6.2725000000000435
11.561999999999998,-1.816666666666722,-2.6166666666666982,6.956666666666533
11.581999999999999,-1.3866666666666685,-2.3566666666666745,7.2400000000000295
11.601999999999999,-1.5039999999999916,-2.0460000000000083,5.218000000000132
11.621999999999998,-1.5257142857142956,-1.96,3.45428571428575
11.641999999999998,-1.2390000000000068,-1.8150000000000048,3.15
11.661999999999999,-0.7200000000001066,-1.4600000000000355,3.3099999999999645
11.681999999999999,0.06999999999998224,-1.4566666666666628,2.98666666666668
11.701999999999998,0.7999999999999574,-1.665999999999987,2.621999999999996
11.721999999999998,1.487142857142841,-1.3957142857143183,3.041428571428545
11.741999999999999,1.4537500000000068,-0.7287500000000107,3.181250000000005
11.761999999999999,0.6500000000000284,0.1699999999999716,2.0200000000000746
11.781999999999998,0.30500000000002664,0.5249999999999556,-0.15999999999982237
11.801999999999998,0.006666666666698247,1.1999999999999051,-1.8899999999997867
11.822,-0.25,1.88,-4.56
11.841999999999999,-0.22800000000000353,1.6100000000000119,-6.99399999999997
11.861999999999998,0.17500000000000887,0.9699999999999822,-7.77
11.881999999999998,-0.3549999999999023,1.4249999999999199,-8.094999999999938
11.902,-1.1799999999999857,2.11399999999999,-8.621999999999991
11.921999999999999,-1.6979999999999942,2.5899999999999928,-8.88
11.941999999999998,-1.8828571428571361,3.021428571428545,-8.640000000000024
11.961999999999998,-1.895000000000009,3.9699999999998936,-7.910000000000071
11.981999999999998,-1.7300000000000533,4.944999999999854,-7.38000000000008
12.001999999999999,-1.3400000000000052,5.607142857142853,-7.034285714285717
12.021999999999998,-0.8150000000000083,5.8856249999999966,-6.906250000000002
12.041999999999998,0.06999999999989343,6.349999999999946,-6.775000000000009
12.061999999999998,1.3649999999996936,6.430000000000133,-6.75500000000004
12.081999999999999,3.6333333333332187,3.4566666666669112,-5.686666666666758
12.101999999999999,5.12499999999992,-2.4099999999993607,-2.350000000000568
12.121999999999998,4.918888888888905,-4.584444444444452,2.175555555555489
12.141999999999998,2.930000000000622,-2.650000000000604,6.339999999999112
12.161999999999999,-0.8899999999998136,-0.5550000000000488,10.744999999999827
12.181999999999999,-3.6099999999998666,-0.30999999999998223,13.179999999999879
12.201999999999998,-4.924999999999991,-1.8549999999997602,14.035000000000045
12.221999999999998,-4.148947368421078,-3.413157894736835,12.391052631578992
12.241999999999999,-3.710000000000213,-3.4999999999999734,11.670000000000337
12.261999999999999,-0.6266666666666864,-3.7533333333333845,7.973333333333397
12.281999999999998,-1.1599999999998758,-2.205000000000169,6.19000000000023
12.301999999999998,-1.8333333333333433,-1.7799999999999112,4.4500000000001485
12.322,-1.296470588235296,-2.4476470588235255,3.86
12.341999999999999,-0.9000000000001954,-2.770000000000142,3.480000000000142
12.361999999999998,-0.6433333333333254,-2.6166666666666627,2.93
12.381999999999998,-1.0033333333333037,-2.5500000000000176,3.3399999999999643
12.401999999999997,-1.2999999999999912,-2.11000000000004,3.5300000000000042
12.421999999999999,-1.2928571428571483,-1.8185714285714196,3.1057142857142965
12.441999999999998,-0.6900000000000153,-2.2349999999999963,3.174999999999991
12.461999999999998,0.08,-1.376666666666785,2.8666666666667675
12.481999999999998,0.15999999999997336,0.11999999999988455,1.0600000000002132
12.501999999999999,0.64249999999998,0.6274999999999934,-0.92749999999994
12.521999999999998,1.3599999999999794,1.0116666666666425,-2.7833333333332644
12.541999999999998,1.6136842105263147,1.4594736842105172,-4.021052631578923
12.561999999999998,1.3300000000001244,2.0399999999999823,-6.5099999999995735
12.581999999999999,0.8400000000000355,1.770000000000009,-7.45
12.601999999999999,0.40444444444445365,2.07444444444443,-7.193333333333338
12.621999999999998,0.01666666666667298,2.756666666666659,-7.176666666666663
12.641999999999998,-0.11500000000001331,2.8250000000000135,-7.34
12.661999999999999,0.05999999999994671,2.7899999999999645,-7.220000000000053
12.681999999999999,0.2799999999999734,3.0099999999999643,-6.980000000000027
12.701999999999998,0.4199999999999822,3.4299999999999646,-6.800000000000018
12.721999999999998,0.6299999999999852,3.6933333333333285,-6.623333333333343
12.741999999999999,0.7969999999999993,3.73,-6.473000000000001
12.761999999999999,0.93,3.819999999999929,-6.170000000000053
12.781999999999998,0.8900000000000089,4.489999999999894,-5.900000000000027
12.801999999999998,1.1999999999998816,5.216666666666657,-5.913333333333373
12.821999999999997,2.798571428571333,3.351428571428779,-4.355714285714445
12.841999999999999,3.9259999999999877,-0.6993333333332543,-0.9386666666667396
12.861999999999998,3.510000000000142,-3.6100000000001597,5.449999999999592
12.881999999999998,1.6000000000002754,-1.120000000000302,7.989999999999849
12.901999999999997,-1.389999999999707,0.7349999999999002,8.524999999999954
12.921999999999999,-4.068181818181804,1.2377272727272732,9.509999999999991
12.941999999999998,-5.019999999999644,1.0800000000001067,10.36999999999959
12.961999999999998,-4.120000000000204,-1.7199999999997868,10.520000000000257
12.981999999999998,-2.5100000000001508,-3.06999999999992,7.850000000000275
13.001999999999999,-1.7800000000000356,-3.1000000000000534,6.460000000000062
13.021999999999998,-1.8149999999999973,-2.661000000000005,6.697999999999996
13.041999999999998,-1.9699999999998756,-2.3000000000002485,6.979999999999823
13.061999999999998,-3.3083333333332985,-0.916666666666716,4.648333333333506
13.081999999999999,-3.450000000000018,-0.9299999999999586,2.240000000000095
13.101999999999999,-3.010000000000062,-1.3999999999999644,1.9899999999999556
13.121999999999998,-2.520000000000015,-1.232857142857156,2.388571428571422
13.141999999999998,-2.124400000000009,-1.1427999999999954,2.493600000000002
13.161999999999999,-1.7800000000001777,-1.3199999999999112,2.3500000000001067
13.181999999999999,0.33999999999990527,-2.3600000000000176,2.5399999999999765
13.201999999999998,1.0599999999999823,-1.3000000000001126,2.0500000000000944
13.221999999999998,1.0942857142857072,-0.18714285714290427,0.6128571428572227
13.241999999999999,1.3499999999999976,0.2999999999999975,-0.7649999999999879
13.261999999999999,1.6599999999999822,0.9199999999999556,-3.1399999999997603
13.281999999999998,1.4400000000000415,1.1599999999999882,-5.599999999999822
13.301999999999998,0.6300000000000592,1.080000000000006,-6.859999999999976
13.321999999999997,0.01000000000003299,1.4728571428570958,-6.834285714285709
13.341999999999999,-0.2888888888888876,1.9955555555555502,-7.032222222222218
13.361999999999998,-0.15000000000001776,2.5199999999999823,-7.589999999999976
13.381999999999998,0.06999999999997336,2.649999999999982,-7.73
13.401999999999997,0.2599999999999882,2.8899999999999824,-7.700000000000006
13.421999999999999,0.3579999999999943,3.233999999999983,-7.636000000000003
13.441999999999998,0.45076923076922765,3.642307692307683,-7.6
13.461999999999998,0.7399999999999645,3.84,-7.550000000000018
13.481999999999998,0.9299999999999942,4.0499999999999705,-7.310000000000029
13.501999999999999,1.0499999999999883,4.479999999999971,-7.0000000000000115
13.521999999999998,1.115714285714288,4.797142857142848,-7.077142857142848
13.541999999999998,1.0995999999999975,4.9204000000000025,-7.396399999999998
13.561999999999998,1.299999999999858,4.520000000000319,-7.290000000000142
13.581999999999999,3.243333333333308,-3.369999999999935,0.16999999999984014
13.601999999999999,3.496666666666744,-2.6000000000002133,5.749999999999698
13.621999999999998,1.9328571428572123,-0.2542857142857578,8.09999999999997
13.641999999999998,-0.39780487804875053,-0.03365853658536119,8.519756097560972
13.661999999999999,-0.6173170731707146,-0.06780487804877781,8.544146341463414
13.681999999999999,-3.5199999999994493,-0.33999999999998226,9.859999999999449
13.701999999999998,-3.567500000000055,-1.8187499999999275,11.2200000000001
13.721999999999998,-1.4600000000000888,-3.727499999999961,8.35625000000011
13.741999999999997,-0.1633333333333414,-3.8847222222222255,6.324444444444463
13.761999999999999,-0.09666666666666947,-3.8569444444444456,6.168888888888896
13.781999999999998,-1.0599999999997514,-2.100000000000231,4.530000000000142
13.801999999999998,-1.9624999999999944,-1.3975000000000055,3.3775000000000497
13.821999999999997,-1.6171428571429043,-1.6057142857142574,2.941428571428581
13.841999999999999,-0.6857142857142952,-2.0571428571428525,3.0507142857142826
13.861999999999998,-0.5714285714285853,-2.1142857142857077,3.086428571428567
13.881999999999998,0.8000000000000214,-2.8640000000000128,3.93
13.901999999999997,0.11000000000006513,-2.3000000000000766,3.939999999999988
13.921999999999999,-0.5674999999999834,-0.91500000000006,4.307499999999983
13.941999999999998,-0.6652380952380943,-0.4409523809523872,4.450476190476189
13.961999999999998,0.17499999999988453,-0.27999999999998226,2.975000000000204
13.981999999999998,1.139999999999929,-0.3433333333333491,0.8366666666669114
14.001999999999999,1.04000000000004,0.2799999999999423,-1.8399999999998358
14.021999999999998,0.13363636363637804,1.185454545454533,-4.109090909090877
14.041999999999998,-0.7010526315789376,1.5773684210526329,-6.147368421052609
14.061999999999998,-1.0799999999999468,1.5399999999999645,-6.889999999999946
14.081999999999999,-1.3733333333333255,1.9799999999999882,-7.449999999999982
14.101999999999999,-1.6449999999999911,2.454999999999979,-8.134999999999973
14.121999999999998,-1.81,2.9999999999999702,-8.789999999999964
14.141999999999998,-1.7661904761904772,3.2752380952380906,-8.993809523809523
14.161999999999997,-1.5200000000001777,3.7799999999997866,-8.780000000000177
14.181999999999999,-0.8500000000000474,4.399999999999971,-8.320000000000023
14.201999999999998,-0.24000000000002664,4.664999999999994,-8.145000000000007
14.221999999999998,0.41428571428568817,4.572857142857155,-7.912857142857155
14.241999999999997,0.8455555555555505,4.321111111111114,-7.701111111111114
14.261999999999999,0.8844444444444426,4.29888888888889,-7.67888888888889
14.281999999999998,1.769999999999929,3.090000000000213,-7.0500000000001775
14.301999999999998,2.394999999999989,1.2387500000000693,-4.312500000000128
14.321999999999997,2.2325000000000235,-0.30499999999995336,-0.34250000000020986
14.341999999999999,1.382195121951227,-0.4297560975609783,3.789024390243881
14.361999999999998,1.2895121951219615,-0.39560975609756477,4.052439024390215
14.381999999999998,0.08000000000031976,-0.050000000000053293,7.159999999999254
14.401999999999997,-2.86799999999998,-1.6319999999998955,10.8499999999999
14.421999999999999,-2.5875000000000083,-2.9112499999999923,12.511249999999986
14.441999999999998,-2.071538461538466,-3.06,12.668461538461564
14.461999999999998,-2.186666666666651,-2.8933333333333255,9.270000000000213
14.481999999999998,-2.369999999999947,-2.52500000000012,7.4150000000002265
14.501999999999999,-2.59,-1.9933333333333403,6.563333333333346
14.521999999999998,-2.296666666666708,-1.5066666666666726,4.933333333333452
14.541999999999998,-1.6485714285714521,-1.6814285714285604,3.7714285714285984
14.561999999999998,-0.8536842105263268,-2.060263157894732,3.229736842105268
14.581999999999997,-0.7694736842105397,-2.097105263157889,3.1928947368421112
14.601999999999999,1.1699999999999289,-2.619999999999947,2.6799999999999824
14.621999999999998,1.1600000000000177,-2.6300000000000177,2.690000000000012
14.641999999999998,0.8270000000000198,-2.4830000000000085,2.6
14.661999999999997,0.42027027027027347,-2.2202702702702735,2.8770270270270215
14.681999999999999,0.39864864864864985,-2.19864864864865,2.914864864864863
14.701999999999998,-0.7999999999997691,-0.7500000000002487,1.920000000000373
14.721999999999998,-2.284999999999907,0.57499999999988,-0.6849999999997736
14.741999999999997,-2.4799999999999955,1.1499999999999466,-1.5999999999999246
14.761999999999999,-2.324651162790699,1.9306976744186017,-2.893953488372087
14.781999999999998,-2.296744186046514,1.9865116279069712,-3.0102325581395237
14.801999999999998,-0.920000000000302,2.4900000000000535,-6.089999999999556
14.821999999999997,1.0228571428571211,1.7842857142857274,-8.108571428571393
14.841999999999999,0.8671428571428637,1.8185714285714243,-8.679999999999993
14.861999999999998,0.3352631578947435,2.2031578947368375,-8.958684210526314
14.881999999999998,0.2721052631579002,2.245263157894733,-8.974473684210524
14.901999999999997,-1.2199999999999644,3.5699999999998755,-8.68000000000007
14.921999999999999,-0.9100000000000354,3.85,-8.505000000000004
14.941999999999998,-0.33285714285716606,3.681428571428583,-8.432857142857145
14.961999999999998,0.10138888888888418,3.4477777777777803,-8.32388888888889
14.981999999999998,0.14027777777777267,3.4255555555555586,-8.31277777777778
15.001999999999997,0.7499999999999764,3.0266666666666984,-7.500000000000047
15.021999999999998,1.3799999999999526,2.3733333333333726,-6.470000000000083
15.041999999999998,2.209999999999967,1.1700000000000734,-4.40000000000011
15.061999999999998,2.6694285714285693,-0.6474285714285486,-1.667142857142898
15.081999999999997,2.6865714285714257,-0.8245714285714012,-1.3528571428571916
15.101999999999999,0.41000000000011105,0.1349999999999667,6.8749999999997895
15.121999999999998,-1.1799999999998816,0.45999999999998226,9.829999999999782
15.141999999999998,-2.31142857142852,0.4971428571428771,12.049999999999889
15.161999999999997,-2.782941176470585,-0.1982352941176324,13.195294117647048
15.181999999999999,-2.806470588235292,-0.30411764705881383,13.277647058823522
15.201999999999998,-1.9300000000000532,-2.0299999999999585,10.610000000000106
15.221999999999998,-0.6700000000001864,-2.25500000000004,9.125000000000279
15.241999999999997,-0.17428571428572734,-1.975714285714303,7.925714285714364
15.261999999999999,-0.1372727272727266,-1.6609090909090936,7.104545454545461
15.281999999999998,-0.14939393939393864,-1.6124242424242454,6.995454545454552
15.301999999999998,0.047999999999946,-1.5200000000000142,3.4920000000000537
15.321999999999997,1.3999999999999333,-1.7099999999999733,2.2900000000000533
15.341999999999999,1.9372413793103413,-1.84,1.9196551724137951
15.361999999999998,1.9899999999999645,-1.8300000000000178,1.8800000000000354
15.381999999999998,0.6200000000000799,-0.9399999999999555,1.8500000000000267
15.401999999999997,-0.20666666666656797,-1.2533333333333136,1.7066666666666568
15.421999999999997,-0.799999999999929,-1.0300000000000593,1.8499999999999883
15.441999999999998,-1.2514285714285605,-0.6285714285714394,1.4271428571428788
15.461999999999998,-1.6817391304347753,-0.24826086956522464,0.48608695652175543
15.481999999999998,-2.299999999999973,0.6449999999999068,-1.3349999999998268
15.501999999999997,-2.1233333333334024,1.5666666666665385,-2.7133333333331358
15.521999999999998,-1.3400000000001067,2.3399999999999643,-4.709999999999787
15.541999999999998,-0.6500000000000254,2.37,-5.849999999999959
15.561999999999998,-0.21517241379310978,2.3941379310344817,-6.360689655172409
15.581999999999997,-0.08000000000017764,2.429999999999929,-6.479999999999858
15.601999999999999,0.20500000000000224,2.9499999999999913,-7.4749999999999845
15.621999999999998,-0.009999999999973353,3.449999999999938,-8.26999999999991
15.641999999999998,-0.30999999999992894,4.0199999999998575,-8.71999999999993
15.661999999999997,-0.41578947368420727,4.341052631578933,-8.823684210526311
15.681999999999999,-0.23000000000004442,5.389999999999955,-8.650000000000045
15.701999999999998,0.31333333333330177,5.390000000000012,-8.216666666666686
15.721999999999998,0.9899999999999526,4.9600000000000355,-7.820000000000024
15.741999999999997,1.6499999999996446,4.430000000000355,-7.310000000000319
15.761999999999999,1.8809090909090882,4.150909090909095,-7.035454545454549
15.781999999999998,2.10999999999984,3.8000000000002663,-6.720000000000231
15.801999999999998,3.130000000000021,-2.219999999999883,-1.5200000000001563
15.821999999999997,2.0650000000000777,-2.1837500000000896,1.9887499999998564
15.841999999999997,0.9733333333333606,-1.2500000000000107,3.7966666666666216
15.861999999999998,0.8200000000000136,-1.1900000000000053,4.049999999999978
15.881999999999998,-2.0699999999999465,-1.256666666666643,11.479999999999858
15.901999999999997,-2.326666666666674,-2.239999999999917,12.203333333333337
15.921999999999997,-1.8633333333333728,-3.353333333333284,10.680000000000296
15.941999999999998,-1.7783333333333313,-3.591666666666657,8.62666666666671
15.961999999999998,-1.7055555555555568,-3.717777777777784,7.963333333333341
15.981999999999998,-2.2366666666665975,-2.393333333333432,6.560000000000177
16.001999999999995,-2.6099999999999786,-1.9500000000000142,5.150000000000128
16.022,-2.37,-2.23,4.19
16.041999999999994,-1.4386666666667267,-2.6566666666666507,3.9240000000000097
16.061999999999998,0.4599999999998224,-3.169999999999929,3.3700000000000947
16.081999999999997,1.1899999999999407,-3.529999999999988,3.1099999999999763
16.101999999999997,1.4499999999999644,-3.0200000000004263,3.5999999999998935
16.121999999999996,1.2000000000002486,-1.8100000000004974,2.570000000000888
16.141999999999996,0.4400000000003553,-1.1900000000002486,-0.009999999998898668
16.161999999999995,0.09666666666668103,-0.8666666666666853,-0.9199999999999698
16.181999999999995,0.036060606060624,-0.7878787878788113,-1.0472727272726896
16.201999999999995,-0.2800000000000474,1.8799999999997394,-4.199999999999456
16.221999999999998,-0.05500000000002665,2.574999999999938,-5.904999999999795
16.241999999999997,0.23666666666665087,3.003333333333302,-7.616666666666556
16.261999999999997,0.23333333333334913,3.4233333333332783,-8.539999999999928
16.281999999999996,0.1563157894736913,3.617368421052617,-8.765789473684194
16.301999999999996,-0.6099999999999408,4.679999999999905,-9.100000000000023
16.321999999999996,-0.7800000000000178,5.429999999999822,-8.85000000000007
16.341999999999995,-0.48666666666680486,6.143333333333195,-8.600000000000058
16.361999999999995,0.21666666666644954,6.326666666666745,-8.206666666666806
16.381999999999994,0.5029411764705543,6.1841176470588435,-8.014705882352963
16.401999999999997,2.319999999999822,4.350000000000237,-6.410000000000154
16.421999999999997,3.379999999999846,2.180000000000403,-5.380000000000189
16.441999999999997,4.329999999999574,-1.1499999999980104,-3.50000000000135
16.461999999999996,4.677083333333325,-3.472083333333265,-1.32750000000009
16.481999999999996,3.310000000000332,-3.0100000000003786,4.719999999999597
16.501999999999995,0.4300000000004885,-0.740000000000222,6.589999999999778
16.521999999999995,-3.07999999999955,-0.060000000000035525,8.369999999999703
16.541999999999994,-5.159999999999645,-0.17999999999985788,10.919999999999124
16.561999999999998,-4.783333333333491,-1.2433333333332306,13.68666666666658
16.581999999999997,-4.451052631578962,-1.4626315789473587,13.76
16.601999999999997,-1.720000000000225,-3.0699999999997987,7.950000000000533
16.621999999999996,-0.08000000000024868,-4.429999999999893,5.790000000000213
16.641999999999996,1.0966666666666036,-4.306666666666722,5.043333333333349
16.661999999999995,1.2900000000001066,-3.630000000000213,4.820000000000107
16.681999999999995,1.2360714285714363,-3.5289285714285854,4.7796428571428615
16.701999999999995,0.3200000000001184,-2.540000000000142,4.060000000000166
16.721999999999994,-0.04999999999994079,-2.1166666666667453,3.4700000000001188
16.741999999999997,-0.07666666666667457,-1.9566666666666745,3.0700000000000474
16.761999999999997,-0.018695652173914522,-1.934347826086957,2.8660869565217433
16.781999999999996,0.2633333333333254,-1.8933333333333728,2.516666666666698
16.801999999999996,-0.18999999999989342,-1.32000000000008,1.4800000000001954
16.821999999999996,-1.5699999999997039,-0.35333333333360967,-0.5366666666662719
16.841999999999995,-2.5066666666665087,0.9199999999997039,-1.976666666666331
16.861999999999995,-2.85,1.9499999999997335,-3.4949999999993873
16.881999999999994,-2.835555555555557,2.144444444444428,-3.9599999999999556
16.901999999999997,-2.830000000000001,2.1999999999999904,-4.109999999999974
16.921999999999997,-1.2300000000001066,2.8800000000000234,-7.949999999999953
16.941999999999997,-0.6900000000000237,2.716666666666675,-8.08666666666665
16.961999999999996,-0.6499999999999645,2.784999999999947,-8.409999999999894
16.981999999999996,-0.7139999999999925,2.8619999999999903,-8.565999999999983
17.001999999999995,-1.2099999999999644,3.6499999999999053,-8.97
17.021999999999995,-1.2466666666666864,4.586666666666391,-8.586666666666805
17.041999999999994,-1.1066666666667457,5.306666666666568,-7.926666666666805
17.061999999999998,-0.24500000000011546,5.385000000000009,-7.270000000000071
17.081999999999997,0.03303030303029371,5.36,-7.1112121212121275
17.101999999999997,0.5099999999995382,5.310000000000071,-6.850000000000248
17.121999999999996,3.2149999999998755,1.785000000000764,-4.820000000000498
17.141999999999996,2.736666666666793,-2.123333333332994,-1.3766666666671246
17.161999999999995,1.2650000000005597,-2.6350000000007725,3.6699999999984545
17.181999999999995,0.7463157894737317,-1.8300000000000785,4.964736842105151
17.201999999999995,-2.644999999999547,0.6500000000004262,9.434999999999441
17.221999999999994,-3.2120000000000455,-1.4039999999996362,11.253999999999692
17.241999999999997,-2.1500000000001602,-3.214999999999956,12.914999999999939
17.261999999999997,-1.0150000000001955,-2.8600000000001065,12.355000000000373
17.281999999999996,-0.8084615384615532,-2.739230769230777,11.805384615384659
17.301999999999996,0.009999999999893417,-2.5300000000001064,7.3900000000011365
17.321999999999996,-0.05499999999992007,-1.8050000000001867,5.2750000000004
17.341999999999995,-0.36499999999986676,-1.5250000000000798,4.350000000000266
17.361999999999995,-0.8233333333332544,-1.1633333333333964,3.8766666666666985
17.381999999999994,-0.9134482758620635,-1.0765517241379368,3.86
17.401999999999997,-0.7700000000003198,-0.9499999999998578,4.219999999999893
17.421999999999997,0.7799999999998757,-2.1199999999998935,4.145000000000044
17.441999999999997,1.3,-2.4600000000001065,3.570000000000355
17.461999999999996,0.9589473684210774,-2.0189473684210775,3.0963157894737035
17.481999999999996,-1.3499999999996448,0.42666666666627195,0.8166666666673378
17.501999999999995,-2.2966666666666273,1.6433333333331952,-2.3266666666659757
17.521999999999995,-1.8500000000001422,1.7400000000000118,-4.399999999999752
17.541999999999994,-1.0766666666667457,2.1566666666665086,-6.056666666666366
17.561999999999994,-0.7566666666667456,2.6866666666666035,-7.526666666666414
17.581999999999997,-0.6018181818181906,2.779090909090905,-8.001818181818159
17.601999999999997,0.7099999999997513,2.705000000000089,-9.184999999999945
17.621999999999996,1.4066666666666507,2.3766666666666985,-9.509999999999906
17.641999999999996,0.9800000000001421,2.23,-9.776666666666697
17.661999999999995,-0.03999999999978684,2.59499999999988,-9.30500000000012
17.681999999999995,-0.3824999999999534,2.8399999999999626,-9.102500000000028
17.701999999999995,-1.2450000000001866,4.939999999999734,-7.5350000000004
17.721999999999994,-0.10000000000033157,5.250000000000047,-6.310000000000237
17.741999999999997,1.6099999999991474,4.490000000000569,-5.160000000000533
17.761999999999997,2.406249999999971,3.8525000000000262,-4.6731250000000175
17.781999999999996,2.749999999999609,3.530000000000373,-4.480000000000214
17.801999999999996,3.8750000000003375,-1.3849999999997336,-1.7600000000004261
17.821999999999996,1.4300000000012079,-1.4300000000004973,0.47999999999904075
17.841999999999995,-1.3599999999994317,0.18666666666636667,2.4099999999996213
17.861999999999995,-3.7899999999996448,0.750000000000071,5.149999999999308
17.881999999999994,-3.886969696969674,0.7196969696969768,5.39848484848479
17.901999999999997,-4.330000000000107,-0.1699999999994671,9.019999999998543
17.921999999999997,-2.8112500000000282,-3.2837499999999515,11.561250000000003
17.941999999999997,-1.340000000000089,-4.6800000000000885,10.120000000000372
17.961999999999996,-1.3181481481481447,-4.242962962962988,9.332222222222263
17.981999999999996,-1.4299999999999644,-3.7100000000003197,8.450000000000497
18.001999999999995,-1.6719999999999602,-3.0400000000000498,6.678000000000139
18.021999999999995,-1.9766666666666508,-2.5500000000000473,5.700000000000094
18.041999999999994,-1.5600000000002843,-2.48,5.410000000000107
18.061999999999994,-1.3010714285714515,-2.505357142857141,5.303214285714296
18.081999999999997,0.08999999999943156,-2.769999999999858,4.720000000000177
18.101999999999997,1.4799999999998579,-3.06,4.225000000000124
18.121999999999996,1.7100000000000355,-2.62000000000016,3.4600000000001954
18.141999999999996,1.1300000000001895,-1.6200000000002368,2.3166666666669826
18.161999999999995,-0.13999999999939605,-0.39000000000046187,0.4100000000007816
18.181999999999995,-0.38242424242421946,-0.19818181818183542,0.07181818181821195
18.201999999999995,-1.1099999999992896,0.41999999999928944,-0.7699999999992895
18.221999999999994,-2.0599999999998935,2.2149999999997068,-3.6399999999992008
18.241999999999997,-2.020000000000089,2.899999999999929,-5.809999999999698
18.261999999999997,-1.160000000000213,3.03,-6.379999999999929
18.281999999999996,-0.9917073170731789,3.03,-6.427560975609754
18.301999999999996,-0.9380487804878147,3.03,-6.447073170731704
18.321999999999996,0.040000000000011846,3.5799999999999645,-8.079999999999917
18.341999999999995,-0.029999999999964472,3.7699999999998934,-8.339999999999964
18.361999999999995,-0.05652173913043203,3.9326086956521604,-8.33
18.381999999999994,0.013333333333301754,4.733333333333254,-7.6900000000001425
18.401999999999994,0.28999999999971576,4.94,-6.850000000000781
18.421999999999997,0.7699999999998757,4.840000000000035,-5.9000000000002135
18.441999999999997,1.4799999999997868,4.390000000000195,-5.090000000000142
18.461999999999996,2.7899999999996625,2.670000000000604,-3.9100000000004265
18.481999999999996,3.119090909090874,1.9300000000000905,-3.3945454545455163
18.501999999999995,3.3900000000002133,-2.280000000000071,2.789999999999183
18.521999999999995,1.6800000000004796,-1.1500000000002841,6.009999999999289
18.541999999999994,-0.20499999999970692,-0.39500000000007995,9.594999999999335
18.561999999999994,-1.7699999999995975,-0.29999999999990523,13.009999999999383
18.581999999999997,-2.1771428571428317,-0.4571428571428436,13.4342857142857
18.601999999999997,-3.8766666666666034,-1.2566666666665087,11.976666666666983
18.621999999999996,-2.980000000000888,-2.4399999999994315,10.40000000000064
18.641999999999996,-0.6800000000002843,-3.0499999999999408,8.110000000000403
18.661999999999995,0.6499999999998698,-3.3199999999999763,5.80000000000026
18.681999999999995,0.8099999999999852,-3.33,5.4900000000000295
18.701999999999995,1.0200000000003553,-2.6500000000007815,4.660000000000569
18.721999999999994,0.40000000000016583,-1.8900000000001893,3.900000000000213
18.741999999999997,0.12000000000001776,-1.410000000000071,3.300000000000124
18.761999999999997,0.32999999999995266,-1.3999999999999644,2.860000000000059
18.781999999999996,0.45999999999999147,-1.5039999999999931,2.71400000000001
18.801999999999996,0.86,-1.760000000000071,1.7200000000002842
18.821999999999996,0.7033333333333964,-1.5133333333333965,1.2266666666667456
18.841999999999995,0.15333333333349125,-0.9900000000001421,0.5766666666668404
18.861999999999995,-0.949999999999704,0.0033333333330767476,-0.5199999999997039
18.881999999999994,-1.1579999999999675,0.18359999999997192,-0.7207999999999698
18.901999999999994,-2.4599999999999524,1.7699999999997396,-2.6999999999995974
18.921999999999997,-2.460000000000012,2.5999999999999646,-4.363333333333235
18.941999999999997,-1.9900000000000828,2.7400000000000593,-6.189999999999823
18.961999999999996,-1.3833333333333728,2.2066666666666985,-6.630000000000024
18.981999999999996,-1.320000000000006,2.157500000000004,-6.580000000000006
19.001999999999995,-1.2899999999999645,2.8199999999999408,-6.929999999999869
19.021999999999995,-1.5266666666666273,3.0999999999999406,-7.866666666666509
19.041999999999994,-1.6399999999999526,3.3599999999999053,-8.29999999999993
19.061999999999994,-1.5900000000001422,3.7299999999995737,-8.290000000000141
19.081999999999997,-1.555000000000003,3.834999999999993,-8.270000000000001
19.101999999999997,-1.5100000000000533,3.9399999999998756,-8.250000000000018
19.121999999999996,0.009999999999786832,4.430000000000053,-7.690000000000107
19.141999999999996,0.8699999999999053,3.91833333333342,-7.161666666666722
19.161999999999995,2.0199999999996803,2.460000000000533,-6.375000000000346
19.181999999999995,2.268571428571409,2.0342857142857502,-6.0842857142857385
19.201999999999995,3.379999999999929,-1.239999999999254,-2.0000000000016342
19.221999999999994,2.480000000000521,-2.7399999999996925,2.259999999998626
19.241999999999994,0.6500000000016343,-1.140000000002629,6.389999999996802
19.261999999999997,-1.2974999999998733,0.38500000000004,9.27749999999982
19.281999999999996,-1.5441935483870757,0.2906451612903326,9.622580645161262
19.301999999999996,-2.6800000000000357,-1.0299999999996092,11.559999999999716
19.321999999999996,-1.590000000000296,-2.3866666666665086,11.860000000000179
19.341999999999995,-0.5233333333335505,-2.8566666666666274,10.556666666667102
19.361999999999995,0.14096774193547823,-2.618064516129044,8.30935483870974
19.381999999999994,0.16032258064515598,-2.5793548387096883,8.096451612903284
19.401999999999994,0.29999999999995264,-2.1200000000000947,5.390000000000095
19.421999999999997,0.5299999999999823,-1.5550000000000623,4.94500000000008
19.441999999999997,0.8133333333332781,-1.143333333333349,3.820000000000142
19.461999999999996,1.6624999999998868,-1.3399999999999468,2.4825000000001
19.481999999999996,1.8664999999999832,-1.4382499999999916,2.314750000000012
19.501999999999995,1.9564999999999833,-1.4832499999999915,2.249750000000012
19.521999999999995,4.939999999999929,-3.160000000000071,0.5700000000001065
19.541999999999994,3.9250000000005594,-2.2250000000003993,0.5949999999999733
19.561999999999994,1.4400000000010125,-0.9500000000004263,0.4000000000001599
19.581999999999997,0.936086956521762,-0.7378260869565314,0.3204347826086993
19.601999999999997,-3.6799999999997155,0.5799999999999644,-1.1849999999998757
19.621999999999996,-4.214999999999982,0.8399999999999289,-1.6849999999998757
19.641999999999996,-4.150000000000071,1.099999999999858,-2.179999999999645
19.661999999999995,-4.103846153846156,1.276923076923065,-2.6323076923076623
19.681999999999995,-4.195000000000027,2.34499999999976,-4.659999999999734
19.701999999999995,-3.9500000000002133,3.059999999999645,-5.109999999999929
19.721999999999994,-3.3033333333334913,3.8266666666665086,-5.309999999999941
19.741999999999994,-2.6550000000001868,4.404999999999814,-5.699999999999893
19.761999999999997,-2.090000000000053,4.969999999999947,-5.9499999999999735
19.781999999999996,-1.8908695652174048,5.1791304347825955,-6.074347826086947
19.801999999999996,-0.7600000000001302,6.129999999999953,-6.639999999999976
19.821999999999996,0.3549999999996003,6.39,-6.3750000000001865
19.841999999999995,1.5099999999998106,6.080000000000095,-5.850000000000082
19.861999999999995,2.839999999999627,5.2050000000003465,-5.245000000000187
19.881999999999994,3.1390476190475822,4.920952380952417,-5.094285714285731
19.901999999999994,4.53999999999984,2.665000000000666,-4.560000000000213
19.921999999999997,4.560000000000054,0.15000000000031977,-3.210000000000213
19.941999999999997,3.615000000000302,-1.5649999999999469,-0.9250000000005507
19.961999999999996,2.3500000000001195,-1.078750000000065,0.8424999999998701
19.981999999999996,1.3375000000000385,-0.6625000000000089,1.8562499999999629
20.001999999999995,-1.739999999999254,-1.1299999999998223,5.069999999999041
20.021999999999995,-3.2499999999997335,-1.4699999999998934,7.579999999999414
20.041999999999994,-3.6249999999999734,-2.1199999999996804,8.944999999999707
20.061999999999994,-3.4727272727272913,-3.250909090909011,9.534545454545416
20.081999999999994,-3.0500000000001894,-4.049999999999858,9.859999999999976
20.101999999999997,-2.883809523809542,-4.099047619047615,9.840476190476192
20.121999999999996,-1.6350000000001244,-2.7000000000000357,7.055000000000408
20.141999999999996,-0.9033333333334912,-3.033333333333254,5.513333333333586
20.161999999999995,-0.21000000000007105,-3.250000000000009,4.580000000000098
20.181999999999995,0.34266666666666035,-2.7553333333333443,3.632000000000019
20.201999999999995,0.36933333333332546,-2.7086666666666805,3.5520000000000236
20.221999999999994,0.7099999999999467,-2.5049999999999732,2.3950000000000267
20.241999999999994,0.8599999999999526,-2.709999999999953,2.5666666666666034
20.261999999999997,1.0466666666666509,-2.6866666666666985,2.73
20.281999999999996,1.05,-2.658076923076929,2.7226923076923097
20.301999999999996,0.6300000000000711,-2.3550000000000177,2.424999999999982
20.321999999999996,0.37000000000004735,-2.006666666666793,2.4700000000000473
20.341999999999995,-0.0699999999998579,-1.1466666666668404,1.7666666666668878
20.361999999999995,-0.9166666666665088,-0.1600000000001895,0.2833333333336333
20.381999999999994,-1.0899999999997867,0.03999999999973354,-0.06499999999949374
20.401999999999994,-1.8549999999998668,1.6249999999997602,-2.869999999999414
20.421999999999997,-2.2199999999999647,2.3249999999999202,-4.2899999999998935
20.441999999999997,-2.2966666666666984,2.8966666666666034,-4.706666666666651
20.461999999999996,-1.8400000000001244,3.219999999999929,-4.789999999999947
20.481999999999996,-1.4700000000002842,3.369999999999929,-5.039999999999787
20.501999999999995,-0.5700000000003197,3.4799999999999645,-5.799999999999716
20.521999999999995,0.11999999999985789,3.4400000000000177,-6.359999999999876
20.541999999999994,0.6599999999998224,3.3399999999999643,-6.809999999999822
20.561999999999994,0.8399999999999644,3.549999999999822,-7.109999999999929
20.581999999999994,0.8486956521739099,3.619565217391279,-7.12739130434782
20.601999999999997,0.9285714285714112,4.6,-6.941428571428589
20.621999999999996,1.439999999999929,4.420000000000018,-6.670000000000027
20.641999999999996,2.009999999999905,4.180000000000048,-6.04666666666684
20.661999999999995,2.506666666666556,3.776666666666793,-5.256666666666793
20.681999999999995,2.8618181818181774,2.839090909090935,-4.776363636363645
20.701999999999995,2.8799999999999946,2.7300000000000324,-4.740000000000011
20.721999999999994,2.84000000000008,-2.2849999999996404,0.2849999999992673
20.741999999999994,2.003333333333586,-2.490000000000237,4.193333333332734
20.761999999999997,0.2580000000002387,-1.1360000000001365,6.195999999999881
20.781999999999996,-2.079999999999955,-0.2880000000000045,6.927999999999982
20.801999999999996,-2.279999999999967,-0.26800000000000335,7.007999999999987
20.821999999999996,-3.826666666666793,-1.3033333333332544,10.476666666666413
20.841999999999995,-2.8400000000002663,-1.7899999999998757,10.600000000000195
20.861999999999995,-1.4800000000002131,-2.3799999999999524,9.080000000000297
20.881999999999994,-1.2067857142857474,-2.4060714285714266,8.640000000000054
20.901999999999994,0.6999999999996802,-2.3999999999999644,4.840000000000817
20.921999999999997,1.0566666666666609,-2.5066666666666606,3.5933333333333746
20.941999999999997,1.1799999999999822,-2.520000000000018,2.760000000000124
20.961999999999996,1.132000000000017,-2.43,2.422000000000017
20.981999999999996,0.9067567567567604,-2.45,2.37
21.001999999999995,0.8851351351351386,-2.45,2.37
21.021999999999995,0.5800000000001421,-2.3600000000001065,2.2800000000001064
21.041999999999994,0.09666666666669824,-2.11,2.0566666666666507
21.061999999999994,-0.05799999999998011,-1.95200000000002,1.91800000000003
21.081999999999994,-0.5426923076922919,-1.6288461538461605,1.103461538461577
21.101999999999997,-0.5965384615384546,-1.6057692307692337,0.9726923076923246
21.121999999999996,-2.3999999999998343,-0.46000000000017766,-2.039999999999799
21.141999999999996,-3.409999999999858,0.9099999999998105,-3.3599999999997747
21.161999999999995,-4.239999999999858,2.119999999999716,-4.979999999999627
21.181999999999995,-4.559142857142858,3.2128571428571284,-6.138571428571419
21.201999999999995,-4.553428571428572,3.2985714285714116,-6.195714285714275
21.221999999999994,-2.6600000000014212,4.3600000000002135,-6.140000000000071
21.241999999999994,-1.0500000000004737,3.8800000000001655,-6.149999999999976
21.261999999999997,0.1899999999998579,3.320000000000071,-6.329999999999976
21.281999999999996,0.7542857142857096,3.0189285714285727,-6.36
21.301999999999996,0.7828571428571389,3.011785714285715,-6.36
21.321999999999996,0.8599999999999881,3.599999999999941,-6.040000000000036
21.341999999999995,1.0199999999999527,3.8,-5.640000000000071
21.361999999999995,1.3799999999999406,3.6000000000000476,-5.250000000000047
21.381999999999994,1.4276190476190362,3.5523809523809633,-5.211904761904771
21.401999999999994,2.3199999999997867,2.5100000000002365,-4.360000000000166
21.421999999999993,3.029999999999834,1.1500000000005683,-3.2800000000004497
21.441999999999997,3.050000000000124,-1.4099999999993782,-1.2000000000005329
21.461999999999996,2.0000000000001896,-3.129999999999917,1.4799999999995974
21.481999999999996,0.5700000000002131,-2.430000000000178,4.039999999999621
21.501999999999995,-0.7424999999998267,-1.27750000000012,6.887499999999534
21.521999999999995,-1.5599999999999052,-1.0999999999999408,9.309999999999704
21.541999999999994,-1.8999999999999289,-2.0399999999994316,10.499999999999751
21.561999999999994,-1.7950000000000332,-3.0624999999999503,10.793749999999992
21.581999999999994,-1.4357142857142955,-2.9014285714285912,10.225000000000035
21.601999999999997,-1.407142857142861,-2.8442857142857223,10.125000000000014
21.621999999999996,-1.3899999999999761,-1.4500000000000117,7.450000000000189
21.641999999999996,-1.344285714285729,-1.7814285714285425,6.444285714285754
21.661999999999995,-0.9600000000000474,-2.2399999999999767,5.420000000000189
21.681999999999995,-0.8913043478260853,-2.064782608695659,4.231739130434806
21.701999999999995,-0.8999999999999969,-2.0300000000000122,4.110000000000044
21.721999999999994,-1.0666666666666864,-2.0499999999999408,3.8499999999998225
21.741999999999994,-0.9200000000000711,-2.26,4.499999999999834
21.761999999999997,-0.7300000000000236,-2.25,4.729999999999989
21.781999999999996,-0.64,-2.1688000000000014,4.306800000000015
21.801999999999996,-0.64,-2.160800000000001,4.218800000000011
21.821999999999996,-1.7466666666663904,-1.2066666666669232,0.7500000000004144
21.841999999999995,-2.6399999999998403,-0.1100000000002842,-0.519999999999698
21.861999999999995,-3.569999999999822,1.3199999999997631,-2.2599999999997156
21.881999999999994,-4.488181818181793,2.8963636363635863,-3.6454545454545104
21.901999999999994,-4.719999999999573,3.459999999998579,-3.9699999999993607
21.921999999999993,-3.5866666666670417,5.593333333333195,-4.103333333333313
21.941999999999997,-1.830000000000296,5.839999999999988,-4.419999999999905
21.961999999999996,0.29333333333313594,5.610000000000047,-5.1866666666666035
21.981999999999996,0.608965517241356,5.532758620689661,-5.2958620689655085
22.001999999999995,2.6499999999995025,4.820000000000178,-6.079999999999787
22.021999999999995,3.536666666666627,4.73,-6.723333333333255
22.041999999999994,3.59,4.75,-6.979999999999941
22.061999999999994,3.4820000000000384,4.718000000000026,-7.1459999999999875
22.081999999999994,3.3000000000000473,4.410000000000142,-7.18
22.101999999999997,3.2851851851851883,4.372962962962972,-7.172592592592594
22.121999999999996,4.029999999999834,2.6800000000003434,-5.530000000000427
22.141999999999996,4.841999999999994,-1.7459999999996136,-1.1080000000003751
22.161999999999995,3.573333333333965,-4.7100000000000595,3.2233333333327217
22.181999999999995,0.5855555555556695,-3.0877777777778617,4.21148148148148
22.201999999999995,0.1633333333334167,-2.776666666666728,4.218888888888888
22.221999999999994,-6.6949999999997605,2.0850000000002398,6.544999999999174
22.241999999999994,-5.965000000000666,0.05000000000095925,9.164999999999228
22.261999999999993,-3.4082352941177745,-2.384705882352855,10.29705882352943
22.281999999999996,-0.5800000000004975,-3.904999999999805,8.735000000000479
22.301999999999996,1.3349999999996625,-4.395000000000017,6.760000000000391
22.321999999999996,2.2599999999999407,-3.816666666666805,5.316666666666834
22.341999999999995,2.0500000000002663,-2.5900000000002663,4.125000000000293
22.361999999999995,1.26000000000008,-1.9200000000000665,3.5000000000000533
22.381999999999994,0.3145161290322798,-1.1696774193548531,2.9622580645161403
22.401999999999994,0.23709677419356878,-1.118064516129046,2.9235483870967847
22.421999999999993,-0.7133333333333728,-0.38,2.41
22.441999999999997,-0.29000000000014214,-0.7649999999998757,2.3800000000000354
22.461999999999996,0.22999999999995557,-1.28874999999995,2.232500000000011
22.481999999999996,0.5511999999999859,-1.6011999999999857,2.1572000000000036
22.501999999999995,1.0833333333333728,-2.14,1.6966666666667456
22.521999999999995,0.7500000000001185,-1.923333333333432,1.4433333333333727
22.541999999999994,0.16400000000011938,-1.1880000000001392,0.7660000000001791
22.561999999999994,-1.1155555555554715,-0.0933333333333965,-0.9399999999999052
22.581999999999994,-2.1977777777777514,0.888888888888861,-2.118888888888861
22.601999999999997,-2.2866666666666506,0.9833333333333166,-2.2133333333333165
22.621999999999996,-3.8399999999997867,3.4499999999994317,-4.249999999999503
22.641999999999996,-3.6166666666667453,4.993333333333254,-4.943333333333349
22.661999999999995,-2.660000000000149,5.59199999999996,-4.71400000000007
22.681999999999995,-1.4638461538462137,5.528461538461566,-4.838461538461515
22.701999999999995,-0.4100000000001421,4.840000000000095,-5.9733333333331595
22.721999999999994,0.2799999999997336,4.585000000000027,-6.105000000000134
22.741999999999994,1.069999999999858,4.799999999999953,-5.300000000000142
22.761999999999993,1.689999999999929,4.883333333333357,-4.4633333333334635
22.781999999999996,2.0347999999999966,4.490400000000006,-4.02
22.801999999999996,2.0587999999999944,4.442400000000012,-4.02
22.821999999999996,2.0800000000000534,2.8700000000001595,-4.605000000000027
22.841999999999995,1.8133333333333965,2.563333333333349,-4.1900000000000945
22.861999999999995,1.6080000000000256,2.2720000000000597,-3.512000000000102
22.881999999999994,1.3160000000000682,1.5320000000001364,-2.6200000000001706
22.901999999999994,0.3700000000002368,0.9899999999999526,-0.8233333333336333
22.921999999999993,-1.0933333333329385,1.743333333333057,1.0799999999995855
22.941999999999997,-2.724999999999627,2.774999999999769,2.524999999999769
22.961999999999996,-4.238571428571331,3.7357142857142334,2.735714285714274
22.981999999999996,-5.151052631578919,4.102105263157892,2.5594736842105403
23.001999999999995,-5.576666666666698,4.423333333333255,2.4566666666667456
23.021999999999995,-5.235000000000093,4.36500000000012,2.2350000000000403
23.041999999999994,-4.576666666666793,3.2566666666668875,2.3799999999999053
23.061999999999994,-3.9200000000000994,2.4740000000000695,2.2640000000000198
23.081999999999994,-3.1421428571428853,2.206428571428577,1.7739285714285968
23.101999999999993,-3.070714285714312,2.1921428571428625,1.7096428571428808
23.121999999999996,-2.16,1.1700000000000472,1.17
23.141999999999996,-2.076666666666698,1.3333333333332544,1.0366666666666984
23.161999999999995,-1.7500000000000473,1.6433333333333253,0.9033333333333728
23.181999999999995,-1.2326923076923233,1.490384615384624,0.8023076923076993
23.201999999999995,-1.163461538461555,1.451923076923086,0.771538461538469
23.221999999999994,0.49999999999978684,0.22500000000013323,0.5050000000000266
23.241999999999994,0.9799999999998579,-0.12999999999996448,0.5699999999998934
23.261999999999993,1.2399999999999172,-0.08666666666663903,0.523333333333361
23.281999999999996,1.4213888888888877,-0.08416666666666313,0.5341666666666631
23.301999999999996,1.4269444444444435,-0.10083333333333046,0.5508333333333305
23.321999999999996,1.2050000000000798,0.17499999999992005,0.8300000000000533
23.341999999999995,0.9700000000000284,0.3799999999999858,0.7200000000000071
23.361999999999995,0.7733333333333492,0.19666666666674562,0.8299999999999527
23.381999999999994,0.5944444444444497,0.018611111111112428,0.9727777777777751
23.401999999999994,0.5722222222222288,0.013055555555557201,0.9838888888888856
23.421999999999993,-0.14999999999978683,0.18999999999978684,0.6100000000002131
23.441999999999997,-0.24,0.4149999999999822,0.6249999999999822
23.461999999999996,-0.24,0.5799999999999526,0.8899999999999526
23.481999999999996,-0.18,0.7817241379310329,1.1886206896551645
23.501999999999995,-0.18,0.7886206896551707,1.2231034482758536
23.521999999999995,-0.13,1.0800000000000178,1.7899999999999645
23.541999999999994,-0.21333333333330176,0.98,1.9166666666666508
23.561999999999994,-0.26,1.0299999999998934,1.9899999999999645
23.581999999999994,-0.188750000000002,1.2849999999999921,2.0524999999999958
23.601999999999993,-0.183750000000002,1.3049999999999922,2.062499999999996
23.621999999999996,-0.22999999999996448,1.6099999999998935,2.1999999999998936
23.641999999999996,-1.0899999999999646,1.0900000000000178,3.399999999999929
23.661999999999995,-1.1799999999999733,0.7350000000000666,3.5449999999999866
23.681999999999995,-1.3262499999999817,0.668749999999994,3.57
23.701999999999995,-1.5695999999999939,1.0451999999999775,3.38400000000001
23.721999999999994,-1.6699999999999289,1.7799999999989342,3.2200000000000712
23.741999999999994,-1.999999999999858,2.550000000000213,3.3499999999999646
23.761999999999993,-2.329999999999917,1.8166666666668878,3.353333333333361
23.781999999999996,-2.4636585365853625,1.3465853658536708,3.235121951219517
23.801999999999996,-2.4782926829268255,1.2929268292683067,3.215609756097566
23.821999999999996,-2.609999999999929,0.2900000000008171,2.8300000000003553
23.841999999999995,-1.3500000000000427,-1.2860000000000085,0.8700000000000426
23.861999999999995,-0.8200000000001333,-0.4600000000002665,0.7500000000000266
23.881999999999994,-0.02333333333339649,0.3233333333333491,0.40833333333337285
23.901999999999994,0.3088888888888836,0.19,0.26
23.921999999999993,0.3499999999998934,0.19,0.26499999999997337
23.941999999999993,0.8699999999999289,-0.07,0.4399999999999763
23.961999999999996,1.0199999999999823,-0.2,0.46
23.981999999999996,1.0516666666666652,-0.17666666666666983,0.45
24.001999999999995,1.0583333333333313,-0.16333333333333727,0.45
24.021999999999995,1.0,-0.05000000000003553,0.6199999999999645
24.041999999999994,0.9166666666666983,0.026666666666650875,0.6666666666666509
24.061999999999994,0.7700000000000355,0.06999999999996448,0.7299999999999645
24.081999999999994,0.6928571428571523,0.26142857142854314,0.76
24.101999999999993,0.66,0.41666666666666075,0.77
24.121999999999996,0.6200000000000355,0.5699999999999289,0.7400000000000355
24.141999999999996,0.5399999999999882,0.8199999999999881,0.5700000000000355
24.161999999999995,0.7033333333333017,0.8666666666666508,0.45
24.181999999999995,0.8546153846153678,0.94,0.48
24.201999999999995,0.8875000000000014,0.5300000000000056,0.51
24.221999999999994,0.8812500000000015,0.5050000000000061,0.51
24.241999999999994,0.18000000000004737,0.1199999999999763,0.2900000000000237
24.261999999999993,0.17039999999999764,0.3211999999999928,0.3111999999999928
24.281999999999996,0.17839999999999817,0.3451999999999945,0.33519999999999456
