timestamp,gyro_x,gyro_y,gyro_z
0.018,-0.67,0.23,-0.09
0.038,-0.63,0.40549999999999997,0.0755
0.057999999999999996,-0.56,0.395,0.135
0.078,-0.545,0.37,0.1
0.098,-0.53,0.35333333333333333,0.01666666666666667
0.11800000000000001,-0.53,0.32,0.01
0.13799999999999998,-0.54,0.17666666666666686,-0.003333333333333426
0.158,-0.54,-0.025,0.065
0.178,-0.54,-0.21333333333333335,0.17333333333333334
0.19799999999999998,-0.5433333333333334,-0.3,0.23666666666666658
0.218,-0.53,-0.3,0.24
0.238,-0.78,-0.74,-0.34
0.258,-1.0033333333333334,-0.63,-0.7
0.278,-1.1633333333333333,-0.43,-0.8766666666666667
0.29800000000000004,-1.2775,-0.59,-1.1062500000000004
0.318,-1.3,-0.9333333333333333,-1.1066666666666667
0.338,-0.83,-0.38,-0.84
0.35800000000000004,-0.3499999999999996,-0.02000000000000037,-0.3099999999999993
0.378,-0.226,-0.14,-0.054000000000000006
0.398,-0.09,-0.01,0.11
0.41800000000000004,-0.1450000000000003,-0.30500000000000194,-0.030000000000000554
0.438,-0.26,-0.26,-0.22
0.458,-0.20333333333333334,-0.12000000000000001,-0.18666666666666668
0.47800000000000004,0.010000000000003331,-0.30999999999999944,-0.17000000000000223
0.498,0.35,-0.14,-0.565
0.518,0.57,-0.17,-0.97
0.538,0.73,-0.05,-1.33
0.558,0.69,0.225,-1.645
0.5780000000000001,0.40999999999999887,0.23999999999999924,-1.739999999999997
0.598,0.29,0.71,-1.02
0.618,0.17,1.31,-0.54
0.638,-0.14,1.08,-0.63
0.658,-0.06,0.7933333333333333,-1.2166666666666666
0.678,0.15,0.26,-1.81
0.6980000000000001,0.1599999999999989,-0.11000000000000389,-2.0599999999999996
0.7180000000000001,0.12000000000000037,-0.5500000000000008,-1.8299999999999994
0.738,0.15,-0.57,-1.76
0.758,0.17666666666666667,-0.06,-1.2866666666666666
0.778,-0.02,0.29,-1.04
0.798,-0.06,0.5033333333333333,-0.95
0.8180000000000001,-0.09,0.36,-0.9316666666666666
0.8380000000000001,0.14500000000000055,0.6475000000000003,-0.7049999999999994
0.858,0.34,0.8,-0.47
0.878,0.51,0.89,-0.08
0.898,0.2657142857142857,0.6671428571428571,0.24714285714285716
0.918,-0.3,0.16,0.32
0.9380000000000001,-0.39000000000000057,0.20000000000000057,0.33000000000000057
0.9580000000000001,-0.5200000000000022,0.20999999999999777,0.22999999999999113
0.978,-0.58,0.0,-0.29
0.998,-0.59,0.05,-0.020000000000000004
1.018,-0.38,0.39,0.25
1.038,0.19,0.34,0.16
1.058,0.58,0.23,-0.04
1.078,0.53,0.2,-0.14
1.098,0.48,0.48,-0.0
1.118,0.39666666666666645,0.6900000000000007,0.2966666666666679
1.1380000000000001,0.4500000000000011,0.8000000000000012,0.5600000000000023
1.1580000000000001,0.3899999999999978,0.8400000000000014,0.6900000000000014
1.178,0.15,1.08,0.87
1.198,-0.13333333333333286,1.4433333333333327,0.93
1.218,-0.2533333333333331,1.3266666666666678,0.7533333333333345
1.238,-0.15,0.86,0.45
1.258,0.05333333333333432,0.2833333333333321,0.25666666666666643
1.278,0.3040000000000003,-0.3080000000000016,0.21200000000000016
1.298,0.4,-0.95,0.33
1.318,0.32,-1.3933333333333326,0.39999999999999925
1.338,0.36,-0.6800000000000015,-0.033333333333331355
1.358,0.10428571428571375,-1.0528571428571423,0.4228571428571431
1.3780000000000001,-0.1,-0.9800000000000011,0.28999999999999443
1.3980000000000001,0.13250000000000195,-1.0475000000000003,-0.16750000000000137
1.4180000000000001,0.5500000000000156,-1.1600000000000044,-0.21999999999999778
1.438,0.86,-0.47,-0.02
1.458,1.16,-0.67,0.37
1.478,0.6200000000000051,0.4700000000000037,0.9500000000000007
1.498,-1.16,-0.79,0.09
1.518,-2.1633333333333358,-0.6400000000000008,-0.8933333333333358
1.538,-2.389999999999999,-0.08333333333333136,-1.7500000000000029
1.558,-1.6549999999999918,0.1,-2.485000000000004
1.578,-0.3499999999999933,-0.6850000000000083,-2.880000000000002
1.598,0.3500000000000015,-1.9800000000000038,-3.2800000000000007
1.618,0.75,-3.03,-3.28
1.6380000000000001,0.7727272727272728,-3.08,-3.266363636363636
1.6580000000000001,0.7954545454545457,-3.130000000000001,-3.2527272727272725
1.6780000000000002,0.7030769230769224,-5.423846153846155,-2.443846153846154
1.698,0.021739130434782795,-6.0004347826086954,-2.4130434782608696
1.718,-0.48,-6.02,-2.26
1.738,-1.2450000000000006,-5.435000000000004,-1.3000000000000034
1.758,-1.07,-5.08,-1.07
1.778,-0.7549999999999994,-4.965000000000001,-0.7499999999999967
1.798,-0.9340000000000004,-5.006,0.010000000000000883
1.818,-1.6700000000000028,-4.056666666666663,0.8700000000000022
1.838,-2.558000000000002,-2.771999999999997,1.3320000000000007
1.858,-3.2950000000000026,-1.8949999999999982,1.6200000000000012
1.8780000000000001,-3.2399999999999967,-1.960000000000001,1.67
1.8980000000000001,-2.48666666666666,-2.1533333333333355,1.7133333333333338
1.9180000000000001,-1.3999999999999924,-2.4900000000000024,1.7850000000000006
1.938,-0.29000000000000775,-2.849999999999998,1.84
1.958,0.5899999999999956,-3.0350000000000006,1.6600000000000021
1.978,0.96,-2.88,1.4
1.998,1.21,-2.5,1.12
2.018,1.3460000000000005,-1.7760000000000014,0.97
2.038,0.960000000000003,-1.000000000000006,0.8500000000000014
2.058,0.59,-0.12,0.62
2.078,0.61,0.25,0.81
2.098,0.7399999999999985,0.06333333333333432,1.0633333333333344
2.118,1.2,0.24,-0.41
2.138,1.2654545454545456,0.959090909090908,-2.1836363636363614
2.158,0.36999999999999666,2.7975000000000048,-3.730000000000002
2.178,-0.06999999999999852,3.4366666666666643,-3.989999999999999
2.198,0.10523809523809532,4.252380952380952,-5.010952380952381
2.218,0.39,4.07,-5.43
2.238,0.10249999999999862,4.167500000000001,-6.615000000000003
2.258,0.25,4.5649999999999995,-7.205
2.278,1.1,4.76,-7.45
2.298,3.1900000000000075,4.676666666666664,-8.470000000000004
2.318,5.720000000000001,2.85,-9.68
2.3379999999999996,6.659999999999994,1.103333333333349,-9.870000000000003
2.3579999999999997,6.95,-0.4033333333333106,-7.6700000000000506
2.3779999999999997,5.545000000000042,-1.66,-2.950000000000067
2.3979999999999997,1.9500000000000532,0.1749999999999589,0.8849999999999589
2.4179999999999997,-1.6866666666666301,2.3266666666666564,2.729999999999985
2.4379999999999997,-3.58499999999999,0.9750000000000388,4.5749999999999655
2.4579999999999997,-2.9766666666666834,-1.6633333333333078,7.1733333333333045
2.4779999999999998,-1.790000000000009,-3.209999999999988,8.953333333333326
2.4979999999999998,-1.7899999999999912,-3.7399999999999913,7.906666666666693
2.518,-2.73,-4.59,6.24
2.538,-3.8899999999999912,-4.273333333333347,6.24333333333332
2.558,-4.4166666666666625,-3.2266666666666772,7.746666666666654
2.578,-4.200000000000009,-3.209999999999991,7.400000000000015
2.598,-3.1966666666666805,-4.109999999999989,6.156666666666678
2.618,-2.2100000000000066,-4.340000000000007,5.839999999999998
2.638,-2.17,-3.006666666666667,6.126666666666667
2.658,-2.04,-1.2033333333333334,5.126666666666667
2.678,-0.4266666666666667,-0.6033333333333333,2.27
2.698,1.38,-0.8099999999999999,0.07333333333333333
2.718,1.75,-0.535,1.19
2.738,1.4,1.82,-0.45
2.758,1.74,2.33,-4.28
2.778,1.9366666666666656,2.5933333333333386,-6.956666666666676
2.798,1.8366666666666658,3.363333333333336,-7.770000000000003
2.818,1.59,3.6,-8.455
2.8379999999999996,1.6299999999999866,4.169999999999982,-9.349999999999973
2.8579999999999997,2.519999999999985,4.290000000000003,-10.193333333333326
2.8779999999999997,3.6133333333333226,3.7400000000000087,-10.543333333333331
2.8979999999999997,4.123333333333331,3.000000000000009,-10.393333333333338
2.9179999999999997,3.9050000000000056,2.30500000000001,-9.95500000000001
2.9379999999999997,3.4066666666666716,1.5366666666666717,-8.506666666666693
2.9579999999999997,3.0000000000000013,1.1100000000000043,-5.463333333333358
2.9779999999999998,2.4133333333333464,0.5766666666666717,-1.7266666666667043
2.9979999999999998,0.5866666666666982,0.5366666666666657,0.38666666666664495
3.018,-1.6233333333333135,1.1866666666666597,2.8899999999999584
3.038,-2.446666666666666,1.1733333333333371,6.756666666666624
3.058,-2.24,0.71,8.58
3.078,-1.5966666666666747,-1.036666666666642,8.006666666666677
3.098,-1.08,-2.63,7.03
3.118,-0.9999999999999982,-3.7839999999999976,6.273999999999999
3.138,-1.9100000000000001,-3.59,6.875
3.158,-2.9366666666666665,-3.0166666666666666,7.676666666666667
3.178,-2.92,-3.08,7.74
3.198,-2.1233333333333335,-3.61,6.866666666666667
3.218,-1.09,-3.4833333333333334,6.223333333333334
3.238,-0.61,-2.84,5.92
3.258,-0.74,-1.6,4.91
3.278,-0.33,-0.21,2.16
3.298,0.72,-0.015000000000000003,-1.45
3.318,1.76,-0.38,-2.76
3.338,1.48,0.565,-3.8
3.3579999999999997,0.5600000000000118,1.596666666666663,-5.873333333333305
3.3779999999999997,-0.31666666666665677,1.6166666666666687,-7.70333333333332
3.3979999999999997,-0.8566666666666627,1.7866666666666597,-7.930000000000003
3.4179999999999997,-0.9100000000000045,2.4899999999999847,-7.750000000000004
3.4379999999999997,-0.5833333333333373,2.69,-7.8299999999999965
3.4579999999999997,-0.2800000000000067,2.9299999999999913,-8.039999999999997
3.4779999999999998,-0.020000000000006662,3.3799999999999844,-7.950000000000009
3.4979999999999998,0.43999999999998,3.9799999999999844,-7.250000000000031
3.518,1.4199999999999948,4.124000000000001,-6.036000000000006
3.538,2.43,3.28,-5.05
3.558,2.67,2.06,-5.23
3.578,2.89,0.76,-3.48
3.598,2.78,-0.93,1.06
3.618,1.46,0.11,3.62
3.638,-0.68,0.91,5.63
3.658,-2.98,1.07,7.61
3.678,-4.33,1.26,9.43
3.698,-3.77,-0.3,9.17
3.718,-1.53,-3.82,6.84
3.738,-0.27,-4.9350000000000005,5.585
3.758,-0.36333333333333584,-3.7399999999999913,6.373333333333341
3.778,-0.96,-2.6,7.2
3.798,-1.94,-1.9,6.41
3.818,-2.0179999999999976,-2.1780000000000026,5.527999999999998
3.838,-0.85,-2.68,5.32
3.8579999999999997,0.83999999999996,-2.959999999999989,5.430000000000004
3.8779999999999997,1.6199999999999912,-2.75000000000002,4.860000000000027
3.8979999999999997,1.282000000000007,-1.7040000000000084,2.946000000000021
3.9179999999999997,-0.2799999999999534,-0.40000000000003777,-0.5699999999999134
3.9379999999999997,-1.2299999999999889,0.8499999999999667,-2.039999999999989
3.9579999999999997,-1.31,1.6499999999999877,-2.6599999999999824
3.9779999999999998,-1.0900000000000112,2.289999999999998,-4.899999999999929
3.9979999999999998,-0.9399999999999977,1.9900000000000044,-7.269999999999948
4.018,-1.21,2.4,-8.29
4.038,-1.31,2.94,-8.9
4.058,-1.13,3.06,-9.18
4.078,-1.17,3.48,-9.37
4.098,-1.36,4.48,-9.4
4.117999999999999,-1.2340000000000084,5.441999999999983,-8.986000000000011
4.138,-0.24000000000000002,5.835,-8.01
4.1579999999999995,1.589999999999944,4.500000000000083,-7.090000000000009
4.178,2.310206766917293,2.8593233082706764,-7.160056390977444
4.1979999999999995,2.3107236842105263,2.8576315789473683,-7.160197368421053
4.218,2.3112406015037594,2.8559398496240602,-7.160338345864662
4.2379999999999995,2.3117575187969925,2.8542481203007517,-7.16047932330827
4.258,2.3122744360902256,2.8525563909774436,-7.16062030075188
4.278,2.3127913533834588,2.850864661654135,-7.160761278195489
4.298,2.313308270676692,2.849172932330827,-7.1609022556390975
4.318,2.313825187969925,2.8474812030075185,-7.161043233082707
4.338,2.314342105263158,2.8457894736842104,-7.161184210526316
4.358,2.314859022556391,2.8440977443609023,-7.161325187969925
4.378,2.3153759398496243,2.842406015037594,-7.161466165413534
4.398,2.315892857142857,2.8407142857142857,-7.161607142857143
4.418,2.31640977443609,2.8390225563909772,-7.161748120300752
4.438,2.316926691729323,2.837330827067669,-7.161889097744361
4.458,2.3174436090225563,2.8356390977443606,-7.16203007518797
4.478,2.3179605263157894,2.8339473684210525,-7.162171052631579
4.498,2.3184774436090225,2.832255639097744,-7.162312030075189
4.518,2.3189943609022556,2.830563909774436,-7.162453007518797
4.538,2.3195112781954887,2.828872180451128,-7.162593984962406
4.558,2.320028195488722,2.8271804511278193,-7.162734962406015
4.578,2.320545112781955,2.8254887218045113,-7.1628759398496245
4.598,2.321062030075188,2.8237969924812028,-7.163016917293233
4.618,2.321578947368421,2.8221052631578947,-7.163157894736842
4.638,2.3220958646616543,2.820413533834586,-7.163298872180452
4.6579999999999995,2.3226127819548874,2.818721804511278,-7.16343984962406
4.678,2.3231296992481205,2.81703007518797,-7.163580827067669
4.6979999999999995,2.3236466165413536,2.8153383458646615,-7.163721804511279
4.718,2.3241635338345863,2.8136466165413534,-7.1638627819548875
4.7379999999999995,2.3246804511278194,2.811954887218045,-7.164003759398496
4.758,2.3251973684210525,2.810263157894737,-7.164144736842106
4.778,2.3257142857142856,2.8085714285714287,-7.164285714285715
4.798,2.3262312030075187,2.80687969924812,-7.164426691729323
4.818,2.326748120300752,2.805187969924812,-7.164567669172932
4.838,2.327265037593985,2.8034962406015036,-7.164708646616542
4.858,2.327781954887218,2.8018045112781955,-7.1648496240601505
4.878,2.328298872180451,2.800112781954887,-7.164990601503759
4.898,2.3288157894736843,2.798421052631579,-7.165131578947369
4.918,2.3293327067669174,2.7967293233082704,-7.165272556390978
4.938,2.3298496240601505,2.7950375939849623,-7.165413533834586
4.958,2.3303665413533836,2.793345864661654,-7.165554511278196
4.978,2.3308834586466167,2.7916541353383457,-7.165695488721805
4.998,2.33140037593985,2.7899624060150376,-7.1658364661654135
5.018,2.331917293233083,2.788270676691729,-7.165977443609023
5.038,2.3324342105263156,2.786578947368421,-7.166118421052632
5.058,2.3329511278195487,2.7848872180451125,-7.166259398496241
5.078,2.333468045112782,2.7831954887218044,-7.16640037593985
5.098,2.333984962406015,2.781503759398496,-7.166541353383459
5.118,2.334501879699248,2.779812030075188,-7.166682330827068
5.138,2.335018796992481,2.7781203007518798,-7.1668233082706765
5.1579999999999995,2.3355357142857143,2.7764285714285712,-7.166964285714286
5.178,2.3360526315789474,2.774736842105263,-7.167105263157895
5.1979999999999995,2.3365695488721805,2.7730451127819546,-7.167246240601504
5.218,2.3370864661654136,2.7713533834586466,-7.167387218045113
5.2379999999999995,2.3376033834586467,2.7696616541353385,-7.167528195488722
5.258,2.33812030075188,2.76796992481203,-7.167669172932331
5.278,2.338637218045113,2.766278195488722,-7.16781015037594
5.298,2.339154135338346,2.7645864661654134,-7.167951127819549
5.318,2.339671052631579,2.7628947368421053,-7.168092105263158
5.338,2.3401879699248123,2.7612030075187968,-7.1682330827067675
5.358,2.340704887218045,2.7595112781954887,-7.168374060150376
5.378,2.341221804511278,2.75781954887218,-7.168515037593985
5.398,2.341738721804511,2.756127819548872,-7.168656015037594
5.418,2.3422556390977443,2.754436090225564,-7.168796992481203
5.438,2.3427725563909774,2.7527443609022555,-7.168937969924812
5.458,2.3432894736842105,2.7510526315789474,-7.169078947368421
5.478,2.3438063909774436,2.749360902255639,-7.1692199248120305
5.498,2.3443233082706767,2.747669172932331,-7.169360902255639
5.518,2.34484022556391,2.7459774436090223,-7.169501879699248
5.538,2.345357142857143,2.744285714285714,-7.169642857142858
5.558,2.345874060150376,2.742593984962406,-7.169783834586466
5.578,2.346390977443609,2.7409022556390976,-7.169924812030075
5.598,2.3469078947368422,2.7392105263157895,-7.170065789473685
5.618,2.3474248120300754,2.737518796992481,-7.1702067669172935
5.638,2.3479417293233085,2.735827067669173,-7.170347744360902
5.6579999999999995,2.348458646616541,2.7341353383458644,-7.170488721804512
5.678,2.3489755639097742,2.7324436090225563,-7.170629699248121
5.6979999999999995,2.3494924812030074,2.7307518796992483,-7.170770676691729
5.718,2.3500093984962405,2.7290601503759397,-7.170911654135338
5.7379999999999995,2.3505263157894736,2.7273684210526317,-7.171052631578948
5.758,2.3510432330827067,2.725676691729323,-7.1711936090225565
5.778,2.35156015037594,2.723984962406015,-7.171334586466165
5.798,2.352077067669173,2.7222932330827065,-7.171475563909775
5.818,2.352593984962406,2.7206015037593985,-7.171616541353384
5.838,2.353110902255639,2.71890977443609,-7.171757518796992
5.858,2.3536278195488722,2.717218045112782,-7.171898496240602
5.878,2.3541447368421053,2.715526315789474,-7.172039473684211
5.898,2.3546616541353385,2.7138345864661653,-7.1721804511278195
5.918,2.3551785714285716,2.712142857142857,-7.172321428571429
5.938,2.3556954887218047,2.7104511278195487,-7.172462406015038
5.958,2.356212406015038,2.7087593984962406,-7.172603383458647
5.978,2.3567293233082705,2.7070676691729325,-7.172744360902256
5.998,2.3572462406015036,2.705375939849624,-7.172885338345865
6.018,2.3577631578947367,2.703684210526316,-7.173026315789474
6.038,2.35828007518797,2.7019924812030074,-7.1731672932330826
6.058,2.358796992481203,2.7003007518796993,-7.173308270676692
6.078,2.359313909774436,2.698609022556391,-7.173449248120301
6.098,2.359830827067669,2.6969172932330827,-7.17359022556391
6.118,2.3603477443609022,2.695225563909774,-7.173731203007519
6.138,2.3608646616541353,2.693533834586466,-7.173872180451128
6.158,2.3613815789473684,2.6918421052631576,-7.174013157894737
6.178,2.3618984962406016,2.6901503759398495,-7.1741541353383464
6.1979999999999995,2.3624154135338347,2.6884586466165414,-7.174295112781955
6.218,2.3629323308270678,2.686766917293233,-7.174436090225564
6.2379999999999995,2.363449248120301,2.685075187969925,-7.174577067669174
6.258,2.363966165413534,2.6833834586466163,-7.174718045112782
6.278,2.364483082706767,2.6816917293233082,-7.174859022556391
6.298,2.365,2.6799999999999997,-7.175000000000001
6.318,2.365516917293233,2.6783082706766916,-7.1751409774436095
6.338,2.366033834586466,2.6766165413533836,-7.175281954887218
6.358,2.366550751879699,2.674924812030075,-7.175422932330827
6.378,2.367067669172932,2.673233082706767,-7.175563909774437
6.398,2.3675845864661653,2.6715413533834584,-7.175704887218045
6.418,2.3681015037593984,2.6698496240601504,-7.175845864661654
6.438,2.3686184210526315,2.668157894736842,-7.175986842105264
6.458,2.3691353383458646,2.6664661654135338,-7.1761278195488725
6.478,2.3696522556390978,2.6647744360902257,-7.176268796992481
6.498,2.370169172932331,2.663082706766917,-7.176409774436091
6.518,2.370686090225564,2.661390977443609,-7.1765507518797
6.538,2.371203007518797,2.6596992481203006,-7.176691729323308
6.558,2.37171992481203,2.6580075187969925,-7.176832706766918
6.578,2.3722368421052633,2.656315789473684,-7.176973684210527
6.598,2.3727537593984964,2.654624060150376,-7.1771146616541355
6.618,2.3732706766917295,2.652932330827068,-7.177255639097744
6.638,2.373787593984962,2.6512406015037593,-7.177396616541354
6.658,2.3743045112781953,2.649548872180451,-7.177537593984963
6.678,2.3748214285714284,2.6478571428571427,-7.177678571428571
6.6979999999999995,2.3753383458646615,2.6461654135338346,-7.177819548872181
6.718,2.3758552631578946,2.644473684210526,-7.17796052631579
6.7379999999999995,2.3763721804511277,2.642781954887218,-7.1781015037593985
6.758,2.376889097744361,2.64109022556391,-7.178242481203008
6.778,2.377406015037594,2.6393984962406014,-7.178383458646617
6.798,2.377922932330827,2.6377067669172933,-7.178524436090226
6.818,2.37843984962406,2.636015037593985,-7.178665413533835
6.838,2.3789567669172933,2.6343233082706767,-7.178806390977444
6.858,2.3794736842105264,2.632631578947368,-7.178947368421053
6.878,2.3799906015037595,2.63093984962406,-7.179088345864662
6.898,2.3805075187969926,2.629248120300752,-7.179229323308271
6.918,2.3810244360902257,2.6275563909774435,-7.17937030075188
6.938,2.3815413533834584,2.6258646616541355,-7.179511278195489
6.958,2.3820582706766915,2.624172932330827,-7.179652255639098
6.978,2.3825751879699246,2.622481203007519,-7.179793233082707
6.998,2.3830921052631577,2.6207894736842103,-7.179934210526316
7.018,2.383609022556391,2.6190977443609023,-7.180075187969925
7.038,2.384125939849624,2.6174060150375937,-7.180216165413534
7.058,2.384642857142857,2.6157142857142857,-7.180357142857143
7.078,2.38515977443609,2.6140225563909776,-7.1804981203007525
7.098,2.3856766917293233,2.612330827067669,-7.180639097744361
7.118,2.3861936090225564,2.610639097744361,-7.18078007518797
7.138,2.3867105263157895,2.6089473684210525,-7.18092105263158
7.158,2.3872274436090226,2.6072556390977444,-7.181062030075188
7.178,2.3877443609022557,2.6055639097744363,-7.181203007518797
7.1979999999999995,2.388261278195489,2.603872180451128,-7.181343984962406
7.218,2.388778195488722,2.6021804511278197,-7.1814849624060155
7.2379999999999995,2.389295112781955,2.600488721804511,-7.181625939849624
7.258,2.3898120300751877,2.598796992481203,-7.181766917293233
7.278,2.390328947368421,2.5971052631578946,-7.181907894736843
7.298,2.390845864661654,2.5954135338345865,-7.182048872180451
7.318,2.391362781954887,2.5937218045112784,-7.18218984962406
7.338,2.39187969924812,2.59203007518797,-7.18233082706767
7.358,2.3923966165413533,2.590338345864662,-7.1824718045112785
7.378,2.3929135338345864,2.5886466165413533,-7.182612781954887
7.398,2.3934304511278195,2.5869548872180452,-7.182753759398497
7.418,2.3939473684210526,2.5852631578947367,-7.182894736842106
7.438,2.3944642857142857,2.5835714285714286,-7.183035714285714
7.458,2.394981203007519,2.58187969924812,-7.183176691729324
7.478,2.395498120300752,2.580187969924812,-7.183317669172933
7.498,2.396015037593985,2.5784962406015035,-7.1834586466165415
7.518,2.396531954887218,2.5768045112781954,-7.18359962406015
7.538,2.3970488721804513,2.5751127819548874,-7.18374060150376
7.558,2.3975657894736844,2.573421052631579,-7.183881578947369
7.578,2.3980827067669175,2.5717293233082708,-7.184022556390977
7.598,2.39859962406015,2.5700375939849622,-7.184163533834587
7.618,2.3991165413533833,2.568345864661654,-7.184304511278196
7.638,2.3996334586466164,2.5666541353383456,-7.1844454887218046
7.658,2.4001503759398495,2.5649624060150376,-7.184586466165414
7.678,2.4006672932330826,2.5632706766917295,-7.184727443609023
7.6979999999999995,2.4011842105263157,2.561578947368421,-7.184868421052632
7.718,2.401701127819549,2.559887218045113,-7.185009398496241
7.7379999999999995,2.402218045112782,2.5581954887218044,-7.18515037593985
7.758,2.402734962406015,2.5565037593984963,-7.185291353383459
7.778,2.403251879699248,2.5548120300751878,-7.1854323308270684
7.798,2.4037687969924812,2.5531203007518797,-7.185573308270677
7.818,2.4042857142857144,2.5514285714285716,-7.185714285714286
7.838,2.4048026315789475,2.549736842105263,-7.185855263157895
7.858,2.4053195488721806,2.548045112781955,-7.185996240601504
7.878,2.4058364661654137,2.5463533834586465,-7.186137218045113
7.898,2.4063533834586464,2.5446616541353384,-7.186278195488722
7.918,2.4068703007518795,2.54296992481203,-7.1864191729323315
7.938,2.4073872180451126,2.541278195488722,-7.18656015037594
7.958,2.4079041353383457,2.5395864661654137,-7.186701127819549
7.978,2.408421052631579,2.537894736842105,-7.186842105263159
7.998,2.408937969924812,2.536203007518797,-7.186983082706767
8.018,2.409454887218045,2.5345112781954886,-7.187124060150376
8.038,2.409971804511278,2.5328195488721805,-7.187265037593986
8.058000000000002,2.4104887218045112,2.531127819548872,-7.1874060150375945
8.078000000000001,2.4110056390977443,2.529436090225564,-7.187546992481203
8.098,2.4115225563909775,2.5277443609022554,-7.187687969924813
8.118,2.4120394736842106,2.5260526315789473,-7.187828947368422
8.138000000000002,2.4125563909774437,2.524360902255639,-7.18796992481203
8.158000000000001,2.413073308270677,2.5226691729323307,-7.188110902255639
8.178,2.41359022556391,2.5209774436090227,-7.188251879699249
8.198,2.414107142857143,2.519285714285714,-7.1883928571428575
8.218,2.4146240601503757,2.517593984962406,-7.188533834586466
8.238000000000001,2.415140977443609,2.5159022556390975,-7.188674812030076
8.258000000000001,2.415657894736842,2.5142105263157895,-7.188815789473685
8.278,2.416174812030075,2.512518796992481,-7.188956766917293
8.298,2.416691729323308,2.510827067669173,-7.189097744360903
8.318000000000001,2.4172086466165412,2.5091353383458648,-7.189238721804512
8.338000000000001,2.4177255639097743,2.5074436090225563,-7.1893796992481205
8.358,2.4182424812030074,2.505751879699248,-7.18952067669173
8.378,2.4187593984962406,2.5040601503759397,-7.189661654135339
8.398000000000001,2.4192763157894737,2.5023684210526316,-7.189802631578948
8.418000000000001,2.4197932330827068,2.500676691729323,-7.189943609022556
8.438,3.02,0.4,-6.92
8.458,1.2025000000000032,-1.0574999999999968,2.0474999999999834
8.478000000000002,0.23999999999990526,-0.4699999999999289,-0.9200000000000711
8.498000000000001,-0.9200000000000711,1.0500000000001304,-1.9200000000001243
8.518,-1.41,2.11,-4.12
8.538,-1.32,1.92,-6.3
8.558000000000002,-2.1500000000001007,2.390000000000077,-7.300000000000018
8.578000000000001,-3.2500000000000475,3.6500000000000945,-7.059999999999976
8.598,-3.47,4.85,-6.99
8.618,-2.6599999999999704,5.576666666666674,-7.036666666666663
8.638000000000002,-1.3599999999998815,5.790000000000023,-6.706666666666628
8.658000000000001,-0.3899999999999408,6.150000000000036,-6.259999999999958
8.678,0.30000000000001065,6.505000000000003,-5.879999999999997
8.698,1.49,5.8,-5.72
8.718000000000002,2.530000000000065,4.719999999999917,-6.050000000000024
8.738000000000001,3.2700000000000413,3.2399999999998523,-5.999999999999929
8.758000000000001,3.719999999999988,0.7399999999997987,-3.9799999999997455
8.778,2.84,-0.86,0.02
8.798,0.71,-0.35,3.92
8.818000000000001,-0.9500000000000888,-0.960000000000071,7.620000000000243
8.838000000000001,-1.8500000000001955,-1.9000000000002664,9.730000000000302
8.858,-2.5350000000000064,-3.205000000000029,10.710000000000013
8.878,-2.61,-3.55,10.85
8.898000000000001,-2.539999999999988,-3.339999999999994,9.739999999999881
8.918000000000001,-2.389999999999988,-3.220000000000006,7.409999999999811
8.938,-2.06,-3.5,5.58
8.958,-1.34,-3.47,5.42
8.978000000000002,-0.9999999999999881,-3.6600000000000654,4.999999999999882
8.998000000000001,-0.8266666666666745,-3.299999999999988,3.433333333333296
9.018,-1.0,-2.739999999999994,2.609999999999994
9.038,-0.67,-2.56,2.65
9.058000000000002,-0.1299999999999704,-2.6799999999999944,2.409999999999988
9.078000000000001,0.2000000000000237,-2.5199999999999823,2.5900000000000354
9.098,0.29,-1.94,2.61
9.118,-0.63000000000004,-0.8249999999999578,0.4499999999999201
9.138000000000002,-1.6900000000000266,0.5400000000001244,-1.2500000000000533
9.158000000000001,-1.3799999999999644,1.8700000000000498,-1.9800000000000675
9.178,-0.46199999999998154,2.588000000000004,-3.876000000000044
9.198,0.4,2.62,-6.06
9.218000000000002,0.3599999999999704,3.110000000000059,-6.850000000000035
9.238000000000001,-0.15000000000003552,3.9900000000000593,-7.5300000000000535
9.258000000000001,-0.4900000000000118,4.550000000000024,-8.090000000000018
9.278,-0.49,4.82,-8.05
9.298,-0.08999999999999111,5.360000000000008,-7.844999999999998
9.318000000000001,0.6383333333333462,5.853333333333338,-7.84
9.338000000000001,1.910000000000142,5.689999999999912,-7.689999999999947
9.358,3.25,4.6,-7.15
9.378,4.45,3.17,-6.66
9.398000000000001,4.699999999999991,2.259999999999893,-6.13999999999984
9.418000000000001,4.669999999999991,0.6999999999997513,-3.109999999999449
9.438,4.2,-0.82,2.43
9.458,1.97,0.53,6.25
9.478000000000002,-0.7600000000003375,1.1299999999999821,7.110000000000045
9.498000000000001,-3.180000000000071,1.120000000000009,8.520000000000275
9.518,-2.52,0.23,10.6
9.538,-0.8,-1.68,8.8
9.558000000000002,-1.0500000000001333,-2.299999999999991,5.949999999999814
9.578000000000001,-2.430000000000151,-1.7499999999999023,5.179999999999991
9.598,-3.5,-1.11,4.73
9.618,-3.56,-1.4,4.13
9.638000000000002,-3.099999999999867,-2.0100000000000886,4.300000000000035
9.658000000000001,-2.0199999999999023,-2.810000000000089,4.459999999999982
9.678,-1.26,-3.25,4.39
9.698,-1.1,-3.24,4.37
9.718000000000002,-1.3266666666666864,-2.6099999999999524,4.466666666666662
9.738000000000001,-1.7425000000000066,-1.5974999999999668,3.894999999999969
9.758000000000001,-1.5199999999999378,-0.5899999999999289,1.769999999999618
9.778,-0.8,-0.45,-1.6
9.798,-0.2866666666666686,0.16333333333330177,-2.9733333333333136
9.818000000000001,-0.4200000000000444,1.4000000000001243,-3.930000000000151
9.838000000000001,-0.93000000000008,2.2600000000000797,-5.42000000000016
9.858,-1.9400000000000177,3.2375000000000185,-6.5450000000000115
9.878,-3.08,4.83,-6.75
9.898000000000001,-2.9666666666666273,5.913333333333361,-6.63
9.918000000000001,-1.7499999999998224,6.099999999999982,-6.589999999999982
9.938,-0.06749999999997447,5.884999999999998,-6.404999999999998
9.958,1.8966666666666212,5.463333333333349,-6.353333333333331
9.978000000000002,3.630000000000071,4.496666666666603,-6.4133333333333375
9.998000000000001,4.580000000000018,3.2699999999999645,-6.41
10.018,4.836666666666651,2.166666666666639,-6.32
10.038,4.123333333333333,1.8066666666666666,-6.376666666666667
10.058000000000002,2.9399999999998756,1.5099999999999378,-5.419999999999671
10.078000000000001,2.1099999999999377,0.6499999999998934,-0.9199999999993428
10.098,1.2533333333332544,0.27333333333334914,5.470000000000272
10.118,-0.845,0.55,9.280000000000001
10.138000000000002,-3.0000000000000946,0.029999999999952634,10.056666666666697
10.158000000000001,-4.420000000000047,-0.823333333333361,11.140000000000072
10.178,-4.499999999999953,-1.6166666666667102,11.666666666666627
10.198,-2.67499999999988,-3.0500000000000886,9.904999999999845
10.218000000000002,-1.54,-3.9266666666666628,6.969999999999882
10.238000000000001,-2.2200000000000473,-3.326666666666627,5.349999999999953
10.258000000000001,-2.9266666666666743,-2.84,4.656666666666639
10.278,-2.6299999999999644,-3.0800000000000236,3.9166666666666154
10.298,-1.77,-3.54,3.07
10.318000000000001,-1.146666666666639,-3.6133333333333257,3.103333333333361
10.338000000000001,-0.6733333333333136,-3.2699999999999765,3.486666666666663
10.358,-0.5600000000000089,-2.764999999999978,2.9049999999999425
10.378,-0.73,-2.053333333333361,2.3433333333333315
10.398000000000001,-0.65,-0.7549999999998668,2.0299999999998577
10.418000000000001,-0.8950000000000311,0.1400000000000533,-0.12500000000014652
10.438,-1.24,1.260000000000032,-1.794000000000015
10.458,-0.9133333333333491,2.3566666666666447,-2.236666666666651
10.478000000000002,-0.06999999999989343,3.0450000000000266,-3.3550000000001865
10.498000000000001,0.7350000000000222,2.8649999999999776,-5.275000000000119
10.518,0.46499999999996,3.1100000000000447,-6.81500000000004
10.538,-0.3333333333333333,4.173333333333334,-7.196666666666666
10.558000000000002,-0.7299999999999822,5.1200000000000445,-7.670000000000053
10.578000000000001,-0.02333333333327807,5.219999999999988,-7.906666666666663
10.598,1.3400000000000798,4.8299999999999645,-7.749999999999991
10.618,2.6799999999999997,4.09,-7.675
10.638000000000002,3.4277777777777834,3.227777777777759,-7.69
10.658000000000001,2.8799999999999377,2.2749999999999866,-7.669999999999991
10.678,1.4499999999999114,2.670000000000053,-7.364999999999986
10.698,0.0699999999999556,3.8850000000000486,-7.1449999999999685
10.718000000000002,0.3350000000001332,3.8499999999998398,-5.289999999999627
10.738000000000001,1.9300000000001065,0.9049999999997913,-0.4249999999996581
10.758000000000001,3.089999999999994,-1.1000000000000119,4.990000000000083
10.778,1.5849999999998445,-0.944999999999969,6.540000000000036
10.798,-1.64,-0.04,7.81
10.818000000000001,-4.365000000000067,0.8349999999999689,11.040000000000152
10.838000000000001,-4.044999999999898,-1.2600000000001865,12.019999999999937
10.858,-1.4133333333332723,-4.713333333333402,9.576666666666592
10.878,-0.13,-5.91,7.4799999999999995
10.898000000000001,-0.9200000000001243,-4.094999999999761,7.9100000000001245
10.918000000000001,-1.8850000000000577,-2.599999999999947,8.319999999999947
10.938,-3.083333333333361,-2.1133333333333315,6.0499999999999226
10.958,-3.5077777777777777,-1.8933333333333329,4.245555555555552
10.978000000000002,-3.5003703703703697,-1.8711111111111087,4.09740740740739
10.998000000000001,-1.4899999999996802,-2.9400000000001065,3.69
11.018,0.0,-3.23,3.24
11.038,0.33666666666667455,-3.0333333333333194,3.273333333333343
11.058000000000002,0.3366666666666272,-2.199999999999905,3.413333333333278
11.078000000000001,-0.8400000000001243,-0.9799999999998401,1.3899999999997985
11.098,-2.0900000000000176,1.0533333333333788,-0.23333333333334913
11.118,-2.255,2.675,-0.94
11.138000000000002,-1.4133333333331835,3.9966666666667456,-2.706666666666864
11.158000000000001,0.2850000000000933,4.0149999999999775,-4.785000000000111
11.178,1.2333333333333372,3.780000000000006,-6.436666666666692
11.198,0.9499999999999882,4.470000000000024,-7.083333333333343
11.218000000000002,0.6333333333333254,5.193333333333372,-7.513333333333373
11.238000000000001,0.8600000000000119,5.4133333333333375,-7.72
11.258000000000001,1.5066666666666864,5.433333333333331,-7.78
11.278,2.1700000000000115,5.1799999999999935,-7.709999999999997
11.298,2.94,4.65,-7.29
11.318000000000001,3.4133333333333433,3.983333333333314,-6.846666666666657
11.338000000000001,3.69,2.9699999999999287,-6.399999999999965
11.358,3.439999999999988,1.6499999999999646,-5.866666666666645
11.378,2.839999999999982,0.35333333333330175,-3.8733333333332487
11.398000000000001,2.4198915531991805,-0.3401518255211472,-1.5593167851548377
11.418000000000001,2.4196505603084706,-0.34048921556814077,-1.5577985299433665
11.438,2.419409567417761,-0.3408266056151344,-1.5562802747318953
11.458,2.4191685745270513,-0.341163995662128,-1.5547620195204241
11.478000000000002,2.418927581636342,-0.34150138570912164,-1.5532437643089527
11.498000000000001,2.418686588745632,-0.34183877575611527,-1.5517255090974815
11.518,2.418445595854922,-0.34217616580310883,-1.5502072538860103
11.538,2.4182046029642126,-0.34251355585010246,-1.5486889986745391
11.558000000000002,2.4179636100735027,-0.3428509458970961,-1.5471707434630677
11.578000000000001,2.417722617182793,-0.3431883359440897,-1.5456524882515965
11.598,2.4174816242920834,-0.34352572599108333,-1.5441342330401253
11.618,2.4172406314013735,-0.3438631160380769,-1.5426159778286541
11.638000000000002,2.416999638510664,-0.3442005060850706,-1.5410977226171827
11.658000000000001,2.416758645619954,-0.34453789613206415,-1.5395794674057115
11.678,2.4165176527292442,-0.34487528617905777,-1.5380612121942403
11.698,2.416276659838535,-0.3452126762260514,-1.5365429569827689
11.718000000000002,2.416035666947825,-0.345550066273045,-1.5350247017712977
11.738000000000001,2.415794674057115,-0.3458874563200386,-1.5335064465598265
11.758000000000001,2.4155536811664056,-0.3462248463670322,-1.531988191348355
11.778,2.4153126882756957,-0.34656223641402584,-1.5304699361368839
11.798,2.4150716953849862,-0.34689962646101946,-1.5289516809254127
11.818000000000001,2.4148307024942763,-0.3472370165080131,-1.5274334257139413
11.838000000000001,2.4145897096035664,-0.34757440655500665,-1.52591517050247
11.858,2.414348716712857,-0.3479117966020003,-1.5243969152909989
11.878,2.414107723822147,-0.3482491866489939,-1.5228786600795277
11.898000000000001,2.413866730931437,-0.3485865766959875,-1.5213604048680562
11.918000000000001,2.4136257380407278,-0.34892396674298115,-1.519842149656585
11.938,2.413384745150018,-0.3492613567899747,-1.5183238944451138
11.958,2.4131437522593084,-0.34959874683696834,-1.5168056392336426
11.978000000000002,2.4129027593685985,-0.34993613688396197,-1.5152873840221712
11.998000000000001,2.4126617664778887,-0.3502735269309556,-1.5137691288107
12.018,2.412420773587179,-0.3506109169779492,-1.5122508735992288
12.038,2.4121797806964693,-0.3509483070249428,-1.5107326183877576
12.058000000000002,2.4119387878057594,-0.35128569707193646,-1.5092143631762862
12.078000000000001,2.41169779491505,-0.35162308711893003,-1.507696107964815
12.098,2.41145680202434,-0.35196047716592366,-1.5061778527533438
12.118,2.4112158091336306,-0.3522978672129173,-1.5046595975418724
12.138000000000002,2.4109748162429208,-0.3526352572599109,-1.5031413423304012
12.158000000000001,2.410733823352211,-0.3529726473069045,-1.50162308711893
12.178,2.4104928304615014,-0.3533100373538981,-1.5001048319074586
12.198,2.4102518375707915,-0.3536474274008917,-1.4985865766959874
12.218000000000002,2.4100108446800816,-0.35398481744788535,-1.497068321484516
12.238000000000001,2.409769851789372,-0.35432220749487897,-1.4955500662730448
12.258000000000001,2.4095288588986623,-0.35465959754187254,-1.4940318110615736
12.278,2.409287866007953,-0.35499698758886616,-1.4925135558501024
12.298000000000002,2.409046873117243,-0.3553343776358598,-1.490995300638631
12.318000000000001,2.408805880226533,-0.3556717676828534,-1.4894770454271598
12.338000000000001,2.4085648873358236,-0.35600915772984704,-1.4879587902156886
12.358,2.4083238944451137,-0.3563465477768406,-1.4864405350042174
12.378,2.408082901554404,-0.35668393782383423,-1.4849222797927462
12.398000000000001,2.4078419086636944,-0.35702132787082785,-1.4834040245812747
12.418000000000001,2.4076009157729845,-0.3573587179178215,-1.4818857693698035
12.438,2.407359922882275,-0.3576961079648151,-1.4803675141583323
12.458,2.407118929991565,-0.35803349801180867,-1.4788492589468611
12.478000000000002,2.4068779371008553,-0.35837088805880235,-1.4773310037353897
12.498000000000001,2.406636944210146,-0.3587082781057959,-1.4758127485239185
12.518,2.406395951319436,-0.35904566815278954,-1.4742944933124473
12.538,2.406154958428726,-0.35938305819978317,-1.472776238100976
12.558000000000002,2.4059139655380166,-0.3597204482467768,-1.4712579828895047
12.578000000000001,2.4056729726473067,-0.36005783829377036,-1.4697397276780335
12.598,2.4054319797565973,-0.360395228340764,-1.468221472466562
12.618,2.4051909868658874,-0.3607326183877576,-1.466703217255091
12.638000000000002,2.4049499939751775,-0.36107000843475123,-1.4651849620436197
12.658000000000001,2.404709001084468,-0.36140739848174486,-1.4636667068321483
12.678,2.404468008193758,-0.3617447885287384,-1.462148451620677
12.698,2.4042270153030483,-0.36208217857573205,-1.4606301964092059
12.718000000000002,2.403986022412339,-0.3624195686227257,-1.4591119411977345
12.738000000000001,2.403745029521629,-0.3627569586697193,-1.4575936859862633
12.758000000000001,2.4035040366309195,-0.3630943487167129,-1.456075430774792
12.778,2.4032630437402096,-0.3634317387637065,-1.4545571755633209
12.798000000000002,2.4030220508494997,-0.36376912881070017,-1.4530389203518495
12.818000000000001,2.4027810579587903,-0.36410651885769374,-1.4515206651403783
12.838000000000001,2.4025400650680804,-0.36444390890468736,-1.450002409928907
12.858,2.4022990721773705,-0.364781298951681,-1.4484841547174359
12.878,2.402058079286661,-0.36511868899867456,-1.4469658995059647
12.898000000000001,2.401817086395951,-0.36545607904566824,-1.4454476442944932
12.918000000000001,2.4015760935052417,-0.3657934690926618,-1.443929389083022
12.938,2.401335100614532,-0.36613085913965543,-1.4424111338715508
12.958,2.401094107723822,-0.36646824918664905,-1.4408928786600794
12.978000000000002,2.4008531148331125,-0.3668056392336427,-1.4393746234486082
12.998000000000001,2.4006121219424026,-0.36714302928063625,-1.4378563682371368
13.018,2.4003711290516927,-0.36748041932762987,-1.4363381130256656
13.038,2.4001301361609833,-0.3678178093746235,-1.4348198578141944
13.058000000000002,2.3998891432702734,-0.3681551994216171,-1.433301602602723
13.078000000000001,2.3996481503795635,-0.36849258946861074,-1.4317833473912518
13.098,2.399407157488854,-0.3688299795156043,-1.4302650921797806
13.118,2.399166164598144,-0.36916736956259794,-1.4287468369683094
13.138000000000002,2.3989251717074347,-0.36950475960959156,-1.427228581756838
13.158000000000001,2.398684178816725,-0.3698421496565852,-1.4257103265453668
13.178,2.398443185926015,-0.3701795397035788,-1.4241920713338956
13.198,2.3982021930353055,-0.3705169297505724,-1.4226738161224244
13.218000000000002,2.3979612001445956,-0.37085431979756606,-1.421155560910953
13.238000000000001,2.3977202072538857,-0.3711917098445596,-1.4196373056994818
13.258000000000001,2.3974792143631762,-0.37152909989155325,-1.4181190504880106
13.278,2.3972382214724663,-0.3718664899385469,-1.4166007952765394
13.298000000000002,2.396997228581757,-0.3722038799855405,-1.415082540065068
13.318000000000001,2.396756235691047,-0.3725412700325341,-1.4135642848535968
13.338000000000001,2.396515242800337,-0.3728786600795277,-1.4120460296421256
13.358,2.3962742499096277,-0.3732160501265213,-1.4105277744306544
13.378,2.396033257018918,-0.3735534401735149,-1.409009519219183
13.398000000000001,2.395792264128208,-0.37389083022050856,-1.4074912640077117
13.418000000000001,2.3955512712374984,-0.37422822026750213,-1.4059730087962405
13.438,2.3953102783467886,-0.37456561031449576,-1.4044547535847691
13.458,2.395069285456079,-0.3749030003614894,-1.402936498373298
13.478000000000002,2.394828292565369,-0.375240390408483,-1.4014182431618267
13.498000000000001,2.3945872996746593,-0.37557778045547663,-1.3998999879503553
13.518,2.39434630678395,-0.3759151705024702,-1.398381732738884
13.538,2.39410531389324,-0.3762525605494638,-1.396863477527413
13.558000000000002,2.39386432100253,-0.37658995059645745,-1.3953452223159415
13.578000000000001,2.3936233281118207,-0.37692734064345107,-1.3938269671044703
13.598,2.3933823352211108,-0.3772647306904447,-1.392308711892999
13.618,2.3931413423304013,-0.37760212073743826,-1.390790456681528
13.638000000000002,2.3929003494396914,-0.3779395107844319,-1.3892722014700565
13.658000000000001,2.3926593565489815,-0.3782769008314255,-1.3877539462585853
13.678,2.392418363658272,-0.37861429087841914,-1.386235691047114
13.698,2.392177370767562,-0.37895168092541276,-1.3847174358356429
13.718000000000002,2.3919363778768523,-0.3792890709724064,-1.3831991806241715
13.738000000000001,2.391695384986143,-0.3796264610194,-1.3816809254127003
13.758000000000001,2.391454392095433,-0.3799638510663936,-1.380162670201229
13.778,2.3912133992047235,-0.3803012411133872,-1.3786444149897576
13.798000000000002,2.3909724063140136,-0.3806386311603808,-1.3771261597782865
13.818000000000001,2.3907314134233038,-0.38097602120737445,-1.3756079045668153
13.838000000000001,2.3904904205325943,-0.381313411254368,-1.3740896493553438
13.858,2.3902494276418844,-0.38165080130136164,-1.3725713941438726
13.878,2.3900084347511745,-0.38198819134835527,-1.3710531389324014
13.898000000000001,2.389767441860465,-0.3823255813953489,-1.36953488372093
13.918000000000001,2.389526448969755,-0.3826629714423425,-1.3680166285094588
13.938,2.3892854560790457,-0.3830003614893361,-1.3664983732979876
13.958,2.389044463188336,-0.3833377515363297,-1.3649801180865164
13.978000000000002,2.388803470297626,-0.38367514158332333,-1.363461862875045
13.998000000000001,2.3885624774069165,-0.38401253163031696,-1.3619436076635738
14.018,2.3883214845162066,-0.3843499216773106,-1.3604253524521026
14.038,2.3880804916254967,-0.38468731172430415,-1.3589070972406314
14.058000000000002,2.3878394987347873,-0.3850247017712978,-1.35738884202916
14.078000000000001,2.3875985058440774,-0.3853620918182914,-1.3558705868176888
14.098,2.387357512953368,-0.385699481865285,-1.3543523316062176
14.118,2.387116520062658,-0.38603687191227865,-1.3528340763947464
14.138000000000002,2.386875527171948,-0.38637426195927227,-1.351315821183275
14.158000000000001,2.3866345342812387,-0.3867116520062659,-1.3497975659718038
14.178,2.386393541390529,-0.38704904205325946,-1.3482793107603326
14.198,2.386152548499819,-0.3873864321002531,-1.3467610555488614
14.218000000000002,2.3859115556091095,-0.3877238221472467,-1.34524280033739
14.238000000000001,2.3856705627183996,-0.38806121219424033,-1.3437245451259188
14.258000000000001,2.38542956982769,-0.3883986022412339,-1.3422062899144476
14.278,2.3851885769369803,-0.3887359922882275,-1.3406880347029762
14.298000000000002,2.3849475840462704,-0.38907338233522115,-1.339169779491505
14.318000000000001,2.384706591155561,-0.3894107723822148,-1.3376515242800338
14.338000000000001,2.384465598264851,-0.3897481624292084,-1.3361332690685623
14.358,2.384224605374141,-0.39008555247620197,-1.3346150138570911
14.378,2.3839836124834317,-0.3904229425231956,-1.33309675864562
14.398000000000001,2.383742619592722,-0.3907603325701892,-1.3315785034341485
14.418000000000001,2.3835016267020124,-0.39109772261718284,-1.3300602482226773
14.438,2.3832606338113025,-0.39143511266417647,-1.3285419930112061
14.458,2.3830196409205926,-0.39177250271117003,-1.327023737799735
14.478000000000002,2.382778648029883,-0.39210989275816366,-1.3255054825882635
14.498000000000001,2.3825376551391733,-0.3924472828051573,-1.3239872273767923
14.518,2.3822966622484634,-0.3927846728521509,-1.322468972165321
14.538,2.382055669357754,-0.39312206289914453,-1.32095071695385
14.558000000000002,2.381814676467044,-0.39345945294613816,-1.3194324617423785
14.578000000000001,2.3815736835763346,-0.3937968429931318,-1.3179142065309073
14.598,2.3813326906856247,-0.39413423304012535,-1.316395951319436
14.618,2.381091697794915,-0.39447162308711897,-1.3148776961079647
14.638000000000002,2.3808507049042054,-0.3948090131341126,-1.3133594408964935
14.658000000000001,2.3806097120134955,-0.3951464031811062,-1.3118411856850223
14.678,2.3803687191227856,-0.3954837932280998,-1.3103229304735509
14.698,2.380127726232076,-0.3958211832750934,-1.3088046752620797
14.718000000000002,2.3798867333413662,-0.39615857332208704,-1.3072864200506085
14.738000000000001,2.3796457404506564,-0.39649596336908066,-1.305768164839137
14.758000000000001,2.379404747559947,-0.3968333534160743,-1.3042499096276658
14.778,2.379163754669237,-0.39717074346306785,-1.3027316544161947
14.798000000000002,2.3789227617785276,-0.39750813351006153,-1.3012133992047232
14.818000000000001,2.3786817688878177,-0.3978455235570551,-1.299695143993252
14.838000000000001,2.378440775997108,-0.3981829136040487,-1.2981768887817808
14.858,2.3781997831063983,-0.39852030365104235,-1.2966586335703096
14.878,2.3779587902156885,-0.3988576936980359,-1.2951403783588384
14.898000000000001,2.3777177973249786,-0.39919508374502954,-1.293622123147367
14.918000000000001,2.377476804434269,-0.39953247379202317,-1.2921038679358958
14.938,2.3772358115435592,-0.3998698638390168,-1.2905856127244246
14.958,2.37699481865285,-0.4002072538860104,-1.2890673575129534
14.978000000000002,2.37675382576214,-0.40054464393300404,-1.287549102301482
14.998000000000001,2.37651283287143,-0.40088203397999767,-1.2860308470900108
15.018,2.3762718399807206,-0.40121942402699123,-1.2845125918785396
15.038,2.3760308470900107,-0.40155681407398486,-1.2829943366670684
15.058000000000002,2.3757898541993008,-0.4018942041209785,-1.281476081455597
15.078000000000001,2.3755488613085913,-0.4022315941679721,-1.2799578262441256
15.098,2.3753078684178814,-0.4025689842149657,-1.2784395710326546
15.118,2.375066875527172,-0.4029063742619593,-1.2769213158211832
15.138000000000002,2.374825882636462,-0.4032437643089529,-1.2754030606097118
15.158000000000001,2.374584889745752,-0.40358115435594655,-1.2738848053982408
15.178,2.3743438968550428,-0.40391854440294017,-1.2723665501867694
15.198,2.374102903964333,-0.40425593444993374,-1.2708482949752982
15.218000000000002,2.373861911073623,-0.4045933244969274,-1.269330039763827
15.238000000000001,2.3736209181829135,-0.404930714543921,-1.2678117845523555
15.258000000000001,2.3733799252922037,-0.4052681045909146,-1.2662935293408843
15.278,2.373138932401494,-0.4056054946379082,-1.2647752741294132
15.298000000000002,2.3728979395107843,-0.40594288468490186,-1.2632570189179417
15.318000000000001,2.3726569466200744,-0.40628027473189543,-1.2617387637064705
15.338000000000001,2.372415953729365,-0.40661766477888905,-1.2602205084949993
15.358,2.372174960838655,-0.4069550548258827,-1.2587022532835281
15.378,2.371933967947945,-0.4072924448728763,-1.257183998072057
15.398000000000001,2.3716929750572358,-0.4076298349198699,-1.2556657428605855
15.418000000000001,2.371451982166526,-0.40796722496686355,-1.2541474876491143
15.438,2.3712109892758164,-0.4083046150138571,-1.2526292324376431
15.458,2.3709699963851065,-0.40864200506085074,-1.2511109772261717
15.478000000000002,2.3707290034943966,-0.40897939510784437,-1.2495927220147005
15.498000000000001,2.370488010603687,-0.409316785154838,-1.2480744668032293
15.518,2.3702470177129773,-0.40965417520183156,-1.246556211591758
15.538,2.3700060248222674,-0.4099915652488252,-1.2450379563802867
15.558000000000002,2.369765031931558,-0.4103289552958188,-1.2435197011688155
15.578000000000001,2.369524039040848,-0.41066634534281243,-1.242001445957344
15.598,2.3692830461501386,-0.41100373538980606,-1.2404831907458729
15.618,2.3690420532594287,-0.4113411254367996,-1.2389649355344017
15.638000000000002,2.368801060368719,-0.4116785154837933,-1.2374466803229303
15.658000000000001,2.3685600674780094,-0.4120159055307869,-1.235928425111459
15.678,2.3683190745872995,-0.4123532955777805,-1.2344101698999879
15.698,2.3680780816965896,-0.41269068562477407,-1.2328919146885167
15.718000000000002,2.36783708880588,-0.41302807567176775,-1.2313736594770452
15.738000000000001,2.3675960959151703,-0.4133654657187613,-1.229855404265574
15.758000000000001,2.367355103024461,-0.41370285576575494,-1.2283371490541029
15.778,2.367114110133751,-0.41404024581274856,-1.2268188938426317
15.798000000000002,2.366873117243041,-0.4143776358597422,-1.2253006386311602
15.818000000000001,2.3666321243523316,-0.4147150259067358,-1.223782383419689
15.838000000000001,2.3663911314616217,-0.41505241595372944,-1.2222641282082178
15.858,2.366150138570912,-0.415389806000723,-1.2207458729967464
15.878000000000002,2.3659091456802024,-0.41572719604771663,-1.2192276177852752
15.898000000000001,2.3656681527894925,-0.41606458609471025,-1.217709362573804
15.918000000000001,2.365427159898783,-0.4164019761417039,-1.2161911073623326
15.938,2.365186167008073,-0.41673936618869745,-1.2146728521508616
15.958,2.3649451741173633,-0.41707675623569107,-1.2131545969393902
15.978000000000002,2.364704181226654,-0.4174141462826847,-1.2116363417279188
15.998000000000001,2.364463188335944,-0.4177515363296783,-1.2101180865164478
16.018,2.364222195445234,-0.41808892637667194,-1.2085998313049764
16.038,2.3639812025545246,-0.4184263164236655,-1.2070815760935052
16.058,2.3637402096638147,-0.41876370647065914,-1.205563320882034
16.078,2.3634992167731053,-0.41910109651765276,-1.2040450656705628
16.098000000000003,2.3632582238823954,-0.41943848656464644,-1.2025268104590912
16.118000000000002,2.3630172309916855,-0.41977587661164,-1.20100855524762
16.138,2.362776238100976,-0.42011326665863363,-1.1994903000361488
16.158,2.362535245210266,-0.4204506567056272,-1.1979720448246776
16.178,2.3622942523195563,-0.4207880467526208,-1.1964537896132064
16.198,2.362053259428847,-0.42112543679961445,-1.1949355344017352
16.218,2.361812266538137,-0.4214628268466081,-1.193417279190264
16.238,2.3615712736474275,-0.42180021689360164,-1.1918990239787925
16.258000000000003,2.3613302807567176,-0.4221376069405953,-1.1903807687673211
16.278000000000002,2.3610892878660077,-0.42247499698758895,-1.18886251355585
16.298000000000002,2.3608482949752982,-0.4228123870345825,-1.1873442583443787
16.318,2.3606073020845884,-0.42314977708157614,-1.1858260031329075
16.338,2.3603663091938785,-0.42348716712856976,-1.1843077479214363
16.358,2.360125316303169,-0.42382455717556333,-1.182789492709965
16.378,2.359884323412459,-0.42416194722255696,-1.1812712374984937
16.398,2.3596433305217497,-0.4244993372695506,-1.1797529822870225
16.418,2.35940233763104,-0.4248367273165442,-1.1782347270755513
16.438000000000002,2.35916134474033,-0.42517411736353783,-1.17671647186408
16.458000000000002,2.3589203518496205,-0.42551150741053145,-1.1751982166526087
16.478,2.3586793589589106,-0.4258488974575251,-1.1736799614411373
16.498,2.3584383660682007,-0.42618628750451865,-1.172161706229666
16.518,2.3581973731774912,-0.42652367755151227,-1.170643451018195
16.538,2.3579563802867813,-0.42686106759850584,-1.1691251958067237
16.558,2.357715387396072,-0.42719845764549946,-1.1676069405952525
16.578,2.357474394505362,-0.4275358476924931,-1.1660886853837813
16.598000000000003,2.357233401614652,-0.42787323773948677,-1.1645704301723097
16.618000000000002,2.3569924087239427,-0.42821062778648034,-1.1630521749608385
16.638,2.3567514158332328,-0.42854801783347396,-1.1615339197493673
16.658,2.356510422942523,-0.4288854078804676,-1.160015664537896
16.678,2.3562694300518134,-0.4292227979274612,-1.1584974093264249
16.698,2.3560284371611036,-0.4295601879744548,-1.1569791541149534
16.718,2.355787444270394,-0.4298975780214484,-1.1554608989034825
16.738,2.355546451379684,-0.43023496806844197,-1.153942643692011
16.758000000000003,2.3553054584889743,-0.43057235811543565,-1.1524243884805396
16.778000000000002,2.355064465598265,-0.4309097481624293,-1.1509061332690684
16.798000000000002,2.354823472707555,-0.43124713820942284,-1.1493878780575972
16.818,2.354582479816845,-0.43158452825641647,-1.1478696228461258
16.838,2.3543414869261357,-0.4319219183034101,-1.1463513676346546
16.858,2.3541004940354258,-0.4322593083504037,-1.1448331124231834
16.878,2.353859501144716,-0.4325966983973973,-1.1433148572117122
16.898,2.3536185082540064,-0.4329340884443909,-1.141796602000241
16.918,2.3533775153632965,-0.43327147849138453,-1.1402783467887698
16.938000000000002,2.353136522472587,-0.4336088685383782,-1.1387600915772982
16.958000000000002,2.352895529581877,-0.4339462585853718,-1.137241836365827
16.978,2.3526545366911673,-0.4342836486323654,-1.1357235811543558
16.998,2.352413543800458,-0.434621038679359,-1.1342053259428846
17.018,2.352172550909748,-0.4349584287263526,-1.1326870707314134
17.038,2.351931558019038,-0.4352958187733462,-1.1311688155199422
17.058,2.3516905651283286,-0.43563320882033985,-1.129650560308471
17.078,2.3514495722376187,-0.4359705988673334,-1.1281323050969996
17.098000000000003,2.3512085793469093,-0.4363079889143271,-1.1266140498855282
17.118000000000002,2.3509675864561994,-0.4366453789613207,-1.125095794674057
17.138,2.3507265935654895,-0.4369827690083143,-1.1235775394625858
17.158,2.35048560067478,-0.4373201590553079,-1.1220592842511146
17.178,2.35024460778407,-0.43765754910230154,-1.1205410290396434
17.198,2.3500036148933603,-0.4379949391492951,-1.119022773828172
17.218,2.349762622002651,-0.43833232919628873,-1.1175045186167007
17.238,2.349521629111941,-0.43866971924328235,-1.1159862634052296
17.258000000000003,2.3492806362212315,-0.439007109290276,-1.1144680081937581
17.278000000000002,2.3490396433305216,-0.4393444993372696,-1.1129497529822867
17.298000000000002,2.3487986504398117,-0.4396818893842632,-1.1114314977708157
17.318,2.3485576575491023,-0.44001927943125685,-1.1099132425593443
17.338,2.3483166646583924,-0.4403566694782504,-1.1083949873478731
17.358,2.3480756717676825,-0.44069405952524404,-1.106876732136402
17.378,2.347834678876973,-0.4410314495722376,-1.1053584769249307
17.398,2.347593685986263,-0.44136883961923123,-1.1038402217134595
17.418000000000003,2.3473526930955533,-0.4417062296662249,-1.102321966501988
17.438000000000002,2.347111700204844,-0.44204361971321854,-1.1008037112905167
17.458000000000002,2.346870707314134,-0.4423810097602121,-1.0992854560790455
17.478,2.3466297144234245,-0.44271839980720573,-1.0977672008675743
17.498,2.3463887215327146,-0.44305578985419936,-1.096248945656103
17.518,2.3461477286420047,-0.443393179901193,-1.094730690444632
17.538,2.3459067357512953,-0.44373056994818655,-1.0932124352331605
17.558,2.3456657428605854,-0.4440679599951802,-1.0916941800216895
17.578,2.345424749969876,-0.44440535004217374,-1.090175924810218
17.598000000000003,2.345183757079166,-0.4447427400891674,-1.0886576695987467
17.618000000000002,2.344942764188456,-0.44508013013616105,-1.0871394143872755
17.638,2.3447017712977467,-0.4454175201831546,-1.0856211591758043
17.658,2.344460778407037,-0.44575491023014824,-1.0841029039643328
17.678,2.344219785516327,-0.44609230027714186,-1.0825846487528616
17.698,2.3439787926256175,-0.4464296903241355,-1.0810663935413904
17.718,2.3437377997349076,-0.44676708037112906,-1.0795481383299192
17.738,2.343496806844198,-0.4471044704181227,-1.078029883118448
17.758000000000003,2.3432558139534883,-0.44744186046511636,-1.0765116279069766
17.778000000000002,2.3430148210627784,-0.44777925051211,-1.0749933726955052
17.798000000000002,2.342773828172069,-0.44811664055910355,-1.073475117484034
17.818,2.342532835281359,-0.4484540306060972,-1.0719568622725628
17.838,2.342291842390649,-0.44879142065309074,-1.0704386070610916
17.858,2.3420508494999397,-0.44912881070008437,-1.0689203518496204
17.878,2.34180985660923,-0.449466200747078,-1.0674020966381492
17.898,2.3415688637185204,-0.4498035907940716,-1.065883841426678
17.918000000000003,2.3413278708278105,-0.45014098084106524,-1.0643655862152064
17.938000000000002,2.3410868779371006,-0.45047837088805887,-1.0628473310037352
17.958000000000002,2.340845885046391,-0.4508157609350525,-1.061329075792264
17.978,2.3406048921556812,-0.45115315098204606,-1.0598108205807928
17.998,2.3403638992649713,-0.4514905410290397,-1.0582925653693214
18.018,2.340122906374262,-0.4518279310760333,-1.0567743101578504
18.038,2.339881913483552,-0.4521653211230269,-1.055256054946379
18.058,2.3396409205928426,-0.4525027111700205,-1.0537377997349078
18.078,2.3393999277021327,-0.4528401012170141,-1.0522195445234366
18.098000000000003,2.339158934811423,-0.45317749126400775,-1.0507012893119652
18.118000000000002,2.3389179419207133,-0.45351488131100137,-1.0491830341004937
18.138,2.3386769490300034,-0.453852271357995,-1.0476647788890228
18.158,2.3384359561392936,-0.4541896614049886,-1.0461465236775513
18.178,2.338194963248584,-0.4545270514519822,-1.0446282684660801
18.198,2.3379539703578742,-0.4548644414989758,-1.043110013254609
18.218,2.3377129774671648,-0.4552018315459694,-1.0415917580431377
18.238,2.337471984576455,-0.455539221592963,-1.0400735028316666
18.258000000000003,2.337230991685745,-0.4558766116399567,-1.0385552476201951
18.278000000000002,2.3369899987950356,-0.4562140016869503,-1.0370369924087237
18.298000000000002,2.3367490059043257,-0.4565513917339439,-1.0355187371972525
18.318,2.3365080130136158,-0.4568887817809375,-1.0340004819857813
18.338,2.3362670201229063,-0.4572261718279311,-1.0324822267743101
18.358,2.3360260272321964,-0.4575635618749247,-1.030963971562839
18.378,2.3357850343414865,-0.4579009519219183,-1.0294457163513675
18.398,2.335544041450777,-0.45823834196891194,-1.0279274611398965
18.418000000000003,2.335303048560067,-0.4585757320159056,-1.0264092059284249
18.438000000000002,2.3350620556693578,-0.4589131220628992,-1.0248909507169537
18.458000000000002,2.334821062778648,-0.4592505121098928,-1.0233726955054823
18.478,2.334580069887938,-0.4595879021568864,-1.0218544402940113
18.498,2.3343390769972285,-0.45992529220388,-1.0203361850825399
18.518,2.3340980841065186,-0.46026268225087363,-1.018817929871069
18.538,2.333857091215809,-0.46060007229786726,-1.0172996746595975
18.558,2.3336160983250993,-0.4609374623448608,-1.0157814194481263
18.578,2.3333751054343894,-0.46127485239185445,-1.014263164236655
18.598000000000003,2.33313411254368,-0.46161224243884813,-1.0127449090251837
18.618000000000002,2.33289311965297,-0.4619496324858417,-1.0112266538137122
18.638,2.33265212676226,-0.4622870225328353,-1.009708398602241
18.658,2.3324111338715507,-0.46262441257982895,-1.0081901433907698
18.678,2.332170140980841,-0.4629618026268225,-1.0066718881792986
18.698,2.331929148090131,-0.46329919267381614,-1.0051536329678274
18.718,2.3316881551994215,-0.46363658272080976,-1.003635377756356
18.738,2.3314471623087116,-0.4639739727678034,-1.002117122544885
18.758000000000003,2.331206169418002,-0.464311362814797,-1.0005988673334134
18.778000000000002,2.3309651765272923,-0.46464875286179064,-0.9990806121219422
18.798000000000002,2.3307241836365824,-0.46498614290878426,-0.997562356910471
18.818,2.330483190745873,-0.46532353295577783,-0.9960441016989998
18.838,2.330242197855163,-0.46566092300277145,-0.9945258464875285
18.858,2.330001204964453,-0.465998313049765,-0.9930075912760573
18.878,2.3297602120737437,-0.46633570309675865,-0.9914893360645861
18.898,2.329519219183034,-0.46667309314375227,-0.9899710808531148
18.918000000000003,2.3292782262923244,-0.4670104831907459,-0.9884528256416434
18.938000000000002,2.3290372334016145,-0.4673478732377395,-0.9869345704301721
18.958000000000002,2.3287962405109046,-0.46768526328473314,-0.9854163152187009
18.978,2.328555247620195,-0.46802265333172677,-0.9838980600072297
18.998,2.3283142547294853,-0.4683600433787204,-0.9823798047957585
19.018,2.3280732618387754,-0.46869743342571396,-0.9808615495842872
19.038,2.327832268948066,-0.4690348234727076,-0.979343294372816
19.058,2.327591276057356,-0.46937221351970115,-0.9778250391613448
19.078,2.3273502831666466,-0.4697096035666948,-0.9763067839498735
19.098000000000003,2.3271092902759367,-0.47004699361368846,-0.974788528738402
19.118000000000002,2.326868297385227,-0.470384383660682,-0.9732702735269307
19.138,2.3266273044945174,-0.47072177370767565,-0.9717520183154595
19.158,2.3263863116038075,-0.4710591637546693,-0.9702337631039883
19.178,2.3261453187130976,-0.4713965538016629,-0.9687155078925171
19.198,2.325904325822388,-0.4717339438486565,-0.9671972526810458
19.218,2.3256633329316783,-0.4720713338956501,-0.9656789974695746
19.238,2.325422340040969,-0.47240872394264366,-0.9641607422581034
19.258000000000003,2.325181347150259,-0.4727461139896374,-0.9626424870466319
19.278000000000002,2.324940354259549,-0.47308350403663096,-0.9611242318351607
19.298000000000002,2.3246993613688396,-0.4734208940836246,-0.9596059766236894
19.318,2.3244583684781297,-0.47375828413061816,-0.9580877214122182
19.338,2.32421737558742,-0.4740956741776118,-0.956569466200747
19.358,2.3239763826967104,-0.4744330642246054,-0.9550512109892758
19.378,2.3237353898060005,-0.47477045427159903,-0.9535329557778045
19.398,2.323494396915291,-0.4751078443185926,-0.9520147005663333
19.418000000000003,2.323253404024581,-0.4754452343655863,-0.9504964453548618
19.438000000000002,2.3230124111338712,-0.4757826244125799,-0.9489781901433906
19.458000000000002,2.322771418243162,-0.4761200144595735,-0.9474599349319194
19.478,2.322530425352452,-0.4764574045065671,-0.9459416797204481
19.498,2.322289432461742,-0.47679479455356066,-0.9444234245089769
19.518,2.3220484395710326,-0.4771321846005543,-0.9429051692975057
19.538,2.3218074466803227,-0.4774695746475479,-0.9413869140860345
19.558,2.3215664537896132,-0.47780696469454154,-0.9398686588745632
19.578,2.3213254608989033,-0.47814435474153516,-0.938350403663092
19.598000000000003,2.3210844680081935,-0.4784817447885288,-0.9368321484516204
19.618000000000002,2.320843475117484,-0.4788191348355224,-0.9353138932401492
19.638,2.320602482226774,-0.47915652488251603,-0.933795638028678
19.658,2.3203614893360642,-0.4794939149295096,-0.9322773828172067
19.678,2.320120496445355,-0.4798313049765032,-0.9307591276057355
19.698,0.98,-0.76,5.05
19.718,-0.42,1.56,0.18
19.738,0.95,0.86,0.25
19.758000000000003,1.2833333333333392,0.7422222222222203,0.20688888888888812
19.778000000000002,1.350000000000007,0.7199999999999976,0.19799999999999907
19.798000000000002,1.431538461538485,0.6923076923076839,0.18538461538461035
19.818,1.68,0.6,0.14
19.838,2.06,0.37,0.03
19.858,2.1285714285714374,0.3142857142857085,0.0057142857142813645
19.878,2.2120000000000024,0.23733333333333018,-0.05200000000000237
19.898,2.26,0.17,-0.1
19.918000000000003,2.010000000000071,2.9100000000002666,0.5350000000001154
19.938000000000002,3.120000000000071,2.7499999999999645,1.2299999999998223
19.958000000000002,2.769999999999787,2.689999999999183,0.23999999999971577
19.978,1.89,1.09,-0.14
19.998,1.07,1.18,0.52
20.018,0.1059999999999801,1.0419999999999887,0.8520000000000029
20.038,-1.14,2.1,1.34
20.058,-2.0399999999999765,3.6466666666666745,1.4766666666666746
20.078,-1.8080000000000256,3.853999999999963,0.702000000000017
20.098000000000003,-0.42333333333328205,3.076666666666623,0.4
20.118000000000002,0.5600000000001777,1.889999999999396,0.4800000000000355
20.138,0.7233333333333373,-0.1600000000000829,0.5533333333333373
20.158,0.9866666666666863,-1.4700000000000473,0.6
20.178,1.2366666666666706,-2.1066666666666793,0.5533333333333323
20.198,1.383333333333337,-3.483333333333361,0.3666666666666627
20.218,1.21,-2.8099999999999525,0.23666666666666272
20.238,0.9699999999999763,-2.2833333333333257,0.14333333333332543
20.258000000000003,0.446666666666639,-1.8399999999999646,-0.09000000000001185
20.278000000000002,-0.14666666666669825,-1.0266666666666273,-0.3
20.298000000000002,-0.6733333333333491,-0.1966666666666272,-0.2966666666666627
20.318,-0.7733333333333254,0.40333333333334914,-0.20666666666666272
20.338,-0.47999999999997633,0.34333333333331356,-0.10333333333332544
20.358,-0.03666666666665088,0.046666666666650876,0.01333333333333728
20.378,0.11,-0.2800000000000237,-0.07666666666667457
20.398,0.04333333333332544,-0.54,-0.2533333333333373
20.418000000000003,-0.12000000000005329,-0.4399999999999645,-0.24
20.438000000000002,-0.34000000000001773,-0.3549999999999911,-0.19499999999999112
20.458000000000002,-0.27333333333332543,-0.11666666666665088,-0.05333333333332544
20.478,-0.019999999999964473,0.2850000000000622,-0.13000000000003553
20.498,0.3100000000000355,0.8975000000000399,-0.39250000000001334
20.518,0.8949999999999734,0.3649999999999378,-0.4949999999999911
20.538,0.3466666666666272,0.33333333333332543,-0.40333333333332544
20.558,-0.195,0.315,-0.23
20.578,-0.3966666666666588,0.3133333333333294,-0.15333333333334123
20.598000000000003,-0.42,0.720000000000071,0.12000000000003554
20.618000000000002,-0.3166666666666509,1.0933333333333373,0.3033333333333373
20.638,0.05000000000000711,0.9699999999999929,0.4160000000000014
20.658,0.3860000000000085,0.44799999999998297,0.47
20.678,0.44901408450704255,0.1921126760563356,0.4235211267605626
20.698,0.47436619718309786,-0.005070422535205288,0.3615492957746497
20.718,0.4997183098591531,-0.20225352112674616,0.2995774647887369
20.738,0.2574999999999978,-0.3349999999999956,-0.08250000000000222
20.758000000000003,0.22,-0.17833333333333135,-0.15166666666666864
20.778000000000002,0.23,-0.16199999999999573,-0.19600000000000853
20.798000000000002,0.24,-0.27,-0.3650000000000089
20.818,0.24,-0.28,-0.3931818181818188
20.838,0.24,-0.28,-0.3977272727272732
20.858,0.17,-0.29,-0.54
20.878,0.02,0.10888888888889152,-0.48555555555555424
20.898,0.07500000000000001,0.265,-0.415
20.918000000000003,0.11500000000000887,0.22499999999999112,-0.38
20.938000000000002,0.15,0.08999999999998223,-0.33
20.958000000000002,0.14499999999999114,0.03499999999999112,-0.2549999999999911
20.978,0.1,0.02,-0.15333333333332544
20.998,0.05,-0.02,-0.07
21.018,0.03,0.046666666666674565,-0.023333333333325438
21.038,0.03,0.11,0.01
21.058,0.03,0.15,0.01
21.078,0.04,0.15,0.02
21.098000000000003,0.03,0.11,0.006666666666674562
21.118000000000002,-0.015000000000008881,0.05499999999999112,-0.01
21.138,-0.06,0.06666666666667456,0.01
21.158,-0.1,0.1,0.07500000000000889
21.178,-0.06999999999998224,0.06499999999999112,0.05499999999999112
21.198,0.05,0.05,-0.025
21.218,0.15,0.06333333333333728,-0.01333333333333728
21.238,0.04,-0.2,0.045
21.258000000000003,-0.08333333333333728,-0.27,0.15
21.278000000000002,-0.1650000000000089,-0.15999999999996448,0.08999999999998223
21.298000000000002,-0.17,0.10666666666669825,-0.03
21.318,-0.12,0.33,-0.01333333333332544
21.338,-0.009999999999991118,0.25499999999999556,0.01500000000000444
21.358,0.16333333333332545,0.23666666666666272,0.10666666666666272
21.378,0.33499999999999996,0.37,0.175
21.398,0.28666666666667456,0.27000000000001184,0.27666666666666273
21.418000000000003,0.034999999999955594,0.009999999999964471,0.28
21.438000000000002,-0.21666666666667456,-0.23,0.24
21.458000000000002,0.006000000000022739,-0.003999999999977261,0.22599999999999432
