timestamp,gyro_x,gyro_y,gyro_z
0.033,0.06,0.05,0.19
0.053000000000000005,-0.2740000000000002,0.9479999999999998,-0.04400000000000016
0.07300000000000001,-0.5533333333333333,0.40333333333333343,-0.1999999999999997
0.09300000000000001,-0.4866666666666667,0.17999999999999972,0.026666666666666575
0.11300000000000002,-0.2966666666666666,-0.25000000000000017,-0.29000000000000015
0.133,-0.3466666666666667,-0.2,-0.5966666666666667
0.15300000000000002,-0.4900000000000001,0.05000000000000028,-0.8500000000000001
0.17300000000000001,-0.6500000000000004,0.4350000000000004,-1.0450000000000004
0.19300000000000003,-0.8250000000000004,0.8250000000000013,-1.385000000000001
0.21300000000000005,-0.9840000000000001,1.068,-1.6560000000000001
0.23300000000000004,-1.3033333333333337,0.8599999999999997,-2.5400000000000005
0.253,-1.4166666666666665,0.7433333333333333,-2.8566666666666665
0.273,-1.39,0.66,-2.96
0.29300000000000004,-1.2299999999999998,0.7100000000000002,-3.1400000000000006
0.31300000000000006,-0.6333333333333309,0.38666666666666516,-3.296666666666667
0.3330000000000001,0.22333333333333483,-0.18666666666667128,-3.309999999999999
0.3530000000000001,0.9780000000000024,-0.49400000000000066,-2.9839999999999987
0.3730000000000001,1.4900000000000007,-0.3749999999999986,-2.4549999999999987
0.3930000000000001,1.2899999999999987,0.15000000000000194,-1.9899999999999984
0.41300000000000003,0.8799999999999989,0.6500000000000008,-1.5399999999999991
0.43300000000000005,0.5399999999999998,0.8099999999999998,-1.2899999999999996
0.45300000000000007,0.5500000000000006,0.5299999999999989,-1.1399999999999995
0.4730000000000001,0.8633333333333352,0.30333333333333407,-0.983333333333333
0.4930000000000001,1.029999999999999,-0.05000000000000665,-0.903333333333333
0.5130000000000001,1.06,0.09000000000000721,-0.7700000000000011
0.5330000000000001,1.030000000000001,1.2200000000000033,-0.9600000000000005
0.5530000000000002,1.5400000000000038,1.8200000000000027,-1.1800000000000015
0.5730000000000002,1.9699999999999844,1.699999999999951,-1.5500000000000012
0.5930000000000001,0.636666666666667,-1.4033333333333275,-1.4866666666666637
0.6130000000000001,-0.32000000000001166,-0.20999999999999167,-0.7199999999999972
0.6330000000000001,-1.7000000000000048,0.7600000000000019,-0.8900000000000026
0.6530000000000001,-2.563333333333336,-0.05333333333334074,-1.3533333333333353
0.6730000000000002,-2.82,-1.2950000000000084,-1.2049999999999972
0.6930000000000002,-2.5366666666666604,-2.0400000000000067,-1.1133333333333348
0.7130000000000002,-1.2499999999999838,-2.560000000000008,-1.640000000000006
0.7330000000000002,0.4100000000000126,-3.6700000000000075,-2.390000000000007
0.7530000000000002,1.3000000000000178,-4.330000000000018,-3.020000000000018
0.7730000000000001,1.299999999999997,-5.190000000000004,-3.2699999999999987
0.7930000000000001,-0.17000000000001333,-6.070000000000004,-2.539999999999992
0.8130000000000002,-2.140000000000023,-6.099999999999994,-1.4499999999999877
0.8330000000000002,-3.370000000000004,-5.549999999999999,-0.8399999999999977
0.8530000000000002,-3.840000000000002,-5.740000000000007,-0.509999999999997
0.8730000000000002,-3.7599999999999945,-6.700000000000013,-0.06999999999999224
0.8930000000000002,-3.409999999999999,-7.220000000000003,0.7400000000000155
0.9130000000000001,-3.3499999999999983,-7.19,1.8600000000000079
0.9330000000000002,-2.6599999999999917,-7.179999999999997,2.7100000000000044
0.9530000000000002,-1.6199999999999923,-6.269999999999977,3.04
0.9730000000000002,-1.36,-4.459999999999984,3.110000000000002
0.9930000000000002,-1.109999999999995,-2.8199999999999865,3.1699999999999964
1.0130000000000001,-0.4299999999999978,-1.8183333333333314,2.579999999999998
1.0330000000000001,0.6600000000000045,-1.3399999999999972,1.399999999999994
1.0530000000000002,0.99,-0.7399999999999889,0.6399999999999911
1.0730000000000002,0.8199999999999966,0.04000000000000888,0.009999999999991118
1.0930000000000002,0.6299999999999989,0.5200000000000056,-0.6500000000000089
1.1130000000000002,0.59,0.8800000000000056,-1.390000000000011
1.1330000000000002,0.47999999999999776,1.6500000000000092,-2.1500000000000044
1.153,-0.05,3.16,-2.69
1.173,-0.7200000000000008,3.3033333333333306,-3.5800000000000036
1.193,-0.45,2.51,-4.9
1.213,0.5,3.34,-6.17
1.233,1.5,5.11,-6.78
1.2530000000000001,3.0900000000000274,6.220000000000005,-7.3100000000000085
1.2730000000000001,5.160000000000029,6.189999999999993,-7.970000000000008
1.2930000000000001,6.960000000000021,5.279999999999979,-8.139999999999993
1.3130000000000002,8.616666666666676,2.866666666666647,-6.809999999999982
1.3330000000000002,8.799999999999992,0.869999999999997,-3.6633333333333176
1.3530000000000002,6.726666666666648,0.7433333333333294,-1.9033333333333249
1.3730000000000002,2.9866666666666424,-0.850000000000003,-0.6633333333333279
1.3930000000000002,-0.08333333333336097,0.2800000000000089,0.2366666666666805
1.4130000000000003,-1.900000000000018,-0.6333333333333581,1.953333333333364
1.4330000000000003,-3.0933333333333404,-2.6466666666666807,4.346666666666687
1.4530000000000003,-3.042499999999994,-2.7399999999999967,4.49749999999999
1.4730000000000003,-2.5399999999999956,-3.4900000000000277,4.050000000000011
1.493,-2.44,-5.74,5.78
1.5130000000000001,-2.6333333333333355,-6.29333333333333,7.776666666666676
1.5330000000000001,-2.773333333333332,-5.659999999999998,9.100000000000005
1.5530000000000002,-2.2199999999999958,-5.423333333333331,9.013333333333328
1.5730000000000002,-1.82,-4.089999999999963,8.149999999999993
1.5930000000000002,-1.8633333333333324,-1.5666666666666558,7.7633333333333265
1.6130000000000002,-1.1999999999999895,-0.08999999999998667,5.159999999999955
1.6330000000000002,-0.37499999999999833,0.935000000000005,0.25499999999997836
1.6530000000000002,-0.6800000000000133,1.1349999999999982,0.8950000000000216
1.6730000000000003,-0.9524999999999975,1.36000000000001,-0.80000000000004
1.6930000000000003,-0.3949999999999817,3.09000000000004,-4.930000000000077
1.7130000000000003,0.7466666666666834,4.290000000000003,-7.540000000000018
1.7330000000000003,2.053333333333341,4.1133333333333315,-8.243333333333334
1.7530000000000003,3.05000000000002,4.060000000000004,-8.600000000000026
1.7730000000000004,3.4166666666666656,4.136666666666669,-10.266666666666698
1.7930000000000001,3.276666666666666,4.513333333333335,-12.080000000000007
1.8130000000000002,3.350000000000009,4.409999999999985,-12.549999999999999
1.8330000000000002,3.840000000000001,3.4539999999999966,-12.212
1.8530000000000002,4.203333333333336,2.5166666666666617,-11.649999999999991
1.8730000000000002,4.146666666666657,0.24333333333331014,-7.176666666666619
1.8930000000000002,1.0666666666666182,-1.3399999999999912,-0.7766666666666064
1.9130000000000003,-2.5600000000000334,1.112500000000034,2.6575000000000193
1.9330000000000003,-4.843333333333343,2.656666666666654,3.853333333333355
1.9530000000000003,-4.139999999999976,-0.30000000000004146,6.640000000000041
1.9730000000000003,-1.7999999999999465,-2.250000000000017,9.645000000000053
1.9930000000000003,0.2450000000000283,-2.6700000000000035,10.294999999999964
2.0130000000000003,0.7733333333333314,-3.1666666666666776,7.073333333333292
2.0330000000000004,0.4349999999999889,-3.8750000000000155,5.510000000000009
2.0530000000000004,0.03999999999998224,-4.109999999999996,7.060000000000071
2.0730000000000004,-0.5433333333333373,-3.4833333333333254,9.200000000000015
2.0930000000000004,-0.8350000000000111,-3.4300000000000135,8.974999999999945
2.1130000000000004,-1.09,-3.990000000000009,6.369999999999938
2.1330000000000005,-0.9774999999999991,-3.6249999999999885,5.78000000000001
2.1530000000000005,-1.0100000000000133,-2.269999999999929,7.130000000000035
2.1730000000000005,-1.5750000000000117,-0.6999999999999666,5.724999999999925
2.1930000000000005,-1.8099999999999912,0.5500000000000134,0.8099999999998846
2.2130000000000005,-0.7549999999999623,0.5350000000000111,0.1200000000000311
2.2330000000000005,-0.15833333333333272,1.3300000000000112,-0.9333333333333604
2.2530000000000006,-0.0499999999999926,2.513333333333351,-4.67666666666676
2.273,0.2766666666666716,2.9033333333333373,-6.770000000000015
2.293,0.5450000000000012,3.045000000000001,-7.645000000000008
2.313,0.5466666666666672,3.4033333333333373,-8.076666666666668
2.333,0.8650000000000078,3.9800000000000044,-8.550000000000011
2.353,1.4250000000000056,3.819999999999993,-9.510000000000012
2.373,1.6733333333333342,3.4133333333333313,-10.1
2.3930000000000002,1.7800000000000022,3.5200000000000045,-9.764999999999993
2.4130000000000003,1.9550000000000034,3.4199999999999933,-9.224999999999989
2.4330000000000003,2.2466666666666684,2.6766666666666596,-8.353333333333326
2.4530000000000003,2.7933333333333388,0.9933333333333165,-6.3266666666666405
2.4730000000000003,3.186666666666663,-1.6066666666666745,-0.559999999999966
2.4930000000000003,1.456666666666651,-1.2433333333333239,3.413333333333349
2.5130000000000003,-1.4350000000000867,0.26500000000002444,5.480000000000066
2.5330000000000004,-3.9125000000000174,1.0200000000000067,7.800000000000024
2.5530000000000004,-4.439999999999977,1.0749999999999846,9.805000000000039
2.5730000000000004,-2.6199999999999557,-0.18333333333336738,10.249999999999988
2.5930000000000004,-0.6399999999999733,-1.9420000000000255,8.541999999999963
2.6130000000000004,0.8666666666666815,-3.4033333333333453,5.593333333333305
2.6330000000000005,1.23,-3.6450000000000022,5.485000000000029
2.6530000000000005,0.9466666666666568,-3.6133333333333257,6.946666666666698
2.6730000000000005,0.23499999999997556,-3.1049999999999844,7.329999999999991
2.6930000000000005,-0.5933333333333491,-2.6833333333333256,6.443333333333301
2.7130000000000005,-1.0200000000000133,-2.529999999999991,5.259999999999942
2.7330000000000005,-1.0766666666666629,-2.256666666666663,4.8566666666666745
2.7530000000000006,-0.7033333333333254,-1.9866666666666568,5.059999999999988
2.7730000000000006,-0.6249999999999967,-1.30999999999996,3.5399999999999068
2.7930000000000006,-0.48333333333333134,-0.41666666666665086,0.849999999999923
2.8130000000000006,-0.03999999999998335,-0.029999999999986683,-0.9300000000000066
2.8330000000000006,0.2899999999999934,0.965000000000025,-1.5500000000000398
2.8530000000000006,-0.42000000000001037,2.3300000000000134,-4.6900000000000555
2.8730000000000007,-0.69,2.64,-6.780000000000036
2.8930000000000007,-0.5099999999999956,2.4999999999999956,-7.650000000000011
2.9130000000000007,-0.26333333333333137,1.9133333333333193,-8.52000000000002
2.9330000000000003,-0.3600000000000133,1.62,-9.020000000000021
2.9530000000000003,-0.6666666666666686,1.8466666666666687,-9.306666666666668
2.9730000000000003,-0.9300000000000015,2.193333333333336,-9.169999999999998
2.9930000000000003,-1.1300000000000028,2.7000000000000104,-8.779999999999989
3.0130000000000003,-1.23,3.3100000000000103,-7.8899999999999775
3.0330000000000004,-1.079999999999994,3.710000000000003,-6.62999999999998
3.0530000000000004,-0.5333333333333141,3.7766666666666637,-6.139999999999995
3.0730000000000004,1.4100000000000383,1.809999999999929,-4.479999999999929
3.0930000000000004,2.950000000000012,-2.810000000000074,0.810000000000117
3.1130000000000004,2.679999999999972,-3.7799999999999585,6.180000000000064
3.1330000000000005,0.7519999999999659,-0.8079999999999542,8.35600000000002
3.1530000000000005,-1.810000000000049,1.3300000000000112,9.620000000000024
3.1730000000000005,-2.730000000000001,0.9499999999999857,10.360000000000003
3.1930000000000005,-2.1199999999999766,-0.9500000000000444,9.679999999999973
3.2130000000000005,-0.4699999999999674,-3.0200000000000164,8.409999999999966
3.2330000000000005,0.6233333333333432,-3.173333333333326,6.276666666666616
3.2530000000000006,0.49999999999999406,-2.5799999999999943,5.0199999999999925
3.2730000000000006,0.06666666666665089,-2.3766666666666567,4.699999999999982
3.2930000000000006,-0.7000000000000103,-1.889999999999994,3.779999999999982
3.3130000000000006,-1.250000000000006,-1.75,2.8899999999999926
3.3330000000000006,-1.229999999999991,-1.7800000000000016,2.9400000000000075
3.3530000000000006,-0.5699999999999822,-1.9200000000000044,3.260000000000002
3.3730000000000007,0.050000000000013325,-2.0499999999999976,3.27
3.3930000000000007,0.27999999999999114,-1.73999999999996,2.78999999999992
3.4130000000000007,-0.21000000000003996,-0.9199999999999423,0.6799999999998713
3.4330000000000007,-0.62,-0.06999999999996004,-0.8100000000000223
3.4530000000000007,-0.5000000000000044,0.870000000000071,-1.520000000000111
3.4730000000000008,-0.8700000000000311,1.9300000000000443,-4.180000000000155
3.4930000000000008,-1.440000000000031,2.5500000000000265,-6.380000000000053
3.513000000000001,-1.7666666666666697,2.863333333333348,-6.443333333333313
3.533000000000001,-1.840000000000006,3.5100000000000264,-6.2900000000000205
3.5530000000000004,-1.749999999999994,4.300000000000015,-7.150000000000021
3.5730000000000004,-1.3499999999999883,4.980000000000009,-7.910000000000006
3.5930000000000004,-0.5874999999999848,5.397500000000007,-7.944999999999998
3.6130000000000004,0.47000000000002884,5.820000000000009,-7.629999999999991
3.6330000000000005,1.5600000000000178,5.869999999999991,-7.289999999999993
3.6530000000000005,2.34000000000001,5.07999999999998,-6.799999999999989
3.6730000000000005,2.5499999999999985,4.129999999999988,-6.269999999999991
3.6930000000000005,2.5000000000000067,3.699999999999987,-5.859999999999983
3.7130000000000005,3.046666666666683,1.9833333333332728,-3.446666666666585
3.7330000000000005,3.6525000000000043,-2.0150000000000747,1.6950000000001082
3.7530000000000006,3.08666666666662,-3.4999999999999556,6.826666666666745
3.7730000000000006,0.9699999999999437,-1.2499999999999496,7.7499999999999885
3.7930000000000006,-2.2400000000000553,0.7200000000000166,7.487500000000012
3.8130000000000006,-4.510000000000031,0.5399999999999756,9.470000000000072
3.8330000000000006,-5.0242857142857105,-0.42142857142858775,11.145714285714291
3.8530000000000006,-3.8633333333332764,-1.800000000000037,10.383333333333262
3.8730000000000007,-2.169999999999972,-2.5500000000000087,7.269999999999936
3.8930000000000007,-0.931999999999983,-2.902000000000004,4.647999999999968
3.9130000000000007,-0.06999999999996892,-2.98,3.9900000000000135
3.9330000000000007,0.3,-2.8066666666666564,4.069999999999992
3.9530000000000007,0.25,-2.363333333333321,3.7166666666666566
3.9730000000000008,0.3700000000000133,-2.1399999999999957,3.5299999999999954
3.9930000000000008,0.6633333333333432,-2.103333333333328,3.5966666666666716
4.013000000000001,0.9266666666666745,-1.6799999999999644,3.7066666666666626
4.033000000000001,1.0566666666666629,-0.7899999999999526,3.283333333333278
4.053000000000001,0.7399999999999867,-0.16999999999999335,1.4699999999999467
4.073000000000001,0.019999999999911183,0.10000000000003553,-0.7100000000001598
4.093000000000001,-0.5200000000000133,0.7800000000000444,-1.75000000000008
4.113000000000001,-0.5033333333333254,1.4333333333333491,-3.856666666666793
4.133000000000001,-0.36,1.4792307692307682,-6.25769230769233
4.153000000000001,-0.5100000000000888,1.5200000000000533,-7.440000000000125
4.173000000000001,-1.0100000000000149,1.9700000000000266,-7.790000000000012
4.193000000000001,-1.3900000000000117,2.7933333333333725,-8.270000000000024
4.213000000000001,-1.5800000000000178,3.320000000000062,-8.540000000000008
4.233000000000001,-1.617499999999997,4.032500000000015,-8.436249999999996
4.253000000000001,-1.3899999999999881,5.143333333333397,-8.159999999999988
4.2730000000000015,-0.9333333333333017,6.366666666666711,-7.689999999999964
4.293000000000001,-0.12999999999995265,6.779999999999988,-6.646666666666603
4.3130000000000015,1.000000000000071,6.116666666666603,-5.8066666666666515
4.333000000000001,2.484000000000051,4.277999999999921,-5.437999999999974
4.3530000000000015,4.010000000000028,0.3371428571427215,-3.322857142857055
4.373000000000001,3.6633333333332545,-4.91000000000006,2.2866666666668993
4.393000000000002,1.2649999999997537,-3.20499999999974,5.850000000000186
4.413000000000001,-1.5900000000001997,-0.9199999999998933,7.7050000000001395
4.433000000000002,-3.0900000000000403,-0.7550000000000999,9.375000000000126
4.453000000000001,-2.6019999999999577,-2.224000000000052,10.33600000000001
4.473000000000002,-1.337999999999953,-3.538000000000051,9.545999999999927
4.493000000000001,-0.28999999999992004,-3.989999999999973,7.814999999999847
4.513000000000001,0.40666666666668644,-3.749999999999988,6.223333333333278
4.533000000000001,0.6750000000000062,-3.5787499999999985,5.812500000000003
4.553000000000001,0.8257142857142846,-3.2614285714285614,5.482857142857131
4.573000000000001,0.5833333333333136,-2.716666666666651,4.283333333333278
4.593000000000001,-0.060000000000044414,-2.3599999999999643,3.6049999999999955
4.613000000000001,-0.48,-1.56499999999994,4.01500000000006
4.633000000000001,0.01666666666671009,-1.2466666666666628,4.466666666666662
4.653000000000001,0.7666666666667012,-1.2366666666666717,3.6699999999998965
4.673000000000001,0.43666666666660353,-1.1866666666666508,1.49666666666658
4.693000000000001,-1.12000000000012,-0.11999999999985346,0.66499999999998
4.713000000000001,-2.300000000000018,1.7066666666667043,-0.3733333333333847
4.733000000000001,-2.519999999999988,2.4166666666666625,-3.3500000000001657
4.753000000000001,-1.9199999999999466,2.234999999999993,-5.7350000000001
4.7730000000000015,-1.3099999999999468,2.5600000000000533,-6.645000000000073
4.793000000000001,-0.71999999999996,3.1050000000000333,-7.8450000000001125
4.8130000000000015,-0.3099999999999852,3.453333333333358,-8.8766666666667
4.833000000000001,8.881784197001442e-15,4.000000000000016,-9.12
4.8530000000000015,0.3200000000000059,4.717500000000016,-8.999999999999995
4.873000000000001,0.7050000000000166,5.450000000000012,-8.457499999999975
4.893000000000002,1.20000000000004,5.4449999999999665,-7.4349999999999
4.913000000000001,1.9900000000000932,4.829999999999919,-6.224999999999886
4.933000000000002,2.9914285714285858,3.2257142857142167,-4.582857142857083
4.953000000000001,2.9279999999999746,-0.646000000000162,-1.2079999999998465
4.973000000000002,1.4549999999998335,-3.319999999999973,3.5550000000003
4.993000000000001,-0.7028571428571893,-2.088571428571395,5.811428571428605
5.013000000000002,-3.1550000000001863,-0.9699999999999644,8.085000000000223
5.033000000000001,-4.03,-1.0350000000000334,9.740000000000121
5.053000000000002,-3.4699999999998576,-1.750000000000142,10.044999999999867
5.073000000000001,-1.4349999999997802,-3.3400000000001064,8.1699999999998
5.093000000000002,0.7250000000001511,-3.995000000000009,5.829999999999822
5.113000000000001,1.50500000000002,-3.7749999999999666,5.119999999999987
5.133000000000002,1.4149999999999778,-3.2199999999999642,4.939999999999982
5.153000000000001,0.7899999999999834,-2.619999999999987,4.584999999999992
5.173000000000001,-0.11000000000001778,-2.029999999999988,4.436666666666669
5.193000000000001,-0.34999999999997333,-1.6799999999999866,4.61500000000002
5.213000000000001,0.2733333333333551,-1.8033333333333372,4.840000000000006
5.233000000000001,1.3000000000000933,-1.7799999999999734,4.95999999999996
5.253000000000001,1.7854545454545407,-1.2945454545454465,3.4372727272726777
5.2730000000000015,0.4766666666665532,-0.9399999999999852,-0.8566666666668492
5.293000000000001,-1.240000000000071,-0.09666666666661139,-2.2066666666667065
5.3130000000000015,-2.4500000000000592,0.9566666666667308,-3.6100000000001184
5.333000000000001,-3.233333333333365,1.916666666666706,-5.456666666666753
5.3530000000000015,-3.634000000000009,2.6560000000000343,-6.714000000000037
5.373000000000001,-3.5066666666666473,3.736666666666718,-7.340000000000024
5.393000000000002,-2.989999999999947,4.5900000000000665,-7.950000000000067
5.413000000000001,-2.2566666666666126,5.3133333333333725,-8.493333333333343
5.433000000000002,-1.2133333333332543,6.0233333333333725,-8.433333333333314
5.453000000000001,-0.005999999999970154,6.41800000000001,-8.033999999999988
5.473000000000002,1.8300000000001067,6.714999999999953,-7.01999999999992
5.493000000000001,3.380000000000104,5.556666666666568,-6.1633333333332985
5.513000000000002,4.720000000000059,4.226666666666612,-6.116666666666672
5.533000000000001,5.11499999999998,2.9049999999998466,-5.789999999999867
5.553000000000002,4.441999999999975,0.5919999999999404,-3.0859999999999204
5.573000000000001,2.1099999999999333,-2.54999999999998,3.6900000000001465
5.593000000000002,-0.22000000000013323,-0.3699999999998401,7.445000000000156
5.613000000000001,-2.40000000000005,0.6499999999999497,9.380000000000042
5.633000000000002,-3.14,-1.1900000000001183,10.210000000000042
5.653000000000001,-2.899999999999992,-2.080000000000008,10.309999999999995
5.673000000000002,-2.209999999999941,-2.4266666666666863,9.146666666666524
5.693000000000001,-1.199999999999929,-3.170000000000053,6.629999999999864
5.713000000000002,-0.5099999999999792,-3.469999999999997,5.910000000000018
5.733000000000001,-0.07,-2.9999999999999747,6.049999999999979
5.753000000000002,-0.2233333333333412,-2.3733333333333118,5.246666666666635
5.7730000000000015,-0.4749999999999911,-2.124999999999997,4.069999999999976
5.793000000000002,-0.40000000000001185,-1.9599999999999527,3.58999999999997
5.8130000000000015,-0.59,-1.2899999999999794,3.249999999999988
5.833000000000001,-0.5464705882352928,-0.8552941176470571,3.024117647058821
5.8530000000000015,-0.16909090909090072,-0.5963636363636335,2.394545454545435
5.873000000000001,0.03999999999998224,-0.4599999999999971,0.2699999999999201
5.893000000000002,-0.40800000000000997,-0.29799999999998866,-1.0020000000000184
5.913000000000001,-1.3033333333333876,1.1000000000000887,-2.5900000000001038
5.933000000000002,-2.0700000000000176,2.1900000000000235,-4.5800000000000685
5.953000000000001,-2.32,2.660000000000015,-6.0800000000000445
5.973000000000002,-2.0399999999999765,3.290000000000059,-7.420000000000071
5.993000000000001,-1.659999999999985,4.100000000000026,-8.090000000000014
6.013000000000002,-1.189999999999975,4.730000000000025,-8.199999999999989
6.033000000000001,-0.4966666666666496,5.2233333333333425,-7.916666666666661
6.053000000000002,0.9800000000001124,5.930000000000024,-7.489999999999976
6.073000000000001,2.4700000000000664,5.739999999999974,-7.2174999999999905
6.093000000000002,4.200000000000118,4.539999999999887,-6.7699999999999525
6.113000000000001,5.42000000000004,2.809999999999907,-6.039999999999973
6.133000000000002,5.93,0.8899999999998623,-5.41999999999992
6.153000000000001,5.604782608695643,-1.0860869565217681,-3.980869565217364
6.173000000000002,3.5599999999997602,-3.4199999999998223,2.360000000000595
6.193000000000001,0.779999999999627,-0.49999999999963585,6.630000000000302
6.213000000000002,-2.430000000000311,1.2599999999999556,8.97000000000024
6.233000000000001,-4.620000000000044,0.32999999999996704,10.810000000000047
6.253000000000002,-5.234545454545456,-0.3945454545454722,11.858181818181839
6.2730000000000015,-3.8799999999998342,-2.2100000000000946,11.829999999999822
6.293000000000002,-1.6699999999998134,-3.040000000000009,8.719999999999565
6.3130000000000015,-0.7799999999998402,-3.0599999999999823,5.989999999999432
6.333000000000002,-0.26999999999999647,-2.799999999999982,4.64
6.3530000000000015,-0.34333333333333727,-2.4066666666666565,4.639999999999997
6.373000000000002,-0.7700000000000267,-1.5299999999999556,4.219999999999955
6.393000000000002,-0.7399999999999763,-1.5400000000000238,3.8099999999999703
6.413000000000002,-0.22999999999993784,-1.9100000000000354,3.4799999999999556
6.433000000000002,0.09000000000005329,-2.0299999999999643,3.2399999999999647
6.453000000000001,0.12549999999999842,-1.5064999999999953,2.8619999999999934
6.473000000000002,-0.30333333333336787,-0.4066666666666173,0.6299999999998224
6.493000000000001,-0.9600000000000356,0.2066666666666864,-2.1066666666667455
6.513000000000002,-1.340000000000009,0.5900000000000621,-2.44
6.533000000000001,-1.4199999999999984,1.5500000000000207,-3.0200000000000236
6.553000000000002,-1.3444444444444428,2.2988888888889005,-4.2322222222222585
6.573000000000001,-1.5100000000000178,3.0800000000000534,-6.32000000000008
6.593000000000002,-1.6799999999999822,4.160000000000107,-7.190000000000063
6.613000000000001,-1.2833333333333017,5.070000000000023,-7.930000000000036
6.633000000000002,-0.6399999999999771,5.570000000000015,-8.530000000000017
6.653000000000001,-0.05281249999999428,6.024062500000005,-8.8546875
6.673000000000002,0.01593750000000725,6.080312500000006,-8.873437500000003
6.693000000000001,2.410000000000151,6.739999999999929,-8.559999999999965
6.713000000000002,3.657500000000037,5.768749999999955,-8.202499999999985
6.733000000000001,4.341428571428573,4.208571428571414,-7.643809523809517
6.753000000000002,4.37,3.9799999999995204,-7.519999999999733
6.7730000000000015,1.9899999999997335,-1.1300000000002397,-1.3999999999994048
6.793000000000002,-0.41000000000026643,-1.3299999999998047,4.160000000000515
6.8130000000000015,-2.556000000000045,-0.9060000000000323,8.134000000000116
6.833000000000002,-3.2833333333333194,-1.9766666666667634,11.466666666666866
6.8530000000000015,-2.485999999999946,-3.0460000000000456,12.29799999999998
6.873000000000002,-1.391111111111079,-3.7622222222222406,10.857777777777697
6.893000000000002,-0.7066666666666469,-3.736666666666647,7.343333333333264
6.913000000000002,-0.1899999999999467,-3.609999999999988,6.96999999999997
6.933000000000002,0.16749999999999668,-3.18749999999997,6.2649999999999535
6.953000000000002,-0.2160000000000208,-2.503999999999979,5.023999999999956
6.973000000000002,-1.0200000000000295,-1.7899999999999705,3.9599999999999853
6.993000000000002,-1.1533333333333193,-1.4333333333333194,3.8666666666666596
7.013000000000002,-0.7485714285714054,-1.3628571428571488,3.7242857142857027
7.033000000000002,-0.05666666666659759,-1.5033333333333403,3.4099999999999793
7.053000000000002,0.6875000000000236,-1.5424999999999953,3.228749999999993
7.073000000000001,1.2200000000000355,-1.3599999999999646,2.739999999999876
7.093000000000002,0.95999999999992,-0.9199999999999645,0.2999999999997602
7.113000000000001,0.25599999999998263,-0.6979999999999975,-0.8419999999999901
7.133000000000002,-0.12666666666667456,-0.5399999999999882,-0.5100000000000119
7.153000000000001,-0.8940000000000299,0.3920000000000256,-3.3280000000000918
7.173000000000002,-2.265000000000133,1.4550000000000978,-6.13000000000016
7.193000000000001,-3.083333333333349,2.4800000000000595,-6.716666666666675
7.213000000000002,-2.8249999999999202,3.6850000000000978,-7.030000000000071
7.233000000000001,-1.8549999999999134,4.315000000000033,-7.84500000000006
7.253000000000002,-0.9799999999999467,4.595000000000022,-8.295000000000012
7.2730000000000015,-0.2499999999999886,4.920000000000005,-8.425
7.293000000000002,1.3400000000001997,5.455000000000011,-8.259999999999955
7.3130000000000015,2.956666666666757,5.176666666666628,-7.863333333333314
7.333000000000002,4.59500000000007,3.8624999999998852,-7.5349999999999895
7.3530000000000015,5.132000000000002,2.3479999999999723,-7.365999999999994
7.373000000000002,3.9249999999997,0.09499999999974465,-5.314999999999545
7.393000000000002,1.206666666666484,-1.2700000000000295,-0.5899999999996299
7.413000000000002,-1.930000000000222,-0.3049999999998612,4.985000000000305
7.433000000000002,-4.270000000000106,1.070000000000006,7.8400000000001535
7.453000000000002,-4.8371428571428465,0.15857142857136602,9.391428571428616
7.473000000000002,-4.1307692307692205,-1.3938461538461688,10.308461538461545
7.493000000000002,-1.7499999999995914,-3.860000000000231,10.939999999999857
7.513000000000002,-0.39199999999998436,-4.497999999999996,8.677999999999859
7.533000000000002,-0.5600000000000415,-4.259999999999938,6.623333333333236
7.553000000000002,-1.1050000000000249,-3.41999999999996,6.18
7.573000000000002,-1.61714285714287,-2.5542857142856947,6.009999999999988
7.593000000000002,-2.4066666666666863,-1.9033333333333136,4.269999999999926
7.613000000000002,-2.2499999999999556,-1.7525000000000055,3.6974999999999945
7.633000000000002,-1.2599999999999378,-1.9900000000000175,3.6099999999999914
7.653000000000002,-0.34714285714281923,-2.1914285714285784,3.2857142857142647
7.673000000000002,0.4166666666667012,-2.2433333333333287,2.7633333333333137
7.693000000000002,0.8966666666666983,-1.829999999999929,2.33666666666658
7.713000000000002,0.613333333333284,-0.8633333333332691,0.649999999999852
7.733000000000001,-0.4166666666667308,-0.11999999999995559,-1.003333333333358
7.753000000000002,-1.160000000000046,0.6900000000000692,-1.154000000000037
7.7730000000000015,-1.6566666666666716,2.226666666666731,-2.7533333333334618
7.793000000000002,-1.4566666666666321,2.63,-5.08666666666686
7.8130000000000015,-1.1299999999999732,2.7850000000000463,-6.625000000000087
7.833000000000002,-0.8049999999999444,3.450000000000089,-7.420000000000089
7.8530000000000015,-0.35333333333332767,3.8371428571428594,-8.088571428571438
7.873000000000002,0.24333333333336787,4.146666666666694,-8.963333333333368
7.893000000000002,0.5500000000000178,4.840000000000059,-9.21
7.913000000000002,0.8100000000000178,5.690000000000045,-9.10999999999999
7.933000000000002,1.1700000000001598,6.210000000000018,-8.839999999999929
7.953000000000002,2.0200000000001155,5.799999999999884,-8.169999999999893
7.973000000000002,2.857142857142872,4.839999999999979,-7.444285714285702
7.993000000000002,4.029999999999965,1.2899999999997396,-5.419999999999775
8.013000000000002,2.719999999999858,-1.980000000000142,-1.2999999999996092
8.033000000000001,0.718749999999945,-1.966249999999955,3.4550000000001
8.053,-2.19,0.51,7.47
8.073,-3.28,-0.39,10.22
8.093000000000002,-2.8399999999999053,-2.6100000000001895,12.116666666666793
8.113000000000001,-1.736666666666639,-3.6166666666666742,12.79
8.133000000000001,-0.696666666666645,-3.43333333333332,11.026666666666598
8.153,-0.17777777777777076,-3.0022222222222132,8.894444444444412
8.173000000000002,-0.17000000000015988,-1.8899999999998045,5.449999999999556
8.193000000000001,-1.1000000000000474,-1.3199999999999883,4.389999999999976
8.213000000000001,-1.5800000000000134,-0.9699999999999733,3.849999999999969
8.233,-1.56,-0.83,3.34
8.253000000000002,-0.7149999999998846,-1.1650000000000444,2.7099999999999467
8.273000000000001,0.5000000000000829,-1.7100000000000473,2.2899999999999703
8.293000000000001,1.2600000000000295,-2.09,2.2500000000000235
8.313,1.3,-1.73,2.44
8.333000000000002,0.8399999999998579,-0.9299999999997691,2.06999999999968
8.353000000000002,0.09999999999997336,0.05000000000002221,-0.2600000000000977
8.373000000000001,-0.08052631578947526,0.11947368421052475,-0.8705263157894753
8.393,0.16,0.38,-2.55
8.413,-0.5,1.31,-5.83
8.433000000000002,-1.6100000000000578,1.8700000000000445,-7.400000000000031
8.453000000000001,-2.210416666666669,2.565000000000005,-7.750416666666669
8.473,-2.3,2.88,-7.9
8.493,-1.33,3.89,-8.63
8.513000000000002,-0.25999999999992895,4.430000000000026,-8.469999999999986
8.533000000000001,1.0800000000001422,4.760000000000009,-8.119999999999955
8.553,2.18,4.53,-7.69
8.573,2.5696296296296297,4.264074074074074,-7.376666666666667
8.593000000000002,3.710000000000151,3.2999999999999288,-6.059999999999893
8.613000000000001,5.090000000000059,2.3099999999998815,-4.6399999999997865
8.633000000000001,4.981666666666654,0.3983333333332988,-1.3016666666666064
8.653,2.53,-2.04,3.92
8.673000000000002,-0.4900000000002191,-0.9299999999998579,5.260000000000006
8.693000000000001,-3.2833333333334025,0.523333333333361,5.636666666666686
8.713000000000001,-5.5300000000001335,1.2700000000000178,6.850000000000151
8.733,-5.747499999999988,0.7424999999999811,8.042500000000013
8.753000000000002,-3.729999999999689,-1.630000000000293,7.899999999999858
8.773000000000001,-1.9853846153845687,-3.0876923076923415,6.923076923076894
8.793000000000001,0.8100000000000711,-4.369999999999947,4.789999999999982
8.813,1.02,-3.57,5.41
8.833000000000002,0.7949999999999889,-2.8674999999999833,6.697500000000073
8.853000000000002,0.9300000000000237,-2.7499999999999765,6.849999999999929
8.873000000000001,1.1910526315789496,-2.4942105263157845,5.84421052631577
8.893,0.34,-1.5,3.16
8.913000000000002,-1.1900000000001154,-0.4699999999998934,3.200000000000089
8.933000000000002,-1.6724999999999943,0.17750000000002775,3.724999999999989
8.953000000000001,-1.3599999999999113,0.19999999999994672,2.709999999999556
8.973,-1.193636363636364,0.12090909090909202,0.7599999999999879
8.993,-1.35,0.7,-0.64
9.013000000000002,-1.45,1.4900000000000593,-1.3800000000001125
9.033000000000001,-1.3319999999999916,2.11200000000002,-3.292000000000091
9.053,-0.9439999999999915,2.4460000000000015,-5.450000000000029
9.073,-0.6423529411764705,2.512941176470588,-6.142352941176471
9.093000000000002,-0.6070588235294081,2.5188235294117653,-6.207058823529418
9.113000000000001,0.6666666666666864,2.34,-7.240000000000012
9.133000000000001,1.030000000000009,2.500000000000009,-7.385000000000002
9.153,1.2886956521739146,2.666521739130436,-7.514347826086957
9.173000000000002,1.5500000000000356,2.810000000000018,-7.549999999999964
9.193000000000001,1.4899999999999882,3.096666666666686,-7.0233333333333015
9.213000000000001,1.0899999999999528,3.960000000000089,-6.409999999999976
9.233,0.68,4.86,-6.24
9.253000000000002,1.3100000000001333,3.4099999999995916,-3.769999999999476
9.273000000000001,2.22000000000001,0.37499999999996503,0.2500000000000488
9.293000000000001,3.043333333333302,-3.14,8.40333333333348
9.313,1.61,-2.57,8.6
9.333000000000002,-1.9900000000001243,-0.3999999999999239,6.109999999999957
9.353000000000002,-4.847500000000054,1.2775000000000283,6.077500000000022
9.373000000000001,-5.8245,1.3574999999999906,7.134500000000012
9.393,-2.61,-2.32,6.85
9.413000000000002,-0.23749999999995672,-3.720000000000013,3.9399999999999067
9.433000000000002,-0.0783333333333575,-3.616666666666653,2.936666666666653
9.453000000000001,-0.8785714285714445,-2.9614285714285558,3.481428571428586
9.473,-1.5143478260869596,-2.359130434782606,3.997391304347828
9.493000000000002,-1.5399999999999467,-2.2400000000000357,3.684999999999938
9.513000000000002,-0.9533333333333017,-2.4633333333333374,3.193333333333314
9.533000000000001,-0.4299999999999823,-2.359999999999994,2.984999999999997
9.553,-0.18333333333333268,-2.229999999999999,3.3033333333333355
9.573000000000002,-0.08000000000002962,-1.6999999999999111,3.596666666666627
9.593000000000002,-0.7150000000000978,-0.7249999999998846,2.5649999999998134
9.613000000000001,-1.6100000000000534,0.14000000000005922,1.0999999999999408
9.633000000000001,-2.100000000000018,1.0900000000001155,0.4799999999999023
9.653,-1.94,1.95,-0.76
9.673000000000002,-1.2049999999999852,2.530000000000006,-2.7350000000000323
9.693000000000001,0.42333333333338463,2.7533333333333374,-5.440000000000059
9.713000000000001,1.3450000000000177,2.75,-6.343333333333349
9.733,1.84,2.66,-6.97
9.753000000000002,1.7849999999999882,2.793333333333349,-7.75166666666671
9.773000000000001,1.593599999999999,3.2156000000000042,-8.415600000000005
9.793000000000001,1.45,3.9200000000000887,-8.88
9.813,1.47,4.1633333333333375,-8.603333333333303
9.833000000000002,1.43,4.320000000000018,-7.909999999999929
9.853000000000002,1.6200000000000623,4.379999999999982,-7.31999999999992
9.873000000000001,2.3700000000001777,3.499999999999485,-6.009999999999467
9.893,2.68,2.12,-4.53
9.913000000000002,0.9279999999999119,-2.774000000000006,3.1660000000001647
9.933000000000002,-1.570000000000533,-1.5399999999995204,6.490000000000409
9.953000000000001,-3.610000000000071,-0.13,7.640000000000035
9.973,-4.18,-0.94,8.4
9.993000000000002,-3.1566666666665326,-2.300000000000095,9.583333333333396
10.013000000000002,-1.6049999999998135,-3.3350000000001154,9.494999999999902
10.033000000000001,-0.2699999999999112,-3.56999999999992,7.359999999999601
10.053,-0.09,-2.82,4.35
10.073000000000002,-0.9950000000001199,-1.97,3.0550000000000668
10.093000000000002,-1.3750000000000089,-2.2600000000000358,3.8650000000000624
10.113000000000001,-1.37,-2.164999999999978,3.6149999999999425
10.133000000000001,-1.3399999999999912,-1.9250000000000043,2.514999999999951
10.153000000000002,-1.03999999999992,-2.24000000000008,2.1800000000000264
10.173000000000002,-0.5749999999999555,-2.6750000000000087,2.8650000000001157
10.193000000000001,-0.2949999999999933,-2.517499999999983,3.7100000000000133
10.213000000000001,-0.2900000000000045,-1.814999999999971,3.15999999999996
10.233000000000002,-0.5300000000000148,-0.7533333333332691,1.5633333333332247
10.253000000000002,-0.6800000000000089,-0.1299999999999467,0.8800000000000178
10.273000000000001,-0.8500000000000533,0.530000000000302,1.1399999999999644
10.293000000000001,-0.8149999999999689,2.3850000000000486,-0.570000000000151
10.313,0.34666666666670415,2.77,-3.4733333333333904
10.333000000000002,1.9700000000001776,2.41499999999992,-5.025000000000116
10.353000000000002,3.193333333333381,1.4866666666666015,-5.913333333333399
10.373000000000001,3.3399999999999466,1.03,-6.850000000000248
10.393,3.176399999999998,1.0612000000000008,-7.348400000000005
10.413000000000002,2.059999999999929,1.3066666666666746,-8.723333333333397
10.433000000000002,1.3049999999999202,1.4550000000000267,-9.210000000000036
10.453000000000001,0.7266666666666568,1.9433333333333491,-9.556666666666674
10.473,0.7200000000000119,2.2683333333333313,-9.76
10.493000000000002,0.9810714285714376,2.1428571428571366,-9.69678571428571
10.513000000000002,2.5599999999999823,-0.3900000000006395,-6.0299999999990765
10.533000000000001,1.1449999999998624,-2.9900000000000535,-1.0549999999997293
10.553,-1.91,-1.61,2.96
10.573000000000002,-4.420000000000189,1.463333333333586,4.226666666666746
10.593000000000002,-5.29,2.1299999999998045,5.340000000000337
10.613000000000001,-4.416666666666627,0.28999999999994674,7.130000000000042
10.633000000000001,-2.304999999999862,-1.6050000000000755,8.235000000000023
10.653000000000002,-0.039999999999680264,-2.29,7.4049999999996405
10.673000000000002,1.3000000000001777,-2.3500000000001067,4.709999999999343
10.693000000000001,1.5744444444444452,-2.694444444444451,3.332222222222208
10.713000000000001,0.5499999999999763,-3.853333333333337,4.693333333333396
10.733000000000002,-0.4000000000000947,-3.293333333333278,6.806666666666794
10.753000000000002,-1.1266666666666982,-3.11,6.5966666666665095
10.773000000000001,-1.086666666666655,-2.9333333333333096,4.406666666666513
10.793000000000001,-0.9810526315789467,-2.7447368421052625,3.6215789473684183
10.813000000000002,-0.9633333333333491,-2.083333333333278,4.256666666666698
10.833000000000002,-1.2300000000000533,-1.4249999999999023,3.3199999999997694
10.853000000000002,-1.7600000000002132,-0.6299999999997158,1.579999999999556
10.873000000000001,-2.2399999999998936,0.41000000000010656,1.230000000000071
10.893000000000002,-1.974999999999992,0.6200000000000053,1.2749999999999972
10.913000000000002,0.15000000000011843,1.4000000000000177,-1.0100000000001599
10.933000000000002,1.4000000000000947,1.6100000000000239,-2.920000000000166
10.953000000000001,1.9900000000000106,1.980000000000007,-4.120000000000032
10.973,2.06,2.0061538461538455,-4.443076923076926
10.993000000000002,1.7899999999999645,1.9400000000000355,-4.9300000000000885
11.013000000000002,1.67,2.2600000000000118,-5.360000000000015
11.033000000000001,1.7000000000000044,2.4049999999999976,-5.845000000000016
11.053,1.830000000000009,1.9999999999999645,-6.6200000000000445
11.073000000000002,1.9476470588235326,1.598823529411757,-7.072941176470598
11.093000000000002,2.0633333333333255,1.2233333333333254,-7.970000000000071
11.113000000000001,2.0400000000000533,1.2399999999999645,-8.459999999999948
11.133000000000001,2.740000000000018,0.8749999999999711,-6.459999999999902
11.153000000000002,2.5499999999998577,-0.67000000000008,-2.2499999999995826
11.173000000000002,1.5599999999999787,-0.8133333333333302,-0.30666666666663905
11.193000000000001,-1.5000000000002398,0.5900000000001066,3.0800000000001955
11.213000000000001,-3.3100000000001155,1.8900000000001687,4.140000000000044
11.233000000000002,-3.5949999999999536,2.58999999999996,4.53000000000004
11.253000000000002,-2.02999999999984,0.8199999999998164,4.959999999999994
11.273000000000001,-0.4099999999995914,-0.8700000000004086,4.549999999999769
11.293000000000001,0.4382608695652214,-1.7147826086956566,3.9052173913043435
11.313000000000002,-0.12000000000013322,-2.0299999999999554,3.360000000000053
11.333000000000002,-1.370000000000095,-1.6199999999999763,3.7300000000000058
11.353000000000002,-2.3000000000001064,-1.495000000000009,3.790000000000018
11.373000000000001,-2.758000000000001,-1.7070000000000016,3.9525000000000015
11.393000000000002,-2.0899999999998577,-2.75000000000008,5.0800000000001155
11.413000000000002,-0.8733333333332307,-3.286666666666698,5.886666666666699
11.433000000000002,-0.5400000000000356,-3.29999999999992,5.4499999999999025
11.453000000000001,-0.9500000000000088,-2.1374999999999575,4.874999999999987
11.473000000000003,-0.9099999999999734,-0.9649999999999135,3.6749999999998333
11.493000000000002,-0.779310344827583,-0.5927586206896445,2.7537931034482463
11.513000000000002,-0.08333333333331361,0.46666666666668644,-0.45666666666667455
11.533000000000001,0.4800000000000533,1.1500000000000532,-1.1400000000001242
11.553000000000003,1.22000000000008,1.6400000000000088,-3.200000000000249
11.573000000000002,1.629999999999991,1.5099999999999734,-4.9800000000001425
11.593000000000002,1.236666666666639,1.593333333333361,-5.890000000000024
11.613000000000001,0.7624999999999889,2.2025000000000157,-6.1725000000000065
11.633000000000001,0.7000000000000266,2.5900000000000087,-6.320000000000009
11.653000000000002,1.140000000000071,2.589999999999991,-6.410000000000009
11.673000000000002,1.6766666666666863,2.486666666666663,-6.43
11.693000000000001,1.780000000000003,2.4479999999999986,-6.43
11.713000000000001,2.2166666666666743,2.2799999999999883,-6.249999999999976
11.733000000000002,2.4400000000000266,1.9599999999999644,-5.639999999999929
11.753000000000002,2.5700000000000087,1.6599999999999377,-5.229999999999929
11.773000000000001,2.7489473684210552,1.1421052631578898,-4.276842105263147
11.793000000000001,3.1599999999999766,0.08666666666666271,-0.47666666666653246
11.813000000000002,2.129999999999793,0.1466666666666864,1.480000000000148
11.833000000000002,0.2699999999998461,0.21,3.1000000000001955
11.853000000000002,-1.9700000000001154,0.5000000000000577,5.350000000000066
11.873000000000001,-3.4600000000000533,1.4700000000000355,5.899999999999989
11.893000000000002,-3.485999999999932,1.233999999999926,5.3039999999999266
11.913000000000002,-1.7733333333331796,-0.33333333333348136,4.019999999999893
11.933000000000002,-0.279999999999929,-2.2500000000001688,2.9999999999999556
11.953000000000001,-0.2700000000000178,-3.23666666666668,3.1733333333333493
11.973000000000003,-1.6366666666668641,-3.003333333333225,4.006666666666746
11.993000000000002,-3.2700000000000666,-2.2624999999999766,4.294999999999993
12.013000000000002,-4.530000000000098,-1.98,3.949999999999929
12.033000000000001,-4.964999999999987,-2.0250000000000044,3.4549999999999956
12.053000000000003,-4.257999999999916,-2.158000000000015,3.6080000000000148
12.073000000000002,-2.5399999999998313,-2.2199999999999736,3.4199999999999555
12.093000000000002,-1.3349999999999667,-2.0474999999999968,3.2725000000000164
12.113000000000001,-1.0300000000000118,-1.7766666666666273,3.59
12.133000000000003,-1.56000000000016,-0.41999999999952037,2.969999999999627
12.153000000000002,-1.9566666666665975,1.590000000000148,1.1066666666665088
12.173000000000002,-0.6366666666665798,2.0366666666666626,-0.16666666666674562
12.193000000000001,0.07678571428572627,1.932142857142854,-0.7928571428571533
12.213000000000001,1.9166666666666745,1.3433333333333373,-2.7766666666666984
12.233000000000002,1.6399999999999377,1.5600000000000622,-3.180000000000027
12.253000000000002,1.3400000000000178,2.400000000000089,-3.365000000000009
12.273000000000001,1.8433333333333728,2.516666666666639,-3.5400000000000116
12.293000000000001,2.1638461538461584,2.2153846153846097,-3.6207692307692314
12.313000000000002,2.786666666666627,0.98,-3.746666666666657
12.333000000000002,2.16333333333329,1.3900000000000357,-3.499999999999988
12.353000000000002,1.4299999999998223,1.9600000000001243,-3.2799999999999465
12.373000000000001,0.9443333333333305,2.3283333333333354,-3.1026666666666656
12.393000000000002,0.7499999999999467,2.430000000000018,-3.0099999999999465
12.413000000000002,1.3300000000000427,1.7299999999999573,-3.1380000000000257
12.433000000000002,2.4933333333333967,1.0899999999999883,-2.999999999999929
12.453000000000001,3.596666666666686,0.6366666666666568,-0.46999999999994674
12.473000000000003,3.850000000000005,0.5649999999999988,0.1900000000000121
12.493000000000002,3.134999999999831,-0.7700000000001244,0.17499999999997334
12.513000000000002,0.7839999999998778,-0.5119999999999175,-0.04800000000002558
12.533000000000001,-2.3200000000001477,2.060000000000148,-0.24999999999996447
12.553000000000003,-2.939999999999867,2.7899999999998935,0.1349999999999867
12.573000000000002,-1.5249999999997201,1.7399999999998401,-0.5700000000001866
12.593000000000002,-0.1949999999999023,0.9949999999999201,-1.6750000000000798
12.613000000000001,-0.09096774193547988,0.8887096774193498,-1.7690322580645201
12.633000000000003,-1.210000000000148,-1.4466666666667456,0.16333333333355043
12.653000000000002,-1.9700000000000177,-1.5600000000000134,1.4600000000000533
12.673000000000002,-2.1,-2.50000000000016,2.260000000000071
12.693000000000001,-2.131666666666668,-3.0650000000000124,2.522500000000006
12.713000000000003,-2.3033333333333252,-4.4766666666666985,3.6300000000000474
12.733000000000002,-2.226666666666657,-4.526666666666657,4.070000000000059
12.753000000000002,-2.139999999999976,-4.433333333333326,4.750000000000095
12.773000000000001,-1.5249999999998667,-4.47,6.295000000000204
12.793000000000003,-0.14999999999981348,-3.8899999999998403,7.08999999999984
12.813000000000002,0.030000000000142107,-3.6999999999997337,6.829999999999538
12.833000000000002,-0.7366666666666982,0.4966666666669588,1.136666666666414
12.853000000000002,-0.29499999999996224,2.22500000000002,-0.9350000000000556
12.873000000000001,1.5700000000000474,2.1033333333333135,-2.5833333333333552
12.893000000000002,2.9300000000000477,0.9833333333332307,-2.876666666666651
12.913000000000002,2.98,0.7494736842105134,-2.8042105263157837
12.933000000000002,0.9499999999999289,1.4433333333333846,-2.6333333333333493
12.953000000000001,-0.07000000000014212,2.29000000000016,-3.050000000000142
12.973000000000003,-0.1566666666666272,2.7033333333333256,-3.706666666666722
12.993000000000002,0.34000000000005326,2.4399999999999644,-4.070000000000036
13.013000000000002,0.40166666666667017,2.3988888888888864,-4.105833333333335
13.033000000000001,0.9200000000000533,2.3900000000000534,-4.540000000000071
13.053000000000003,1.2000000000000532,2.86,-5.010000000000053
13.073000000000002,1.5633333333333728,2.4433333333332548,-5.353333333333403
13.093000000000002,1.870000000000004,1.7499999999999882,-6.580000000000039
13.113000000000001,1.9800000000000533,1.4699999999999556,-7.680000000000062
13.133000000000003,3.116666666666817,0.4066666666664377,-5.803333333332875
13.153000000000002,4.19,-2.404000000000182,-0.6199999999996305
13.173000000000002,2.6749999999997423,-3.2199999999998576,3.2150000000002574
13.193000000000001,-0.21000000000009642,-0.689999999999906,5.1000000000000325
13.213000000000003,-2.7400000000009594,1.6000000000008172,5.660000000000178
13.233000000000002,-4.02,2.7600000000000238,6.25333333333342
13.253000000000002,-3.016666666666485,1.9666666666665087,7.206666666666746
13.273000000000001,-0.729999999999846,0.04999999999986381,7.129999999999917
13.293000000000003,1.0133333333334675,-1.4733333333334675,5.5566666666664855
13.313000000000002,1.616666666666651,-2.466666666666722,4.109999999999905
13.333000000000002,0.6999999999998578,-2.579999999999976,3.966666666666722
13.353000000000002,-0.7860000000000404,-2.043999999999981,4.882000000000028
13.373000000000003,-1.9750000000000467,-1.4649999999999843,5.6500000000000306
13.393000000000002,-2.4399999999999764,-1.740000000000071,5.933333333333326
13.413000000000002,-1.90499999999992,-2.4200000000000537,5.844999999999991
13.433000000000002,-1.44,-2.309999999999941,5.820000000000018
13.453000000000003,-1.650000000000071,-1.1399999999998223,6.029999999999905
13.473000000000003,-2.2400000000000415,0.29000000000013615,3.859999999999686
13.493000000000002,-2.2999999999999408,1.950000000000071,-0.9600000000002783
13.513000000000002,-2.0995454545454484,2.1318181818181854,-1.731363636363655
13.533000000000001,1.190000000000064,1.3399999999999717,-3.0400000000000533
13.553000000000003,2.0900000000000234,1.0900000000000118,-4.690000000000136
13.573000000000002,2.11499999999998,1.3550000000000202,-6.150000000000093
13.593000000000002,2.0587499999999976,1.4141666666666681,-6.435000000000009
13.613000000000001,1.4399999999999822,1.9700000000000295,-6.98
13.633000000000003,1.31,2.1399999999999766,-6.899999999999976
13.653000000000002,1.2199999999999882,1.9199999999999822,-6.789999999999994
13.673000000000002,0.9999999999999645,1.8800000000000177,-6.79
13.693000000000001,0.8966666666666634,1.9550000000000025,-6.78
13.713000000000003,0.5399999999999882,2.5300000000000353,-6.329999999999941
13.733000000000002,0.5450000000000067,2.770000000000013,-6.059999999999986
13.753000000000002,0.7200000000000089,2.6699999999999733,-6.190000000000063
13.773000000000001,0.8300000000000177,2.6300000000000177,-6.930000000000106
13.793000000000003,1.2400000000001776,2.1299999999996624,-6.689999999999485
13.813000000000002,1.4092307692307793,1.766923076923052,-6.150769230769195
13.833000000000002,2.419999999999982,-3.759999999999911,5.790000000000693
13.853000000000002,1.5633333333332542,-2.1833333333332425,9.770000000000106
13.873000000000003,-0.6000000000005506,-0.45999999999969804,9.40999999999952
13.893000000000002,-1.4303846153846467,-0.053461538461524266,8.757307692307672
13.913000000000002,-4.546666666666722,0.4866666666665799,9.17333333333342
13.933000000000002,-3.459999999999707,-0.9200000000002398,9.399999999999894
13.953000000000003,-0.3999999999994138,-2.5900000000002663,6.629999999999058
13.973000000000003,1.1700000000000355,-3.58000000000003,3.2899999999998877
13.993000000000002,1.0799999999999528,-3.6999999999999704,2.9900000000000535
14.013000000000002,0.20999999999987565,-3.0399999999999023,3.880000000000071
14.033000000000003,-0.9800000000002309,-2.1199999999998758,4.099999999999964
14.053000000000003,-1.7600000000000355,-1.9200000000000088,3.9299999999999824
14.073000000000002,-1.8449999999999922,-2.020000000000005,3.9200000000000053
14.093000000000002,-1.04333333333329,-2.2366666666666744,4.290000000000012
14.113000000000001,-0.2799999999998046,-2.5600000000001066,4.580000000000107
14.133000000000003,0.2499999999999467,-2.429999999999787,4.939999999999929
14.153000000000002,-0.5100000000001332,-0.9099999999997513,3.4899999999996982
14.173000000000002,-1.6700000000000472,1.1400000000001183,0.5099999999998046
14.193000000000001,-1.59249999999998,2.4750000000000307,-1.3325000000000333
14.213000000000003,-0.21999999999964473,2.979999999999982,-2.6500000000004085
14.233000000000002,1.3300000000001777,2.9499999999999735,-4.7800000000002045
14.253000000000002,2.6150000000000557,2.2674999999999166,-5.942500000000039
14.273000000000001,2.5999999999999646,1.2633333333333254,-6.18
14.293000000000003,1.689999999999934,1.6700000000000457,-6.189999999999995
14.313000000000002,0.8799999999999689,2.2600000000000176,-6.250000000000013
14.333000000000002,0.43999999999998224,2.4800000000000133,-6.670000000000027
14.353000000000002,0.15999999999999112,3.0100000000000975,-7.030000000000027
14.373000000000003,0.4000000000001066,3.479999999999929,-7.150000000000018
14.393000000000002,0.5547826086956565,3.3243478260869495,-7.1739130434782625
14.413000000000002,0.6133333333333215,1.8999999999999644,-7.970000000000071
14.433000000000002,0.3599999999999822,1.7600000000000178,-8.820000000000089
14.453000000000003,0.3300000000000296,2.0566666666667452,-9.08999999999997
14.473000000000003,0.8100000000002132,2.509999999999982,-8.639999999999752
14.493000000000002,1.8766666666666962,0.9166666666664298,-4.649999999999556
14.513000000000002,1.1699999999998223,-1.6600000000000443,1.100000000000533
14.533000000000003,-0.37666666666683446,-0.4833333333330471,4.770000000000296
14.553000000000003,-1.9266666666668346,0.9933333333333432,7.056666666666953
14.573000000000002,-2.8300000000000267,0.43999999999988454,9.370000000000257
14.593000000000002,-2.3722727272727178,-0.7286363636363741,11.498636363636374
14.613000000000003,-2.2177272727272546,-0.9013636363636566,11.671363636363656
14.633000000000003,1.2033333333334024,-2.563333333333225,7.826666666665976
14.653000000000002,1.0099999999999112,-1.3566666666665383,3.3566666666663605
14.673000000000002,0.31666666666663906,-1.1800000000000355,2.8966666666667336
14.693000000000003,-0.19000000000005923,-2.216666666666775,4.73333333333355
14.713000000000003,-0.7900000000001954,-2.4099999999998936,5.710000000000018
14.733000000000002,-1.7500000000001332,-1.7949999999999333,5.3049999999999065
14.753000000000002,-2.1875000000000053,-1.6850000000000112,4.937499999999983
14.773000000000001,-2.0299999999999554,-2.0100000000000264,4.599999999999929
14.793000000000003,-1.5599999999999408,-2.16,4.19000000000003
14.813000000000002,-0.9799999999998934,-2.139999999999947,4.730000000000125
14.833000000000002,-1.0100000000000355,-1.6999999999999527,4.336666666666592
14.853000000000002,-2.085000000000133,-0.11999999999978683,2.044999999999689
14.873000000000003,-2.659999999999947,1.6250000000002531,-0.005000000000226476
14.893000000000002,-1.6012499999999168,2.6450000000000147,-1.066250000000047
14.913000000000002,0.4800000000001954,2.259999999999911,-2.205000000000151
14.933000000000002,1.7166666666666983,1.73,-3.8700000000000947
14.953000000000003,1.99,2.0200000000000533,-5.840000000000266
14.973000000000003,1.8899999999999704,2.1199999999999704,-6.80000000000003
14.993000000000002,1.815999999999997,2.0379999999999954,-6.84
15.013000000000002,1.1799999999999555,1.6099999999999912,-6.189999999999974
15.033000000000003,0.8166666666666271,1.5066666666666568,-6.363333333333432
15.053000000000003,0.5449999999999601,1.5950000000000932,-7.520000000000213
15.073000000000002,0.32999999999997043,2.250000000000089,-8.37000000000003
15.093000000000002,0.2133333333333373,2.913333333333361,-8.259999999999977
15.113000000000003,0.54000000000008,3.22,-7.539999999999867
15.133000000000003,0.9825000000000234,3.15749999999999,-7.072499999999983
15.153000000000002,1.62000000000008,2.67999999999992,-7.024999999999986
15.173000000000002,2.7800000000002134,1.9899999999998221,-5.189999999999538
15.193000000000003,4.918461538461594,-0.12461538461545862,0.42230769230790965
15.213000000000003,4.974999999999747,-2.00000000000008,6.495000000000493
15.233000000000002,2.309999999999334,-1.3749999999997735,7.09999999999992
15.253000000000002,-2.5366666666671245,0.8566666666669114,7.09333333333342
15.273000000000003,-5.870000000000426,2.48,8.655000000000443
15.293000000000003,-5.954999999999719,0.989999999999547,10.365000000000148
15.313000000000002,-3.1449999999994804,-1.4700000000002933,9.25999999999952
15.333000000000002,-0.6699999999998401,-2.8100000000001244,5.589999999999609
15.353000000000003,-0.10444444444444774,-3.3044444444444476,3.6755555555555226
15.373000000000003,-0.31000000000002664,-3.1749999999999865,4.1250000000001465
15.393000000000002,-0.35920000000000324,-3.16,4.33760000000001
15.413000000000002,-1.3250000000000801,-2.9049999999999914,4.219999999999929
15.433000000000002,-1.8866666666666865,-3.0100000000000118,3.7833333333333257
15.453000000000003,-2.0549999999999864,-3.019999999999973,3.9850000000000665
15.473000000000003,-1.85499999999996,-2.925000000000013,4.375000000000013
15.493000000000002,-1.7820000000000025,-2.8739999999999926,4.173999999999992
15.513000000000002,-1.9650000000000267,-2.2949999999999022,4.39500000000008
15.533000000000003,-2.405000000000073,-1.21999999999988,4.85499999999994
15.553000000000003,-3.3950000000001466,0.8650000000003597,2.6099999999994936
15.573000000000002,-3.84,2.3266666666668168,0.12999999999981052
15.593000000000002,-2.948181818181771,4.5663636363637,-2.0218181818182517
15.613000000000003,0.010000000000612824,5.474999999999827,-4.67000000000032
15.633000000000003,3.3100000000003997,3.4449999999996135,-5.655000000000067
15.653000000000002,4.363333333333325,2.1133333333333018,-6.250000000000071
15.673000000000002,3.596666666666556,2.293333333333373,-7.03000000000007
15.693000000000003,3.209999999999988,2.4371428571428604,-7.240000000000006
15.713000000000003,3.1299999999995025,2.460000000000142,-7.280000000000213
15.733000000000002,0.7249999999998802,3.4600000000001065,-7.044999999999907
15.753000000000002,0.20333333333330175,4.190000000000071,-6.5633333333333015
15.773000000000003,0.020000000000007106,5.000000000000064,-6.239999999999986
15.793000000000003,0.2800000000000474,5.466666666666699,-6.280000000000023
15.813000000000002,0.7650000000000128,5.36124999999999,-6.499375000000005
15.833000000000002,1.500000000000071,4.613333333333254,-6.796666666666675
15.853000000000003,2.4900000000002014,3.6099999999997747,-6.269999999999762
15.873000000000003,4.14500000000028,1.2149999999993204,-3.409999999999121
15.893000000000002,4.879999999999973,-3.360000000000053,4.300000000000242
15.913000000000002,3.8349999999999618,-3.281249999999965,7.875000000000038
15.933000000000003,0.4033333333326149,0.24000000000049737,7.06666666666639
15.953000000000003,-3.850000000000379,2.146666666666769,6.796666666666769
15.973000000000003,-6.680000000000082,2.1099999999999466,8.980000000000178
15.993000000000002,-6.429999999999918,0.8899999999999005,10.55999999999999
16.013000000000005,-4.171999999999527,-1.7680000000004732,8.905999999999477
16.033000000000005,-1.5699999999995855,-3.7633333333334913,5.129999999999171
16.053000000000004,-0.8233333333333136,-3.263333333333077,3.2399999999998816
16.073000000000004,-0.7999999999999645,-2.900000000000059,3.9400000000001896
16.093000000000004,-0.7433333333333492,-3.2433333333333256,4.7
16.113000000000003,-1.0969230769230947,-2.9130769230769054,4.25769230769228
16.133000000000003,-1.7600000000000473,-2.3233333333333017,3.386666666666627
16.153000000000006,-2.0,-1.979999999999929,3.189999999999929
16.173000000000005,-2.036666666666686,-1.7233333333332543,2.759999999999822
16.193000000000005,-2.170000000000002,-1.4099999999999975,2.1099999999999928
16.213000000000005,-1.9399999999998223,-1.560000000000071,2.460000000000302
16.233000000000004,-1.0766666666666036,-1.6099999999999526,3.47
16.253000000000004,-1.0200000000000828,-0.4199999999997868,1.8999999999995973
16.273000000000003,-1.760000000000071,1.040000000000237,-0.6900000000003078
16.293000000000003,-1.9099999999999573,2.8700000000001493,-2.440000000000128
16.313000000000006,-1.138571428571338,3.7342857142857326,-3.5535714285714963
16.333000000000006,1.2025000000004198,3.344999999999907,-4.747500000000202
16.353000000000005,2.86333333333361,2.9333333333332545,-5.876666666666924
16.373000000000005,3.560000000000012,2.5899999999999763,-6.820000000000054
16.393000000000004,3.4599999999999644,2.319999999999988,-7.48000000000003
16.413000000000004,2.987999999999987,2.4100000000000055,-7.69
16.433000000000003,2.899999999999609,2.4500000000002133,-7.689999999999965
16.453000000000003,0.9299999999998224,3.9100000000001778,-7.77
16.473000000000006,0.2699999999998224,4.750000000000355,-7.649999999999858
16.493000000000006,0.1100000000000203,5.530000000000081,-7.2699999999999285
16.513000000000005,0.433809523809552,5.91476190476191,-6.885714285714269
16.533000000000005,2.080000000000462,5.049999999999449,-6.079999999999609
16.553000000000004,4.270000000000497,0.4399999999984013,-2.7099999999986677
16.573000000000004,6.1600000000001955,-5.350000000000426,4.710000000001528
16.593000000000004,5.744999999999913,-5.164999999999901,8.67000000000004
16.613000000000003,2.6104166666666004,-1.6354166666666123,7.002083333333287
16.633000000000006,-0.10000000000525802,0.2300000000029843,5.399999999997727
16.653000000000006,-7.000000000000533,3.0799999999992185,6.300000000001208
16.673000000000005,-6.759999999999407,0.4699999999990289,8.580000000000426
16.693000000000005,-3.9899999999997444,-2.1300000000000994,8.699999999999836
16.713000000000005,-2.1581818181817805,-2.4769696969696935,6.468787878787794
16.733000000000004,-2.0309090909090606,-2.4648484848484817,6.183939393939327
16.753000000000004,-0.6399999999998757,-2.8400000000001775,3.2500000000003197
16.773000000000003,-0.18999999999996448,-3.309999999999941,4.850000000000153
16.793000000000003,-0.3400000000000474,-2.479999999999929,4.9699999999999225
16.813000000000006,-0.9179411764706068,-1.8164705882352858,3.653235294117608
16.833000000000006,-0.9708823529411901,-1.7929411764705823,3.5414705882352653
16.853000000000005,-1.0999999999999408,-1.7899999999999883,2.419999999999988
16.873000000000005,-0.669999999999929,-2.030000000000062,2.5600000000000622
16.893000000000004,0.01304347826088414,-2.4191304347826046,3.271304347826093
16.913000000000004,0.07391304347827497,-2.4017391304347786,3.297391304347832
16.933000000000003,-1.5166666666669824,-0.5766666666663193,0.06666666666617718
16.953000000000003,-2.5700000000000354,1.320000000000462,-1.7800000000004264
16.973000000000006,-1.983333333333065,2.95666666666684,-3.88666666666703
16.993000000000006,-0.1999999999998579,3.151111111111069,-5.160000000000048
17.013000000000005,1.5400000000002487,2.029999999999698,-5.560000000000035
17.033000000000005,1.9999999999999525,1.3366666666666984,-5.72
17.053000000000004,1.2899999999998106,1.9033333333334912,-5.876666666666746
17.073000000000004,0.3466666666665088,2.650000000000142,-6.4366666666667935
17.093000000000004,-0.09200000000000852,3.2500000000000426,-6.848000000000034
17.113000000000003,0.05400000000001279,3.498000000000004,-7.126000000000009
17.133000000000006,0.8800000000003908,3.68,-7.640000000000213
17.153000000000006,1.7800000000003908,3.4799999999998223,-7.990000000000036
17.173000000000005,2.4700000000000446,2.939999999999929,-8.03999999999999
17.193000000000005,2.73,2.2671428571428436,-7.787499999999988
17.213000000000005,2.73,2.209999999999985,-7.7374999999999865
17.233000000000004,2.2166666666666033,1.0599999999998106,-6.146666666666366
17.253000000000004,2.0299999999999527,-0.30333333333377543,-3.113333333332402
17.273000000000003,1.4099999999998933,-1.9400000000000088,2.0300000000005682
17.293000000000006,0.4449999999998135,-0.9799999999997335,6.1150000000004
17.313000000000006,-0.6066666666667456,0.1066666666667101,7.136666666666686
17.333000000000006,-2.5600000000002368,0.38999999999995266,7.736666666666935
17.353000000000005,-3.23,-0.18000000000026645,10.085000000001092
17.373000000000005,-2.4333333333330174,-1.4766666666669825,13.086666666666934
17.393000000000004,-0.6645454545453797,-2.561818181818191,11.579999999999758
17.413000000000004,-0.1450000000000296,-1.9499999999999287,6.954999999999663
17.433000000000003,-0.6800000000003198,-1.4199999999999289,4.599999999999644
17.453000000000003,-1.2200000000000177,-1.6450000000000444,5.585000000000187
17.473000000000006,-1.2650000000000268,-1.7999999999999468,6.28499999999992
17.493000000000006,-1.48750000000004,-1.4949999999999735,5.22499999999976
17.513000000000005,-1.5533333333333228,-1.656666666666693,4.026666666666598
17.533000000000005,-1.2599999999999527,-1.8199999999999528,3.436666666666651
17.553000000000004,-1.17,-1.63,3.60000000000016
17.573000000000004,-1.116666666666651,-1.6833333333333491,4.113333333333396
17.593000000000004,-1.224615384615406,-1.4423076923076565,3.860769230769188
17.613000000000003,-1.9350000000001955,-0.19999999999968024,2.2449999999995205
17.633000000000006,-2.6000000000001067,1.0400000000003198,0.6349999999997602
17.653000000000006,-2.6699999999999466,2.205000000000453,0.1449999999997602
17.673000000000005,-2.103333333333065,3.5966666666668874,-1.18666666666703
17.693000000000005,-0.29999999999984495,3.5818181818181065,-2.9809090909092086
17.713000000000005,1.945000000000074,2.1249999999999436,-4.250000000000029
17.733000000000004,2.626666666666509,1.7600000000001421,-5.15666666666684
17.753000000000004,1.3899999999996804,2.8650000000002667,-5.840000000000106
17.773000000000003,0.4874999999999445,3.8825000000000998,-6.210000000000044
17.793000000000006,0.6050000000000932,4.4900000000000535,-6.76500000000012
17.813000000000006,1.2953846153846802,4.60923076923076,-7.4138461538462
17.833000000000006,2.830000000000533,4.019999999999715,-8.180000000000355
17.853000000000005,3.860000000000213,3.2399999999997338,-8.980000000000214
17.873000000000005,4.265000000000026,2.58999999999984,-9.31
17.893000000000004,4.07799999999994,2.1079999999999406,-9.12199999999996
17.913000000000004,3.66230769230767,1.7630769230769072,-8.878461538461526
17.933000000000003,2.8599999999997157,0.7799999999997158,-5.666666666665608
17.953000000000003,0.6466666666663983,-1.1633333333334834,0.550000000000592
17.973000000000006,-1.7066666666671009,-0.8133333333328991,5.240000000000711
17.993000000000006,-2.878000000000051,0.9660000000000739,6.490000000000029
18.013000000000005,-3.073333333333322,0.9866666666666374,6.836666666666692
18.033000000000005,-1.2999999999994671,-1.6133333333339057,8.923333333333847
18.053000000000004,0.7833333333337873,-3.503333333333728,10.293333333333432
18.073000000000004,1.7966666666666746,-4.596666666666699,9.583333333333183
18.093000000000004,1.2706666666666224,-4.122666666666632,7.782666666666584
18.113000000000003,-0.033333333333408335,-2.9366666666666035,6.276666666666639
18.133000000000006,-1.5250000000003996,-1.93999999999984,6.37500000000024
18.153000000000006,-2.406666666666805,-1.8366666666666864,6.816666666666627
18.173000000000005,-2.6559999999999873,-1.9240000000000128,6.119999999999808
18.193000000000005,-2.4466666666666272,-2.0500000000000296,4.746666666666509
18.213000000000005,-2.0599999999998397,-2.235000000000027,3.97
18.233000000000004,-1.559999999999858,-2.23,4.670000000000284
18.253000000000004,-0.8699999999999526,-2.1566666666666507,5.396666666666627
18.273000000000003,-0.9666666666667101,-1.6599999999999409,3.703333333333195
18.293000000000006,-2.250000000000213,0.26500000000038637,0.8949999999996403
18.313000000000006,-2.87,2.1300000000001185,-0.18000000000005922
18.333000000000006,-1.926666666666272,3.5800000000001777,-1.6700000000004145
18.353000000000005,0.3633333333340241,3.846666666666627,-3.7566666666672193
18.373000000000005,3.0400000000001217,3.2899999999999543,-5.890000000000112
18.393000000000004,4.104285714285726,2.6899999999999724,-7.3142857142857824
18.413000000000004,3.563333333333231,2.3666666666666747,-8.57666666666677
18.433000000000003,2.349999999999396,2.7600000000003195,-9.250000000000142
18.453000000000007,1.2099999999998579,3.560000000000142,-9.545000000000089
18.473000000000006,1.0333333333333727,3.943333333333373,-9.823333333333373
18.493000000000006,1.3427272727273118,3.8727272727272504,-9.786363636363625
18.513000000000005,1.843333333333432,3.496666666666568,-9.556666666666567
18.533000000000005,2.01,3.209999999999941,-8.909999999999762
18.553000000000004,1.8699999999999528,3.11,-7.939999999999894
18.573000000000004,1.3599999999999643,2.753333333333302,-7.18333333333329
18.593000000000004,0.5799999999999408,1.4799999999998699,-5.289999999999822
18.613000000000003,-0.6225000000000144,-1.2100000000000444,-1.1649999999999134
18.633000000000006,-1.546666666666805,-2.156666666666272,5.800000000001006
18.653000000000006,-2.0800000000001186,-0.820000000000071,8.000000000000332
18.673000000000005,-2.2399999999999407,-1.6633333333336096,9.583333333333906
18.693000000000005,-1.5366666666663904,-2.4800000000001186,12.45000000000077
18.713000000000005,-0.38285714285704425,-2.6442857142857084,13.788571428571418
18.733000000000004,0.34428571428572785,-2.601428571428568,12.56142857142851
18.753000000000004,0.2799999999999763,-1.4933333333332544,7.116666666666343
18.773000000000003,0.18500000000000888,-0.9149999999999912,5.329999999999929
18.793000000000006,0.3099999999999763,-1.3600000000001184,5.0199999999999525
18.813000000000006,0.11999999999992894,-1.339999999999858,4.89
18.833000000000006,0.04,-1.2343750000000036,4.816874999999989
18.853000000000005,0.06,-1.4566666666666863,4.189999999999823
18.873000000000005,0.02000000000001184,-1.5099999999999763,3.5999999999999526
18.893000000000004,0.1,-1.6560000000000896,3.60000000000005
18.913000000000004,-0.17437500000002137,-2.550625000000025,4.168125000000018
18.933000000000003,-1.9200000000002841,-2.379999999999739,5.090000000000011
18.953000000000007,-4.062500000000481,-0.02999999999944042,2.96999999999913
18.973000000000006,-5.995000000000173,2.3150000000002797,-1.235000000000546
18.993000000000006,-5.787499999999767,3.66500000000028,-3.722500000000357
19.013000000000005,-4.007499999999717,4.636250000000075,-5.197500000000183
19.033000000000005,-1.5999999999986856,4.759999999999858,-6.440000000000569
19.053000000000004,1.5250000000005062,4.049999999999787,-7.6900000000002136
19.073000000000004,2.3580000000000116,3.7680000000000113,-8.440000000000056
19.093000000000004,2.219999999999976,4.360000000000095,-9.143333333333397
19.113000000000007,2.2100000000000946,4.889999999999929,-9.45000000000007
19.133000000000006,2.4800000000000355,4.569999999999894,-9.88000000000025
19.153000000000006,2.319999999999822,4.510000000000035,-10.280000000000035
19.173000000000005,1.809999999999929,4.635000000000009,-10.224999999999973
19.193000000000005,1.1399999999999288,4.720000000000011,-9.779999999999905
19.213000000000005,0.7899999999999645,4.72,-8.999999999999787
19.233000000000004,0.72,4.712857142857139,-8.372857142857082
19.253000000000004,0.8100000000000356,3.8599999999996446,-6.199999999999556
19.273000000000003,0.6549999999999334,1.4249999999996226,-3.4199999999995114
19.293000000000006,0.22999999999982237,-1.0900000000008172,0.7800000000020606
19.313000000000006,-0.25000000000031974,-1.8999999999998578,4.7900000000013145
19.333000000000006,-0.6579310344827781,-1.6224137931034341,6.152758620689697
19.353000000000005,-1.360000000000462,-1.31,7.28000000000064
19.373000000000005,-2.08499999999992,-3.0850000000002398,11.402500000000519
19.393000000000004,-1.0849999999997735,-3.6299999999999732,13.650000000000134
19.413000000000004,-0.4011764705882284,-3.44,12.667647058823455
19.433000000000003,-0.4266666666666509,-3.7033333333333016,8.473333333332828
19.453000000000007,-0.38,-3.2499999999998814,6.959999999999882
19.473000000000006,-0.5200000000000947,-2.98,6.783333333333301
19.493000000000006,-1.1300000000002486,-2.8899999999998935,6.529999999999787
19.513000000000005,-1.5285714285714576,-2.695714285714271,5.941428571428491
19.533000000000005,-1.6309999999999942,-2.6109999999999944,5.290999999999937
19.553000000000004,-0.8599999999997868,-3.1200000000001777,4.249999999999893
19.573000000000004,0.023333333333396492,-3.8283333333333727,4.1083333333333725
19.593000000000004,0.5000000000000533,-3.919999999999929,4.520000000000071
19.613000000000007,0.3899999999992184,-3.379999999999076,4.289999999998792
19.633000000000006,-0.5363157894737598,-2.5499999999999403,2.9768421052630605
19.653000000000006,-2.800000000000142,-0.07333333333311227,0.356666666666414
19.673000000000005,-3.7825000000002267,1.2075000000003064,-1.587500000000413
19.693000000000005,-4.950000000000178,3.2900000000004974,-3.770000000000391
19.713000000000005,-5.109999999999645,5.110000000000782,-4.810000000000213
19.733000000000004,-4.118571428571374,6.112857142857167,-4.990476190476195
19.753000000000004,0.3400000000006158,6.0166666666665085,-5.746666666666888
19.773000000000007,2.8975000000004596,5.2649999999998,-7.03250000000034
19.793000000000006,3.9950000000001866,4.749999999999893,-8.175000000000347
19.813000000000006,4.069999999999976,4.576666666666651,-8.933333333333398
19.833000000000006,3.71230769230768,4.51653846153846,-9.22692307692308
19.853000000000005,2.769999999999911,4.419999999999982,-9.049999999999983
19.873000000000005,2.54,4.277499999999945,-8.797499999999944
19.893000000000004,2.6200000000000356,3.699999999999787,-8.209999999999805
19.913000000000004,2.685000000000018,2.6049999999997335,-7.2349999999997685
19.933000000000003,2.7471428571428596,2.217142857142847,-6.845714285714274
19.953000000000007,2.54499999999976,-0.5950000000007194,-2.4349999999984813
19.973000000000006,1.4533333333330176,-1.4899999999999052,2.0333333333341073
19.993000000000006,-0.04625000000017875,-0.7349999999999067,4.728750000000225
20.013000000000005,-1.670000000000084,-0.1581818181818029,6.342727272727338
20.033000000000005,-3.6466666666668877,0.14666666666665087,8.00666666666703
20.053000000000004,-4.053333333333207,-0.6733333333336806,10.480000000000569
20.073000000000004,-2.854999999999698,-2.450000000000249,12.585000000000125
20.093000000000004,-1.9199999999999644,-2.744999999999978,11.519999999999857
20.113000000000007,-1.760909090909105,-2.0399999999999223,8.765454545454242
20.133000000000006,-1.7299999999998934,-1.76,5.869999999999574
20.153000000000006,-1.3099999999998935,-1.8250000000000268,4.89499999999976
20.173000000000005,-1.0549999999999735,-1.7674999999999867,4.349999999999947
20.193000000000005,-0.9199999999998935,-1.770000000000071,4.200000000000036
20.213000000000005,-0.4799999999998401,-2.0700000000001064,4.31
20.233000000000004,0.05000000000014211,-2.4500000000001423,4.179999999999964
20.253000000000004,0.8250000000001954,-3.170000000000142,4.245000000000053
20.273000000000007,1.4633333333334437,-3.4599999999999174,4.446666666666722
20.293000000000006,1.2742857142856345,-2.8742857142856346,4.384285714285634
20.313000000000006,0.21999999999896971,-2.1299999999994315,3.059999999998792
20.333000000000006,-1.830800000000069,-0.8775999999999546,1.0043999999999482
20.353000000000005,-4.725000000000559,1.6150000000006128,-1.4550000000006662
20.373000000000005,-6.043333333333491,3.6966666666671246,-3.2200000000002844
20.393000000000004,-6.109999999999733,5.70000000000064,-4.155000000000187
20.413000000000004,-4.409999999998757,6.639999999999964,-4.25
20.433000000000007,-2.2366666666665678,6.343333333333313,-4.364444444444458
20.453000000000007,2.920000000000906,4.869999999999627,-5.810000000000427
20.473000000000006,4.920000000000296,3.8266666666664495,-7.170000000000296
20.493000000000006,5.424285714285723,3.1857142857142104,-7.978571428571513
20.513000000000005,5.368333333333325,2.6488888888888678,-8.535000000000023
20.533000000000005,4.506666666666391,2.0999999999999406,-9.430000000000119
20.553000000000004,3.2949999999996002,1.95,-9.584999999999972
20.573000000000004,2.3699999999999113,1.8074999999999446,-9.364999999999977
20.593000000000004,2.034999999999947,1.0499999999997869,-9.399999999999965
20.613000000000007,1.88,0.19714285714276142,-8.7371428571427
20.633000000000006,1.8130769230769133,-0.3507692307692604,-7.50192307692299
20.653000000000006,0.04333333333295833,-1.4333333333332543,-1.7266666666655022
20.673000000000005,-1.610000000000293,-0.6049999999998268,2.3750000000005196
20.693000000000005,-3.0700000000005683,0.06000000000024869,4.6500000000008175
20.713000000000005,-4.1512500000001085,0.4437500000000361,5.8737500000000935
20.733000000000004,-5.078823529411796,0.8064705882353064,6.477058823529429
20.753000000000004,-6.126666666666698,1.173333333333349,7.386666666666746
20.773000000000007,-6.149999999999941,1.26,8.16333333333349
20.793000000000006,-5.899999999999973,1.1749999999999865,8.58500000000004
20.813000000000006,-5.850000000000008,0.9099999999999848,8.845000000000004
20.833000000000006,-6.312222222222265,0.8677777777777831,8.527777777777736
20.853000000000005,-6.633333333333373,0.8933333333335505,7.613333333333017
20.873000000000005,-6.751999999999988,1.5220000000001024,6.24399999999975
20.893000000000004,-6.1399999999996275,1.6499999999997867,4.09999999999936
20.913000000000004,-4.83999999999992,0.8224999999999401,2.8737499999999634
20.933000000000007,-3.6457142857141815,-0.27142857142860627,2.3728571428570904
20.953000000000007,-1.8999999999997632,1.4066666666670415,1.2199999999998223
20.973000000000006,-0.9999999999995737,2.500000000000213,0.8699999999999289
20.993000000000006,-0.11999999999978683,2.249999999999787,0.5999999999998401
21.013000000000005,0.33000000000017765,1.84,0.16999999999989343
21.033000000000005,0.6520000000000166,1.8879999999999952,0.0019999999999928963
21.053000000000004,1.6000000000000711,1.6000000000000356,-0.18
21.073000000000004,1.8550000000000089,1.8950000000000267,-0.18
21.093000000000007,1.86,1.9649999999998933,-0.19
21.113000000000007,1.940000000000071,1.5999999999995738,-0.1299999999998579
21.133000000000006,2.0,1.4825000000000177,-0.09
21.153000000000006,1.7199999999998579,1.9499999999999527,-0.019999999999976315
21.173000000000005,1.246666666666568,1.6633333333332543,0.0366666666666864
21.193000000000005,1.0399999999999883,1.3899999999999761,-0.020000000000023686
21.213000000000005,1.0500000000000118,1.3399999999999883,-0.16000000000001185
21.233000000000004,1.06,1.3033333333333315,-0.2
21.253000000000004,0.8899999999999881,1.1199999999999763,-0.21999999999998815
21.273000000000007,0.82,0.9466666666666271,-0.023333333333254387
21.293000000000006,0.6999999999999525,0.960000000000071,0.23000000000002369
21.313000000000006,0.5166666666666272,1.293333333333432,0.28
21.333000000000006,0.4516666666666627,1.4283333333333372,0.3183333333333373
21.353000000000005,0.5800000000000236,1.2799999999999645,0.5500000000000237
21.373000000000005,0.5766666666666271,1.036666666666568,0.7200000000000591
21.393000000000004,0.36999999999995264,0.463333333333207,0.9466666666666982
21.413000000000004,0.29,0.17333333333332546,1.0316666666666627
21.433000000000007,0.4100000000000711,0.04499999999996447,0.7249999999997513
21.453000000000007,0.6600000000000533,0.16000000000003553,0.05999999999991118
21.473000000000006,0.76,0.07999999999992895,-0.009999999999857892
21.493000000000006,0.7419999999999887,-0.048000000000011374,0.31000000000005684
21.513000000000005,0.5728571428571287,-0.2057142857143234,0.52
21.533000000000005,0.3899999999999763,-0.10999999999997631,0.3899999999999763
21.553000000000004,0.31999999999999407,0.27000000000003554,0.34999999999999404
21.573000000000004,0.2775000000000067,0.2174999999999534,0.38
21.593000000000007,0.35,-0.39500000000031976,0.3749999999999645
21.613000000000007,0.2699999999998579,-0.8100000000002132,0.3
21.633000000000006,0.1411764705882305,-0.8541176470588203,0.2570588235294102
21.653000000000006,0.1235294117647009,-0.8423529411764672,0.2511764705882336
21.673000000000005,0.3900000000000237,-0.22999999999997633,-0.5300000000000711
21.693000000000005,0.4033333333333136,-0.2933333333333728,-0.6966666666666863
21.713000000000005,0.20499999999992008,-0.28999999999994674,-0.69
21.733000000000004,0.07304347826086251,-0.20304347826086253,-0.6443478260869542
21.753000000000007,-0.11999999999985789,0.18000000000010657,-0.43
21.773000000000007,0.18333333333337282,-0.03333333333337281,-0.45
21.793000000000006,0.15999999999989342,-0.10000000000003553,-0.3999999999999645
21.813000000000006,-0.10000000000004737,-0.1400000000000237,-0.3099999999999763
21.833000000000006,-0.18000000000007105,-0.11999999999992894,-0.26999999999992896
21.853000000000005,-0.21999999999998224,-0.03,-0.15999999999998224
21.873000000000005,-0.06999999999998224,-0.15000000000002664,-0.18
21.893000000000004,0.03,-0.2680000000000114,-0.18800000000001138
