time,ax,ay,az,atotal
0.409,-0.77,0.14,-1.8,1.96
0.419,-1.32,0.16,-1.96,2.37
0.429,-1.8,0.11,-2.39,2.99
0.439,-1.84,0.68,-1.69,2.59
0.449,-2.31,0.97,-1.67,3.01
0.459,-1.64,0.26,-1.82,2.46
0.469,-1.62,0.47,-1.72,2.41
0.479,-1.4,0.49,-1.63,2.2
0.489,-1.37,0.46,-1.43,2.03
0.499,-0.67,-0.11,-1.77,1.89
0.509,-0.31,0.01,-0.79,0.85
0.519,-0.21,-0.84,0.4,0.95
0.529,0.33,-1.49,1.13,1.9
0.539,1.05,-1.7,1.88,2.74
0.549,1.85,-2.29,2.08,3.61
0.559,2.14,-2.12,2.14,3.69
0.569,1.68,-1.62,1.67,2.87
0.579,0.86,-0.96,0.86,1.55
0.589,0.63,-0.72,-0.02,0.95
0.599,0.84,-0.53,-0.72,1.23
0.609,0.51,-0.31,-1.26,1.39
0.619,0.17,0.67,-1.77,1.9
0.629,-1.29,0.99,-2.18,2.72
0.639,-1.79,0.73,-2.78,3.39
0.649,-1.37,1.28,-3.17,3.69
0.659,-0.77,1.33,-4.21,4.48
0.669,-0.6,0.97,-4.97,5.1
0.679,-0.33,0.67,-5.44,5.49
0.689,-0.01,0.27,-5.6,5.61
0.699,-0.5,0.37,-5.32,5.35
0.709,-0.41,0.25,-5.24,5.26
0.719,-0.15,-0.02,-5.33,5.33
0.729,0.45,-0.65,-5.29,5.35
0.739,1.36,-1.32,-5.25,5.58
0.749,1.8,-1.73,-4.81,5.42
0.759,1.81,-2.02,1.97,3.35
0.769,1.56,-1.53,5.71,6.12
0.779,1.52,-1.24,8.52,8.75
0.789,0.71,-0.74,5.65,5.74
0.799,0.33,-0.6,1.16,1.35
0.809,0.84,-0.63,-1.76,2.05
0.819,1.48,-0.31,-2.82,3.2
0.829,1.71,0.27,-2.41,2.97
0.839,1.07,0.88,-1.69,2.19
0.849,-0.19,1.24,-0.51,1.35
0.859,-0.9,0.38,1.61,1.88
0.868,-1.39,0.12,3.27,3.56
0.879,-1.93,0.41,3.62,4.12
0.889,-2.05,0.8,2.75,3.52
0.898,-2.34,0.95,1.8,3.1
0.909,-2.35,0.44,0.91,2.56
0.918,-2.33,0.27,0.25,2.36
0.928,-2.8,0.38,0.42,2.86
0.938,-3.25,0.79,1.29,3.58
0.948,-3.58,1.44,2.86,4.8
0.959,-3.89,2.19,3.75,5.83
0.968,-4.1,2.8,3.81,6.26
0.979,-4.28,3.18,3.6,6.44
0.989,-4.55,3.72,3.73,6.96
0.998,-4.65,4.37,4.59,7.86
1.009,-4.29,4.96,5.99,8.88
1.018,-3.76,5.49,7.31,9.89
1.028,-3.1,5.88,7.94,10.35
1.039,-2.46,6.08,7.93,10.29
1.048,-1.94,6.2,8.31,10.55
1.059,-1.65,6.29,9.5,11.5
1.068,-1.72,6.42,10.68,12.58
1.078,-1.76,6.5,11.28,13.14
1.089,-1.68,6.42,11.36,13.16
1.098,-1.41,6.02,11.08,12.69
1.108,-1.01,5.38,10.55,11.89
1.118,-0.41,4.65,10.03,11.06
1.128,0.29,3.92,9.37,10.17
1.139,0.94,3.2,8.58,9.21
1.148,1.68,2.11,7.59,8.05
1.158,2.23,0.79,6.1,6.54
1.168,2.6,-0.17,4.65,5.33
1.178,2.79,-0.74,3.55,4.57
1.188,2.82,-1.02,2.74,4.06
1.198,2.78,-1.21,2.04,3.66
1.208,2.63,-1.42,1.3,3.26
1.218,2.55,-1.96,0.29,3.23
1.228,2.25,-2.77,-0.85,3.67
1.238,1.7,-3.39,-2,4.28
1.248,1.22,-3.68,-2.8,4.78
1.258,0.73,-3.74,-3.28,5.03
1.268,0.35,-3.7,-3.56,5.15
1.278,0.06,-3.6,-3.65,5.12
1.288,-0.34,-3.57,-3.76,5.2
1.298,-0.64,-3.68,-3.65,5.22
1.308,-0.86,-3.88,-3.27,5.15
1.318,-0.96,-4.27,-2.93,5.26
1.328,-0.95,-4.98,-3.07,5.93
1.338,-0.98,-5.94,-3.72,7.08
1.348,-1.15,-6.94,-4.51,8.36
1.358,-1.36,-7.93,-5.12,9.54
1.368,-1.75,-8.86,-5.38,10.51
1.378,-2.16,-9.74,-5.24,11.27
1.388,-2.68,-10.51,-5.01,11.95
1.398,-3.18,-11.15,-4.8,12.55
1.408,-3.23,-11.74,-4.59,13.01
1.418,-2.79,-12.2,-4.44,13.28
1.428,-2.06,-12.5,-4.52,13.45
1.438,-1.22,-12.57,-4.6,13.45
1.448,-0.44,-12.71,-4.53,13.5
1.458,0.53,-12.63,-3.99,13.26
1.468,1.87,-12.13,-2.84,12.6
1.478,3.33,-11.28,-1.39,11.84
1.488,4.86,-10.12,-0.25,11.23
1.498,6.86,-9.14,0.14,11.43
1.508,9.15,-8.42,-0.22,12.43
1.518,11.65,-7.71,-0.76,13.99
1.528,14.29,-6.53,-0.58,15.72
1.538,16.63,-4.68,0.97,17.31
1.548,18.86,-2.48,4.09,19.46
1.558,20.71,-0.53,6.74,21.78
1.569,21.78,0.95,7.17,22.95
1.578,22.15,1.9,6.51,23.16
1.588,21.41,2.39,6.3,22.45
1.598,20,2.99,7.63,21.61
1.608,18.52,3.73,9.73,21.25
1.618,16.89,4.37,10.87,20.56
1.628,15.43,4.75,11.01,19.54
1.638,13.95,5.24,10.94,18.49
1.648,12.39,6.09,11.18,17.76
1.657,10.79,7.31,11.52,17.39
1.668,8.92,8.87,11.74,17.2
1.677,6.97,10.42,11.55,17.05
1.688,4.97,11.94,10.77,16.83
1.697,2.47,13.39,9.73,16.74
1.708,-0.33,14.68,9.08,17.27
1.717,-3.36,16.06,8.6,18.52
1.727,-6.19,17.6,7.76,20.21
1.738,-8.54,19.14,6.59,21.97
1.747,-10.37,20.03,5.32,23.18
1.757,-11.78,20.05,4.01,23.59
1.767,-13.97,20.63,3.02,25.1
1.777,-14.92,20.74,3.62,25.8
1.788,-14.43,20.84,6.1,26.07
1.797,-13.25,20.51,8.9,25.99
1.807,-11.33,18.88,10.9,24.57
1.817,-9.37,16.36,11.62,22.14
1.827,-7.28,13.48,11.42,19.11
1.837,-5.02,10.69,10.73,15.96
1.847,-2.54,8.15,9.94,13.1
1.857,0.14,5.75,8.98,10.66
1.867,2.7,3.5,7.89,9.04
1.877,4.83,1.44,6.78,8.44
1.887,6.56,-0.06,5.87,8.81
1.897,8.17,-0.58,5.43,9.82
1.907,9.32,-0.07,5.49,10.82
1.917,10.24,1.06,6.56,12.2
1.928,11.25,2.51,8.17,14.13
1.937,12.1,4.21,9.95,16.22
1.948,12.18,6.2,13.07,18.91
1.958,13.08,7.89,18.49,23.98
1.967,16.67,7.42,20.83,27.69
1.978,19.08,4.38,14.82,24.56
1.987,18.59,1.22,7.15,19.95
1.998,17.67,-1.41,2.53,17.91
2.007,15.08,-3.44,-1.11,15.51
2.017,11.47,-4.73,-3.43,12.87
2.027,7.98,-5.37,-4.05,10.44
2.037,4.66,-5.66,-2.44,7.73
2.047,2.24,-5.81,-0.01,6.23
2.057,0.9,-6.14,2.24,6.6
2.067,0.23,-7.29,3.47,8.08
2.077,-0.08,-9.39,2.93,9.83
2.087,-0.79,-11.91,0.87,11.97
2.097,-2,-14.28,-1.47,14.49
2.107,-3.07,-15.96,-3.2,16.57
2.117,-4.81,-16.49,-4.27,17.7
2.127,-7.09,-17.11,-5.51,19.32
2.137,-7.98,-17.8,-6.2,20.47
2.147,-8.32,-18.37,-6.74,21.26
2.157,-8.29,-18.48,-7.11,21.47
2.167,-8.3,-18.3,-7.11,21.32
2.177,-7.91,-18,-6.63,20.74
2.187,-6.65,-17.14,-5.74,19.26
2.197,-4.86,-15.52,-4.72,16.94
2.207,-2.26,-13.65,-3.93,14.39
2.217,1.21,-11.78,-3.81,12.44
2.227,5.18,-10.11,-3.91,12.02
2.236,9.76,-8.64,-2.65,13.31
2.247,15.12,-7.37,0.77,16.84
2.257,20.11,-6.07,4.49,21.49
2.267,23.84,-4.8,6.11,25.08
2.277,26.17,-3.73,6.08,27.13
2.287,27.55,-2.76,6.78,28.51
2.297,27.36,-1.87,8.25,28.64
2.307,24.69,-1.25,8.41,26.12
2.317,21.05,-0.38,8.37,22.66
2.327,18.2,0.51,9.43,20.5
2.337,15.38,1.2,9.77,18.26
2.347,12.3,1.76,9.04,15.37
2.357,9.28,2.26,8.7,12.92
2.366,6.27,2.72,8.96,11.27
2.376,3.59,3.18,8.92,10.13
2.386,1.26,3.88,8.74,9.65
2.396,-0.74,4.88,8.84,10.12
2.406,-2.55,6.11,8.88,11.08
2.416,-4.06,7.24,8.64,11.98
2.426,-5.67,8.03,7.87,12.59
2.436,-7.81,8.71,6.95,13.61
2.446,-10.53,9.83,6.3,15.72
2.456,-13.29,11.3,5.52,18.3
2.466,-15.74,12.81,4.07,20.7
2.476,-17.41,14.02,3.03,22.56
2.486,-18.26,15,3.78,23.93
2.496,-18.17,15.66,6.21,24.78
2.506,-17.49,15.65,8.7,25.03
2.516,-16,14.71,10.09,23.96
2.526,-13.71,12.79,10.26,21.38
2.536,-11.47,10.49,9.75,18.35
2.546,-9.2,8.05,9.21,15.31
2.556,-6.96,5.7,8.39,12.3
2.566,-4.74,3.71,7.34,9.49
2.576,-2.1,2.43,6.71,7.44
2.586,1.05,1.81,6.65,6.97
2.596,4.18,1.6,6.98,8.29
2.606,6.39,1.77,7.73,10.18
2.616,7.93,2.18,8.91,12.12
2.626,9.62,2.58,10.27,14.31
2.636,11.48,2.97,11.52,16.54
2.647,13.16,3.1,12.88,18.68
2.657,14.6,3.06,15.31,21.38
2.666,16.26,2.89,18.61,24.88
2.677,18.23,2.05,21.14,27.99
2.687,19.59,0.44,21.11,28.8
2.696,19.57,-1.93,17.48,26.31
2.706,18.24,-4.41,11.71,22.12
2.717,15.92,-6.14,6.93,18.42
2.726,12.85,-6.79,4.35,15.17
2.736,9.7,-6.66,2.91,12.12
2.746,6.63,-6.15,1.61,9.19
2.756,3.94,-5.52,0.58,6.81
2.766,1.61,-5.03,0.41,5.3
2.776,-0.36,-4.66,0.89,4.75
2.786,-1.93,-4.61,1.47,5.21
2.796,-3.08,-4.94,1.99,6.15
2.806,-3.71,-5.74,2.52,7.29
2.816,-4.25,-7.09,2.76,8.72
2.826,-5.23,-8.67,2.21,10.37
2.836,-6.64,-10.26,1.16,12.28
2.846,-7.82,-11.86,0.22,14.21
2.856,-8.58,-13.46,-0.42,15.97
2.866,-9.29,-14.78,-0.81,17.48
2.875,-9.74,-15.86,-1.7,18.69
2.885,-9.89,-15.87,-2.46,18.85
2.895,-10.15,-15.65,-2.82,18.86
2.905,-9.79,-15.13,-2.1,18.15
2.915,-8.43,-13.95,-0.36,16.3
2.926,-6.05,-12.24,1.65,13.75
2.935,-2.73,-10.65,3.33,11.49
2.945,1.29,-9.26,4,10.17
2.956,5.42,-8.04,3.44,10.28
2.965,9.56,-6.74,2.5,11.96
2.975,13.31,-4.98,1.55,14.3
2.986,16.23,-2.85,0.82,16.49
2.996,17.96,-0.35,0.57,17.98
3.006,18.11,2.29,0.7,18.27
3.016,17.39,4.6,1.56,18.06
3.026,16.87,6.39,3.27,18.33
3.035,16.73,7.38,5.34,19.05
3.046,16.04,7.05,7.05,18.88
3.056,14.48,5.59,7.92,17.43
3.066,12.73,3.85,8.41,15.74
3.076,11.14,2.36,8.79,14.38
3.085,9.61,1.18,8.69,13.01
3.095,8.09,0.3,7.68,11.16
3.105,6.52,0,6.13,8.95
3.115,4.88,0.42,4.75,6.82
3.126,3.35,1.45,3.76,5.24
3.135,2.02,2.78,3,4.56
3.145,0.56,4.29,2.37,4.93
3.155,-1.48,5.93,1.74,6.36
3.165,-3.7,7.91,1.4,8.85
3.175,-5.26,10.22,1.67,11.61
3.185,-5.94,11.99,1.91,13.52
3.195,-6.28,12.92,1.44,14.43
3.205,-6.39,13.13,0.56,14.62
3.215,-6.4,13.53,0.02,14.97
3.225,-6.1,13.67,0.27,14.97
3.235,-6.08,13.94,1.38,15.27
3.245,-6.51,13.96,2.94,15.68
3.255,-6.95,13.8,4.85,16.19
3.265,-7.58,13.58,6.92,17.02
3.275,-8.12,13.24,9.03,17.97
3.285,-7.95,12.69,11.13,18.65
3.295,-7.11,11.74,12.76,18.74
3.305,-5.97,10.49,13.9,18.41
3.315,-4.32,8.98,15.15,18.13
3.325,-2.54,7.29,16.42,18.15
3.335,-0.82,5.52,17.62,18.48
3.345,0.96,3.73,18.24,18.65
3.355,2.64,2.26,17.98,18.31
3.365,4.01,1.27,17.66,18.16
3.375,4.93,0.86,18.26,18.93
3.385,5.57,0.89,19.47,20.27
3.395,6.2,1.19,20.19,21.15
3.405,6.88,1.87,20.29,21.5
3.415,7.77,2.82,20.04,21.67
3.425,8.98,3.78,19.73,22
3.435,10.33,4.46,18.92,22.02
3.445,11.24,5.02,17.78,21.63
3.455,11.68,5.63,16.68,21.13
3.465,11.71,6.01,15.55,20.37
3.476,11.65,6.26,14.51,19.64
3.485,11.56,6.22,12.68,18.25
3.495,11.08,5.95,10.56,16.42
3.505,9.92,5.52,9.11,14.56
3.515,8.14,5.01,8.34,12.68
3.525,6.42,4.59,8.11,11.32
3.534,5.19,4,7.61,10.04
3.545,4.17,2.94,6.88,8.57
3.555,3.37,1.61,6.71,7.68
3.565,2.59,0.11,6.51,7.01
3.575,1.48,-1.51,5.94,6.31
3.584,0.51,-3.34,5.45,6.41
3.595,-0.08,-5.34,5.22,7.47
3.605,-0.33,-7.41,4.79,8.83
3.615,-0.33,-9.68,3.76,10.39
3.625,-0.17,-12.08,2.64,12.37
3.634,-0.31,-14.37,1.81,14.49
3.645,-0.89,-16.43,1.3,16.51
3.654,-1.6,-18.16,1.15,18.27
3.664,-2.06,-19.16,1.03,19.29
3.674,-2.44,-19.5,0.28,19.65
3.684,-2.71,-19.18,-0.77,19.39
3.694,-2.71,-18.39,-1.59,18.66
3.704,-2.74,-16.83,-2.07,17.18
3.714,-2.67,-14.5,-1.96,14.88
3.724,-2.27,-11.82,-1.4,12.12
3.734,-1.32,-8.98,-0.55,9.09
3.744,0.59,-6.39,0.34,6.43
3.754,3.49,-4.33,0.81,5.62
3.764,7.56,-2.86,0.64,8.11
3.774,12.4,-1.63,0.3,12.51
3.784,16.2,-0.25,0.08,16.2
3.795,18.73,1.19,-0.09,18.77
3.805,20.03,2.56,-0.07,20.19
3.814,19.97,3.97,0.09,20.36
3.825,18.98,5.54,0.74,19.79
3.834,17.65,7.12,1.83,19.12
3.845,16.33,8.22,3,18.53
3.854,14.91,8.92,4.13,17.86
3.865,13.63,9.25,4.98,17.21
3.874,12.46,9.19,5.12,16.3
3.884,11.3,8.97,4.51,15.12
3.894,9.96,9.23,3.42,14
3.904,8.59,10.33,2.07,13.59
3.914,7.43,11.95,0.8,14.1
3.924,5.58,14.05,-0.12,15.12
3.934,3.12,16.15,-0.17,16.45
3.944,0.52,17.7,0.33,17.71
3.954,-2.17,18.87,0.45,19
3.964,-4.88,19.57,0.17,20.17
3.974,-7.38,19.73,-0.22,21.07
3.984,-9.34,19.4,-0.35,21.53
3.994,-10.65,18.76,0.07,21.57
4.004,-11.72,18.13,1.22,21.62
4.014,-12.61,17.54,3.03,21.81
4.024,-13.25,16.84,4.88,21.98
4.034,-13.88,16.11,6.26,22.17
4.044,-14.03,15.3,7.24,21.99
4.054,-13.45,14.3,7.85,21.14
4.064,-12.46,13.06,7.88,19.69
4.074,-11.16,11.72,7.73,17.93
4.084,-9.21,10.24,7.7,15.78
4.094,-6.76,8.89,7.72,13.58
4.104,-3.43,7.64,7.95,11.54
4.114,0.82,6.55,8.65,10.88
4.124,5.33,5.62,9.83,12.52
4.134,9.43,5.08,11.32,15.59
4.144,12.55,5.35,13.05,18.88
4.154,14.93,6.57,15.4,22.43
4.164,17.19,7.98,18.26,26.32
4.174,19.04,8.27,19.76,28.66
4.184,19.73,9.29,20.77,30.12
4.194,21.27,8.49,21.78,31.6
4.204,20.65,7.49,20.14,29.81
4.214,20.52,4.96,17.41,27.37
4.224,20.03,1.9,13.9,24.45
4.234,18.76,-0.93,9.62,21.1
4.244,16.81,-3.35,5.26,17.93
4.254,14.32,-5.11,1.75,15.3
4.264,11.41,-6.03,-0.69,12.92
4.274,8.53,-6.35,-3.3,11.13
4.284,5.94,-6.17,-3.98,9.45
4.294,3.71,-5.84,-2.64,7.4
4.304,1.61,-5.81,-0.36,6.04
4.313,-0.08,-6.17,1.72,6.41
4.324,-1.26,-7.02,2.84,7.68
4.334,-2.05,-8.38,3.3,9.23
4.343,-2.43,-10.04,3.46,10.9
4.353,-2.76,-11.83,3.42,12.62
4.363,-3.29,-13.65,3.07,14.37
4.373,-4.23,-15.41,2.36,16.16
4.384,-5.46,-17.01,1.57,17.93
4.393,-6.38,-18.57,0.76,19.65
4.403,-6.92,-18.89,0.14,20.12
4.413,-7.99,-18.87,-0.43,20.5
4.424,-8.16,-19.3,-1.08,20.98
4.433,-7.99,-18.89,-1.35,20.55
4.443,-7.53,-18.24,-1.65,19.81
4.453,-6.47,-17.08,-1.42,18.32
4.463,-5.07,-15.52,-0.88,16.35
4.473,-3.62,-13.99,-0.38,14.45
4.483,-1.99,-12.37,0.12,12.53
4.493,0.16,-10.96,0.53,10.97
4.503,2.12,-9.63,0.74,9.88
4.513,4.13,-8.26,1.03,9.3
4.523,6.17,-6.69,0.66,9.12
4.533,8,-4.78,-0.59,9.34
4.543,10.42,-2.84,-1.44,10.89
4.553,13.69,-0.45,-0.52,13.71
4.564,17.08,2.13,2.02,17.33
4.574,20.47,4.04,4.71,21.39
4.583,24.25,4.58,6.33,25.48
4.593,26.66,3.57,6.83,27.75
4.603,26.19,2.13,7.26,27.26
4.613,23.93,0.84,8.31,25.35
4.623,20.59,-0.12,8.78,22.39
4.633,16.75,-0.41,8.12,18.62
4.643,13.22,-0.03,7.64,15.27
4.653,10.06,1.02,8.17,12.99
4.663,7.36,2.71,9.15,12.05
4.673,4.98,4.71,9.73,11.9
4.683,2.9,6.69,9.94,12.33
4.693,0.99,8.3,9.97,13.01
4.703,-0.73,9.33,9.65,13.44
4.713,-2.21,9.71,8.86,13.33
4.723,-3.86,9.61,7.63,12.86
4.733,-5.78,9.42,6.29,12.71
4.743,-7.85,9.41,5.22,13.33
4.753,-9.82,9.7,4.42,14.49
4.763,-11.5,10.29,3.69,15.86
4.773,-13,11.02,2.89,17.28
4.783,-14.28,11.77,2.29,18.65
4.793,-15.17,12.64,2.43,19.9
4.803,-15.64,13.55,3.24,20.94
4.813,-15.48,14.33,4.29,21.53
4.823,-14.52,14.59,5.08,21.2
4.833,-12.89,14.11,5.31,19.83
4.843,-10.95,12.86,4.93,17.6
4.853,-9.12,11.21,4.17,15.04
4.863,-7.31,9.38,3.38,12.36
4.873,-5.45,7.53,2.67,9.67
4.883,-3.72,5.78,2.17,7.21
4.893,-2.24,4.4,1.84,5.27
4.902,-0.41,3.52,1.79,3.97
4.913,1.79,3.02,2.07,4.07
4.923,4.43,2.8,2.84,5.96
4.933,7.39,2.92,4.02,8.9
4.943,10.23,3.45,5.53,12.13
4.953,12.75,4.48,7.62,15.52
4.962,14.65,5.89,10.46,18.94
4.972,15.9,7.54,13.94,22.45
4.983,17.14,8.54,17.75,26.11
4.992,17.86,9.16,21.3,29.27
5.003,19.55,8.42,23.74,31.89
5.013,20.36,5.35,20.68,29.5
5.023,19.14,1.44,14.02,23.77
5.033,17.77,-2.21,9.37,20.21
5.043,15.55,-4.94,5.54,17.23
5.052,12.55,-6.57,2.76,14.43
5.062,9.23,-7.22,1.27,11.78
5.072,5.8,-7,-0.56,9.11
5.082,2.81,-6.34,-0.4,6.95
5.092,0.27,-5.57,0.82,5.63
5.102,-1.77,-4.97,1.89,5.61
5.112,-3.35,-4.8,2.54,6.38
5.122,-4.43,-5.14,2.92,7.38
5.132,-5.26,-6.02,3.08,8.56
5.142,-5.98,-7.21,3.13,9.88
5.152,-6.7,-8.44,3.14,11.22
5.162,-7.49,-9.65,3.07,12.6
5.172,-8.24,-10.9,2.94,13.97
5.182,-8.74,-12.23,2.73,15.28
5.192,-8.83,-13.28,2.23,16.1
5.202,-8.86,-13.86,1.58,16.52
5.212,-9.03,-14.65,1.09,17.24
5.222,-9.34,-15.34,0.84,17.98
5.232,-9.53,-15.74,0.58,18.41
5.242,-9.26,-15.82,0.22,18.33
5.252,-8.46,-15.29,-0.35,17.48
5.262,-7.45,-14.14,-0.92,16
5.272,-6.45,-12.63,-1.03,14.22
5.282,-5.07,-10.95,-0.21,12.07
5.292,-2.18,-9.13,1.53,9.51
5.302,2.43,-7.4,2.73,8.25
5.312,6.78,-6.31,1.31,9.35
5.322,9.85,-5.43,-1.73,11.38
5.332,13,-4.14,-3.57,14.1
5.343,16.76,-2.49,-3.21,17.24
5.352,18.93,-0.59,-1.44,18.99
5.362,18.55,1.36,0.64,18.61
5.372,17.75,3.2,2.43,18.2
5.382,17.58,4.49,3.72,18.52
5.392,16.98,4.51,4.58,18.16
5.402,15.46,3.51,5.39,16.75
5.412,13.5,2.08,6.2,15
5.422,11.42,0.84,6.59,13.21
5.432,9.49,-0.18,6.08,11.28
5.442,7.83,-0.8,4.77,9.2
5.452,6.62,-0.92,3.52,7.55
5.462,5.87,-0.51,2.8,6.52
5.472,5.2,0.44,2.47,5.78
5.482,4.51,1.76,2.34,5.38
5.492,3.81,3.24,2.36,5.53
5.502,3.12,4.76,2.07,6.05
5.512,2.06,6.37,1.63,6.89
5.522,0.89,7.91,1.25,8.05
5.532,-0.29,9.37,0.98,9.42
5.542,-1.51,10.65,1.02,10.8
5.552,-2.5,11.65,1.3,11.99
5.562,-3.12,12.28,1.43,12.75
5.572,-3.3,12.56,1.27,13.05
5.582,-3.36,12.48,0.75,12.94
5.592,-3.6,12.24,0.27,12.76
5.601,-3.93,12,0.41,12.63
5.612,-4.35,11.74,1.38,12.6
5.622,-5,11.58,3.1,12.99
5.632,-5.73,11.31,5.54,13.84
5.642,-6.25,10.93,8.17,15.01
5.651,-6.3,10.4,10.24,15.9
5.661,-5.89,9.52,11.21,15.84
5.671,-5.14,8.22,11.33,14.91
5.682,-4.23,6.61,11.26,13.73
5.692,-3.17,4.98,11.48,12.91
5.701,-1.76,3.45,12.12,12.73
5.712,-0.58,2.19,12.71,12.91
5.722,0.45,1.28,12.91,12.98
5.731,1.38,0.97,13.19,13.3
5.741,2.36,1.17,13.95,14.2
5.751,3.42,1.86,15.46,15.94
5.761,5.17,2.69,17.76,18.69
5.771,7.64,3.16,19.72,21.38
5.781,9.75,3.17,19.92,22.4
5.792,11,3.22,19.53,22.65
5.801,12.13,3.48,19.98,23.63
5.812,13.19,3.38,19.51,23.79
5.822,13.78,2.79,17.55,22.49
5.832,14.07,2.1,15.97,21.38
5.842,13.98,1.55,15.01,20.57
5.851,13.4,1.21,13.96,19.39
5.862,12.44,1,12.56,17.71
5.871,11.25,1.08,11.38,16.04
5.881,9.99,1.32,10.7,14.7
5.891,8.66,1.65,10.28,13.54
5.901,7.72,1.81,9.96,12.73
5.911,7.02,1.68,9.63,12.04
5.921,6.4,1.37,9.1,11.21
5.931,5.92,0.84,8.21,10.16
5.941,5.45,0.18,7.33,9.14
5.951,4.87,-0.65,6.41,8.07
5.961,4.09,-1.41,5.7,7.15
5.971,3.18,-2.03,5.26,6.48
5.981,2.26,-2.63,4.82,5.94
5.991,1.44,-3.27,4.39,5.66
6.001,0.72,-4.01,3.87,5.62
6.011,0.07,-4.79,3.26,5.8
6.021,-0.53,-5.53,2.78,6.21
6.031,-0.99,-6.18,2.6,6.78
6.041,-1.3,-6.86,2.48,7.41
6.051,-1.84,-7.56,2.08,8.06
6.061,-2.67,-8.19,1.57,8.76
6.071,-3.33,-8.83,1.24,9.52
6.081,-3.75,-9.51,0.83,10.26
6.091,-4.11,-10.27,0.3,11.07
6.101,-4.46,-11.06,-0.32,11.93
6.111,-4.76,-11.89,-0.99,12.85
6.121,-4.96,-12.53,-1.59,13.57
6.131,-4.98,-12.78,-1.96,13.86
6.141,-4.77,-12.84,-2.13,13.86
6.151,-4.62,-12.48,-2.3,13.51
6.161,-4.54,-11.73,-2.5,12.82
6.171,-4.31,-10.72,-2.58,11.84
6.181,-3.83,-9.56,-2.54,10.61
6.191,-2.94,-8.31,-2.45,9.15
6.201,-1.44,-7.06,-2.34,7.57
6.211,0.66,-5.72,-2.12,6.14
6.22,3.04,-4.39,-1.9,5.66
6.231,5.35,-3.14,-1.71,6.44
6.241,7.77,-2.04,-1.51,8.17
6.251,10.37,-1.15,-1.37,10.53
6.261,12.73,-0.22,-1.52,12.83
6.271,14.76,0.77,-2.15,14.94
6.281,16.56,1.55,-1.62,16.71
6.291,17.78,1.95,-0.06,17.89
6.301,17.92,2.62,0.04,18.11
6.311,17.47,3.43,0.24,17.81
6.32,16.7,4.11,0.9,17.22
6.331,15.94,4.74,1.2,16.67
6.341,15.23,5.67,0.74,16.27
6.351,14.44,7.03,0.17,16.06
6.361,13.65,8.66,0.4,16.17
6.371,12.35,10.54,1.29,16.28
6.38,10.11,12.33,2.34,16.12
6.39,7.53,13.66,2.89,15.86
6.4,5.05,14.46,3.44,15.7
6.411,2.74,14.77,4.13,15.58
6.42,1.04,14.22,5.01,15.11
6.43,-0.47,12.65,5.97,13.99
6.44,-2.85,10.41,7.6,13.2
6.45,-4.06,8.6,6.62,11.59
6.46,-5.06,6.8,5.69,10.21
6.47,-6.2,5.87,4.17,9.5
6.48,-7.11,5.37,3.15,9.45
6.49,-8.29,5.6,2.85,10.4
6.5,-9.64,6.31,3.06,11.92
6.51,-11,7.08,3.35,13.5
6.52,-12.38,7.86,3.64,15.11
6.53,-13.5,8.65,4.01,16.52
6.54,-14.23,9.32,4.58,17.62
6.55,-14.51,9.56,5.22,18.15
6.56,-14.29,9.27,5.61,17.94
6.57,-13.48,8.56,5.42,16.86
6.58,-12.46,7.65,4.73,15.37
6.59,-11.54,6.86,4,14.01
6.6,-10.18,6,3.56,12.34
6.61,-8.27,5.16,3.16,10.25
6.62,-6.03,4.6,2.75,8.07
6.63,-3.28,4.29,2.43,5.93
6.64,0.61,4.37,2.97,5.32
6.65,5.84,5.18,5.26,9.42
6.66,11.28,7.35,8.85,16.11
6.671,16.32,13.48,16.41,26.79
6.681,15.21,7.03,12.86,21.13
6.691,18.7,2.72,10.2,21.48
6.7,19.09,4.16,8.77,21.41
6.71,18.16,4.41,11.44,21.91
6.72,16.89,5,16.79,24.33
6.73,16.16,4.81,16.9,23.87
6.74,15.84,3.81,14.36,21.72
6.75,14.71,2.41,12.02,19.14
6.76,12.68,0.8,11.4,17.06
6.77,10.57,-0.78,10.54,14.95
6.78,9.09,-2.33,8.4,12.59
6.79,8.22,-4.23,4.61,10.33
6.8,6.86,-6.03,1.51,9.26
6.81,4.8,-7.1,0.41,8.58
6.82,3.23,-7.93,0.65,8.59
6.83,1.84,-8.5,0.54,8.71
6.84,0.31,-8.8,0.54,8.82
6.85,-1.1,-9.09,0.81,9.19
6.86,-2.16,-9.4,1.27,9.73
6.87,-2.83,-9.85,1.71,10.4
6.88,-3.37,-10.42,1.97,11.13
6.89,-3.83,-11.07,1.98,11.88
6.9,-4.24,-11.85,1.53,12.68
6.91,-4.65,-12.61,0.98,13.48
6.919,-5.14,-13.27,0.5,14.24
6.93,-5.77,-13.86,0.14,15.01
6.94,-6.38,-14.4,-0.06,15.75
6.95,-6.89,-14.9,-0.2,16.42
6.96,-7.13,-15.32,-0.52,16.9
6.969,-7.23,-15.63,-1.14,17.26
6.98,-7.33,-15.57,-1.68,17.29
6.99,-7.33,-15.04,-1.92,16.85
7,-7.1,-14.17,-1.7,15.94
7.01,-6.4,-13.2,-1.27,14.73
7.019,-5.21,-12.16,-0.88,13.26
7.029,-3.44,-11.12,-0.44,11.65
7.039,-1.22,-9.98,-0.07,10.05
7.049,1.15,-8.51,-0.18,8.58
7.059,3.18,-6.99,-1.01,7.75
7.069,5.38,-5.79,-1.48,8.04
7.079,8.55,-4.68,-0.44,9.76
7.089,12.94,-3.38,1.88,13.5
7.099,17.82,-1.86,4.26,18.41
7.109,22.32,-0.81,5.06,22.9
7.119,25.57,-0.26,4.22,25.91
7.13,26.87,0.36,3.45,27.09
7.139,26,0.79,3.61,26.26
7.15,23.67,1.42,4.12,24.07
7.16,21.51,2.45,4.56,22.12
7.169,19.64,3.23,4.66,20.44
7.18,17.3,3.77,4.23,18.21
7.19,14.67,4.33,3.7,15.74
7.2,12.05,4.88,3.42,13.45
7.209,9.37,5.44,3.23,11.3
7.219,6.84,6.07,3.04,9.64
7.229,4.77,6.78,3.06,8.83
7.239,2.97,7.49,3.27,8.7
7.249,1.28,8.15,3.63,9.02
7.259,-0.23,8.85,4.19,9.8
7.269,-1.42,9.34,4.9,10.64
7.279,-2.16,9.42,5.5,11.12
7.289,-2.73,9.05,5.74,11.06
7.299,-3.63,8.54,5.62,10.85
7.309,-4.94,8.16,5.4,10.97
7.319,-6.47,7.98,5.13,11.48
7.329,-7.98,7.91,4.91,12.26
7.339,-9.4,8.05,4.73,13.25
7.349,-10.66,8.26,4.55,14.23
7.359,-11.8,8.53,4.41,15.21
7.369,-12.77,9.05,4.79,16.37
7.379,-13.29,9.81,5.92,17.54
7.389,-13.42,10.75,7.37,18.71
7.399,-13.14,11.53,8.49,19.43
7.409,-12.26,11.78,8.94,19.2
7.419,-10.86,11.51,8.61,18.01
7.429,-9.08,10.77,7.82,16.11
7.439,-7.04,9.72,7.18,13.98
7.449,-4.54,8.42,6.76,11.72
7.459,-1.6,7.03,6.22,9.52
7.469,1.61,5.66,5.39,7.98
7.479,4.96,4.41,4.58,8.06
7.489,7.93,3.63,3.94,9.58
7.499,10.7,3.45,3.77,11.86
7.509,13.74,3.51,4.11,14.77
7.519,16.46,3.79,4.74,17.55
7.529,18.44,4.28,5.61,19.75
7.539,19.68,5.07,6.94,21.47
7.549,20.4,6.58,9.8,23.57
7.559,20.05,7.24,12.69,24.81
7.569,20,6.03,13.51,24.88
7.579,20.01,4.02,11.32,23.34
7.589,18.22,1.63,6.83,19.52
7.599,15.68,-0.7,4.04,16.21
7.609,13.04,-2.66,2.91,13.62
7.618,10,-4.6,0.64,11.03
7.629,6.9,-6.26,-1.76,9.48
7.639,4.23,-6.63,-1.7,8.04
7.648,1.98,-6.54,-0.57,6.86
7.659,0.08,-6.39,0.43,6.41
7.668,-1.44,-6.13,1.12,6.39
7.678,-2.73,-5.85,1.96,6.75
7.688,-3.58,-5.6,3.15,7.36
7.698,-4.08,-5.64,4.21,8.13
7.709,-4.53,-6.09,4.73,8.94
7.718,-4.86,-6.87,4.74,9.66
7.728,-5.06,-7.8,4.65,10.39
7.738,-5.32,-8.69,4.65,11.2
7.748,-5.71,-9.47,4.74,12.03
7.759,-6.08,-10.24,4.83,12.85
7.768,-6.26,-11.06,4.8,13.59
7.778,-6.33,-11.99,4.35,14.24
7.788,-6.59,-12.94,3.4,14.92
7.798,-6.91,-13.81,2.36,15.62
7.808,-7.03,-14.45,1.6,16.14
7.818,-7,-14.64,1.04,16.26
7.828,-6.94,-14.27,0.73,15.89
7.838,-6.76,-13.64,0.6,15.24
7.848,-6.79,-12.46,0.69,14.21
7.858,-5.75,-10.77,1.45,12.3
7.868,-3.13,-8.65,2.19,9.46
7.878,-0.03,-6.85,1.65,7.04
7.888,2.81,-5.82,-0.18,6.46
7.898,5.69,-5.12,-1.88,7.88
7.908,9.38,-4.6,-2.34,10.71
7.918,13.65,-4.27,-1.99,14.44
7.929,16.52,-3.29,-3.22,17.15
7.938,18.38,-3.14,-3.05,18.9
7.949,18.55,-3.64,-0.89,18.92
7.958,18.46,-4.14,-2.86,19.13
7.968,17.8,-4.68,-5.12,19.1
7.979,16.52,-4.33,-6.24,18.19
7.988,15.23,-3.32,-7.01,17.09
7.998,13.92,-2.24,-7.48,15.96
8.008,12.17,-1,-7.83,14.51
8.018,10.11,0.32,-7.83,12.79
8.028,8.33,1.85,-7.14,11.12
8.038,7.04,3.71,-5.37,9.6
8.048,5.83,5.79,-2.96,8.73
8.058,4.47,7.57,-2.28,9.09
8.068,3.29,8.46,-3.84,9.85
8.078,2.64,8.47,-5.1,10.23
8.088,2,8.16,-4.95,9.75
8.098,1.28,7.42,-3.45,8.28
8.108,0.53,6.56,-1.81,6.82
8.118,-0.21,5.61,-1.18,5.74
8.128,-1.02,4.79,-1.44,5.1
8.138,-1.85,4.3,-1.64,4.96
8.148,-2.62,4.06,-1.23,4.98
8.158,-3.56,4.19,-0.42,5.51
8.168,-4.77,4.8,0.58,6.8
8.178,-6.21,5.83,1.69,8.68
8.188,-7.45,6.86,2.55,10.45
8.198,-8.51,7.88,2.81,11.93
8.207,-9.5,8.87,2.52,13.24
8.217,-9.97,9.71,2.3,14.11
8.228,-9.97,10.17,2.55,14.47
8.237,-9.99,10.24,3.46,14.72
8.248,-9.7,9.92,5.06,14.76
8.258,-8.86,9.31,6.92,14.6
8.267,-7.91,8.69,8.46,14.48
8.278,-6.97,8.08,9.65,14.39
8.288,-5.67,7.39,10.42,13.97
8.298,-4.3,6.61,10.29,12.97
8.307,-2.61,5.78,9.96,11.8
8.318,0.25,4.78,9.66,10.78
8.328,3.66,3.7,9.28,10.64
8.337,6.46,2.45,9.09,11.41
8.347,7.78,1.32,9.19,12.11
8.358,8.47,0.85,10,13.13
8.367,9.45,1.17,11.26,14.74
8.377,10.67,2.11,13.1,17.02
8.388,12.01,3.16,16.23,20.43
8.398,13.89,3.9,20.23,24.85
8.408,15.93,4.06,20.97,26.64
8.418,16.67,3.7,17.16,24.21
8.428,16.52,3.45,13.71,21.74
8.437,16.55,3.79,12.22,20.92
8.448,16.39,4.4,8.95,19.19
8.458,15.82,4.71,4.87,17.21
8.468,14.7,5.07,2.42,15.73
8.477,13.62,5.34,1.66,14.72
8.488,12.47,5.23,1.58,13.62
8.497,11.14,4.92,1.73,12.31
8.507,9.55,4.52,2.92,10.96
8.517,7.97,4.26,5.13,10.39
8.527,6.68,3.86,7.36,10.66
8.537,5.68,3.06,8.71,10.84
8.547,4.65,2.01,9.22,10.52
8.557,3.58,0.8,9.63,10.3
8.567,2.74,-0.47,9.92,10.3
8.577,2.18,-1.71,9.83,10.21
8.587,1.52,-2.87,9.26,9.81
8.597,0.87,-3.89,8.78,9.64
8.607,0.34,-4.83,8.39,9.69
8.617,-0.22,-5.66,7.85,9.69
8.627,-0.68,-6.34,7.25,9.66
8.637,-1.13,-6.78,6.7,9.6
8.647,-1.5,-7.01,6.27,9.52
8.657,-1.73,-7.02,5.94,9.35
8.667,-1.78,-6.78,5.55,8.94
8.677,-1.78,-6.65,4.82,8.4
8.687,-1.75,-6.9,3.92,8.13
8.697,-1.8,-7.36,2.99,8.14
8.707,-1.9,-7.97,1.9,8.41
8.717,-2.1,-8.54,0.58,8.81
8.727,-2.4,-8.86,-0.72,9.21
8.737,-2.75,-8.94,-1.85,9.53
8.747,-3.05,-8.84,-2.9,9.79
8.757,-3.27,-8.61,-3.66,9.91
8.767,-3.6,-8.2,-4.23,9.91
8.777,-3.9,-7.7,-4.61,9.79
8.787,-4.18,-7.16,-4.72,9.54
8.797,-4.54,-6.63,-4.69,9.3
8.807,-4.76,-6.18,-4.5,9.01
8.817,-4.97,-5.88,-4.46,8.9
8.827,-5.15,-5.7,-4.52,8.91
8.837,-5.22,-5.48,-4.55,8.83
8.847,-4.99,-5.25,-4.51,8.54
8.857,-4.35,-5.02,-4.43,7.99
8.867,-3.27,-4.68,-4.16,7.06
8.877,-1.76,-4.16,-3.93,5.99
8.886,0.02,-3.56,-3.59,5.06
8.897,2.07,-2.97,-3.37,4.95
8.907,4.47,-2.38,-3.29,6.04
8.917,6.94,-1.83,-3.2,7.86
8.927,9.5,-1.37,-2.86,10.01
8.936,12.03,-0.89,-2.01,12.23
8.947,14.43,-0.57,-0.72,14.46
8.957,16.01,-0.31,0.04,16.02
8.967,16.75,0.09,0.46,16.75
8.977,16.99,0.53,1.1,17.04
8.987,16.81,1.02,2.01,16.96
8.997,16.16,1.6,3.05,16.53
9.007,15.03,2.2,3.62,15.61
9.017,13.83,2.98,3.71,14.63
9.027,12.19,3.78,3.52,13.24
9.036,10.67,4.45,3.43,12.06
9.046,9.38,5.13,3.46,11.24
9.057,8.19,5.78,3.47,10.61
9.066,7.17,6.37,3.44,10.19
9.076,6.24,6.94,3.27,9.89
9.086,5.39,7.57,3.1,9.8
9.096,4.43,8.33,3.07,9.92
9.106,3.4,9.11,3.21,10.24
9.116,2.51,9.84,3.45,10.72
9.126,1.67,10.44,3.52,11.14
9.136,0.69,10.84,3.4,11.38
9.146,-0.62,11.14,3.18,11.6
9.156,-2.12,11.45,2.92,12
9.166,-3.72,11.88,2.64,12.73
9.176,-5.32,12.47,2.49,13.79
9.186,-6.76,12.86,2.41,14.73
9.196,-8.1,12.99,2.37,15.5
9.206,-9.48,12.97,2.18,16.21
9.216,-10.89,12.96,1.83,17.03
9.226,-12.11,13.18,1.55,17.96
9.236,-12.69,13.5,1.38,18.58
9.246,-12.62,13.74,1.44,18.71
9.256,-12.14,13.67,1.7,18.36
9.266,-11.36,13.36,2.32,17.69
9.276,-9.84,12.68,3.51,16.43
9.286,-7.71,11.56,4.85,14.72
9.296,-5.33,10.21,5.86,12.92
9.306,-2.21,8.78,6.78,11.31
9.316,1.94,7.15,7.67,10.66
9.326,6.61,5.5,8.91,12.38
9.336,11,4.1,10.8,15.95
9.347,14.72,3.12,13.39,20.14
9.357,17.81,2.9,16.77,24.63
9.366,20.18,3.26,20.1,28.67
9.377,21.17,3.53,22.2,30.88
9.386,20.93,3.93,22.47,30.96
9.396,21,3.37,20.28,29.39
9.406,20.73,2.19,16.34,26.49
9.416,19.33,0.46,11.75,22.62
9.426,16.75,-1.25,7.37,18.34
9.436,13.72,-2.65,3.97,14.53
9.446,10.68,-3.55,2.04,11.44
9.456,7.79,-3.89,0.93,8.76
9.466,5.52,-3.85,0.66,6.76
9.476,3.87,-3.63,1.09,5.42
9.486,2.41,-3.62,1.56,4.62
9.496,0.91,-4.03,2.27,4.72
9.506,-0.5,-4.85,3.14,5.8
9.516,-1.72,-6.15,3.81,7.44
9.526,-2.9,-7.68,4.21,9.22
9.535,-4.13,-9.18,4.35,10.97
9.546,-4.95,-10.55,4.52,12.5
9.555,-5.24,-11.97,4.41,13.79
9.565,-5.4,-13.27,3.81,14.83
9.576,-5.76,-13.91,2.68,15.29
9.585,-6.39,-14.01,1.5,15.47
9.596,-7.29,-14.57,0.93,16.32
9.606,-8.01,-15.1,0.78,17.11
9.615,-8.65,-15.2,0.26,17.49
9.626,-9.06,-14.94,-0.59,17.48
9.635,-9.09,-14.35,-1.42,17.05
9.645,-8.78,-13.34,-2.32,16.13
9.655,-8.18,-11.99,-2.94,14.8
9.665,-7.13,-10.77,-3.26,13.32
9.675,-5.91,-9.69,-3.29,11.82
9.685,-4.72,-8.71,-3.08,10.37
9.695,-3.23,-7.95,-2.62,8.97
9.705,-1.22,-7.19,-2.02,7.57
9.715,0.97,-6.08,-1.94,6.46
9.725,3.4,-5,-2.58,6.58
9.735,6.39,-4.33,-3.02,8.29
9.745,9.52,-4.04,-2.73,10.7
9.755,12.28,-3.82,-1.55,12.96
9.765,14.82,-3.51,0.22,15.23
9.775,17.3,-3.14,1.75,17.67
9.786,19.56,-2.91,2.38,19.92
9.796,20.62,-2.95,1.95,20.92
9.806,20.33,-3.17,1.17,20.61
9.816,19.72,-3.1,0.94,19.99
9.826,18.92,-2.67,1.29,19.15
9.835,17.49,-2.02,1.86,17.7
9.846,15.91,-1.12,2.38,16.12
9.855,14.2,-0.05,2.67,14.45
9.865,12.15,1.23,2.82,12.54
9.875,9.73,2.61,3.05,10.53
9.885,7.24,3.9,3.35,8.88
9.895,4.98,5.03,3.68,7.98
9.905,3.05,6.02,4.1,7.89
9.915,1.35,6.74,4.58,8.26
9.925,-0.32,7.23,5.06,8.83
9.935,-2.18,7.57,5.37,9.54
9.945,-3.96,7.87,5.63,10.46
9.955,-5.42,8.12,5.81,11.36
9.965,-6.57,8.2,5.69,11.95
9.975,-7.62,8.24,5.22,12.38
9.985,-8.62,8.36,4.58,12.86
9.995,-9.54,8.49,3.92,13.36
10.005,-10.51,8.64,3.34,14
10.015,-11.47,8.84,2.92,14.78
10.025,-12.35,9.06,2.64,15.54
10.035,-13.01,9.32,2.58,16.21
10.045,-13.3,9.66,2.92,16.7
10.055,-13.29,10.04,3.52,17.03
10.065,-12.94,10.38,4.17,17.11
10.075,-12.17,10.48,4.71,16.74
10.085,-10.99,10.21,4.96,15.79
10.095,-9.55,9.51,4.81,14.32
10.105,-7.89,8.46,4.38,12.37
10.115,-5.95,7.23,3.71,10.07
10.125,-3.88,5.9,3.05,7.7
10.135,-1.16,4.75,2.77,5.62
10.145,2.17,3.89,2.66,5.19
10.155,5.71,3.37,2.88,7.23
10.165,9.37,3.04,3.55,10.47
10.175,12.47,3.1,4.43,13.59
10.185,14.4,3.68,5.45,15.84
10.195,15.98,4.39,7.13,18.04
10.205,17.27,5.19,9.28,20.28
10.215,18.31,6.02,11.92,22.66
10.225,19.15,6.42,14.99,25.15
10.235,19.48,5.8,17.17,26.61
10.245,18.98,4.15,17.89,26.41
10.255,17.43,1.87,16.12,23.81
10.265,15.51,-0.81,11.84,19.53
10.275,13.68,-3.41,7.33,15.89
10.284,11.71,-5.22,3.67,13.34
10.294,9.32,-6.21,1.19,11.26
10.305,6.77,-6.62,-0.4,9.48
10.315,4.68,-6.75,-3.04,8.76
10.324,2.81,-6.22,-2.98,7.45
10.334,0.9,-5.29,-1.87,5.69
10.344,-0.98,-4.33,-1.1,4.58
10.354,-2.47,-3.45,-0.35,4.26
10.364,-3.54,-2.98,0.43,4.65
10.374,-4.6,-3.11,1.27,5.69
10.384,-5.48,-3.89,2.01,7.02
10.394,-6.25,-5.19,2.33,8.45
10.404,-7.12,-6.63,2.26,9.99
10.414,-7.91,-8.07,2.05,11.49
10.424,-8.6,-9.54,1.9,12.99
10.434,-9.11,-11.05,1.8,14.44
10.444,-9.23,-12.13,1.6,15.32
10.454,-8.98,-12.34,1.18,15.31
10.464,-8.83,-12.78,0.85,15.56
10.474,-8.67,-13.35,0.57,15.93
10.484,-8.36,-13.79,0.28,16.12
10.494,-7.8,-13.89,-0.1,15.93
10.504,-7.26,-13.61,-0.86,15.45
10.514,-6.31,-13.22,-1.62,14.74
10.524,-5,-12.62,-2.18,13.74
10.534,-3.88,-11.84,-2.56,12.72
10.544,-2.74,-10.99,-2.37,11.57
10.554,-1,-9.71,-1.36,9.85
10.564,1.88,-7.84,-0.29,8.07
10.574,5.14,-5.88,-0.37,7.82
10.584,8.36,-4.43,-1.98,9.67
10.594,11.51,-3.24,-3.83,12.56
10.605,14.45,-1.78,-4.44,15.22
10.615,16.95,-0.19,-3.35,17.28
10.625,18.65,1.04,-0.95,18.7
10.634,19.04,1.75,0.57,19.13
10.645,18.78,1.65,0.2,18.85
10.654,18.21,1.18,-0.31,18.25
10.664,16.9,0.61,0.2,16.91
10.675,15.07,0.13,1.3,15.12
10.684,13.05,-0.11,2.24,13.24
10.694,10.98,-0.24,2.59,11.28
10.704,8.84,-0.23,2.53,9.2
10.714,6.79,0.01,2.61,7.28
10.724,4.93,0.54,2.88,5.74
10.734,3.4,1.23,3.17,4.81
10.744,2.2,1.95,3.25,4.38
10.754,1.35,2.69,3.11,4.33
10.764,0.82,3.39,2.93,4.55
10.774,0.35,4.03,2.8,4.92
10.784,-0.08,4.53,2.8,5.33
10.794,-0.38,4.84,2.85,5.63
10.804,-0.78,5.07,2.79,5.83
10.814,-1.31,5.19,2.54,5.92
10.824,-1.85,5.27,2.08,5.96
10.834,-2.54,5.44,1.42,6.17
10.844,-3.36,5.68,0.83,6.65
10.854,-4.27,6,0.39,7.37
10.864,-5.22,6.41,0.04,8.27
10.874,-6.28,6.95,-0.27,9.37
10.884,-7.48,7.55,-0.6,10.65
10.894,-8.57,8.12,-0.8,11.83
10.903,-9.26,8.6,-0.6,12.66
10.914,-9.63,9.03,0.03,13.2
10.924,-10.19,9.38,0.85,13.88
10.933,-10.69,9.71,1.96,14.58
10.943,-10.77,9.85,3.32,14.97
10.953,-10.41,9.71,4.43,14.91
10.963,-9.74,9.29,5.11,14.4
10.973,-9.03,8.55,5.4,13.56
10.983,-8.05,7.54,5.5,12.33
10.993,-6.71,6.75,5.55,11.02
11.003,-4.62,6.51,5.68,9.8
11.013,-1.54,6.44,6.2,9.07
11.023,2.38,6.27,7.69,10.2
11.033,6.76,6.12,10.42,13.84
11.043,10.2,6.18,13.71,18.17
11.053,11.91,6.71,16.86,21.71
11.064,12.95,7.53,20.43,25.34
11.074,14.19,8,24.91,29.76
11.084,16.43,7.67,28.19,33.52
11.094,18.64,5.88,26.79,33.16
11.103,19.5,3.17,23,30.32
11.114,19.63,0.4,20.41,28.32
11.124,18.73,-1.83,17.68,25.83
11.134,17.28,-3.27,13.79,22.35
11.144,15.23,-3.71,10.7,18.98
11.153,12.58,-3.21,9.48,16.08
11.163,10.01,-2.18,9.23,13.79
11.173,7.7,-1.06,9.01,11.9
11.183,5.66,-0.11,8.94,10.58
11.193,4.16,0.56,9.53,10.41
11.203,3.18,0.74,10,10.52
11.213,2.61,0.33,9.91,10.26
11.223,2.27,-0.44,9.51,9.78
11.233,2.01,-1.36,9.18,9.49
11.243,1.72,-2.37,8.76,9.24
11.253,1.27,-3.38,8.13,8.89
11.263,0.81,-4.36,7.42,8.64
11.273,0.24,-5.25,6.7,8.51
11.283,-0.55,-5.9,6.09,8.5
11.293,-1.46,-6.34,5.7,8.65
11.303,-2.33,-6.73,5.47,8.98
11.313,-3.02,-7.13,5.27,9.36
11.323,-3.63,-7.46,5.08,9.73
11.333,-4.23,-7.75,4.86,10.08
11.343,-4.67,-8.14,4.55,10.43
11.353,-5,-8.6,4.15,10.78
11.363,-5.32,-9.05,3.71,11.14
11.373,-5.55,-9.48,3.23,11.45
11.383,-5.63,-9.87,2.77,11.7
11.393,-5.69,-10.17,2.21,11.86
11.403,-5.82,-10.43,1.58,12.05
11.413,-6.02,-10.59,0.88,12.21
11.423,-6.24,-10.59,0.09,12.29
11.433,-6.54,-10.42,-0.71,12.33
11.443,-6.77,-10.23,-1.15,12.32
11.453,-6.97,-9.7,-1.34,12.02
11.463,-7.05,-8.94,-1.45,11.48
11.473,-6.84,-8.16,-1.52,10.76
11.483,-6.26,-7.26,-1.55,9.71
11.493,-5.39,-6.2,-1.64,8.38
11.503,-3.97,-5.05,-1.75,6.65
11.513,-1.75,-3.94,-1.84,4.68
11.522,0.86,-2.95,-2.02,3.67
11.533,3.6,-2.04,-2.31,4.74
11.543,6.44,-1.19,-2.62,7.06
11.553,9.15,-0.1,-3.39,9.76
11.563,11.59,1.08,-4.87,12.62
11.573,13.87,1.19,-3.51,14.35
11.583,14.97,0.99,-2.46,15.21
11.593,15.54,1.27,-2.56,15.8
11.603,16.2,1.43,-1.14,16.3
11.613,16.44,1.29,1.25,16.54
11.623,16.45,0.8,3.24,16.78
11.633,16.26,0.15,3.88,16.72
11.643,15.53,-0.48,3.48,15.92
11.653,14.38,-0.92,3.03,14.72
11.663,13.01,-1.04,2.77,13.34
11.673,11.58,-0.73,2.43,11.86
11.683,10.27,0.02,1.81,10.43
11.693,9.07,1.22,1.22,9.24
11.702,8.26,2.74,1,8.76
11.712,7.89,4.45,1.24,9.14
11.722,7.54,6.29,1.7,9.97
11.732,7.18,7.88,2.11,10.87
11.742,6.71,9.14,2.25,11.56
11.752,6.04,10.08,2.15,11.94
11.762,5.39,10.61,2,12.07
11.772,4.75,10.77,1.88,11.92
11.782,3.96,10.73,1.87,11.58
11.792,2.87,10.62,1.88,11.15
11.802,1.57,10.41,1.93,10.71
11.812,0.14,10.27,1.93,10.45
11.822,-1.33,10.33,1.85,10.58
11.832,-2.73,10.6,1.86,11.1
11.842,-4,10.94,2.13,11.84
11.852,-5.02,11.3,2.67,12.65
11.862,-5.91,11.65,3.3,13.47
11.872,-6.82,12.01,3.85,14.33
11.882,-7.72,12.46,4.35,15.29
11.892,-8.53,13,5.01,16.34
11.902,-8.96,13.45,5.95,17.22
11.912,-8.71,13.41,6.93,17.42
11.922,-7.95,12.85,7.44,16.84
11.932,-6.96,11.93,7.39,15.66
11.942,-5.64,10.87,7.27,14.25
11.952,-3.69,9.76,7.48,12.84
11.962,-1.33,8.61,7.75,11.66
11.972,1.24,7.47,7.86,10.92
11.982,4.26,6.24,7.67,10.76
11.992,7.55,4.99,7.25,11.6
12.002,10.35,3.98,6.79,13
12.012,12.62,3.44,6.78,14.74
12.022,14.95,3.13,7.49,17.02
12.033,16.55,3.21,8.47,18.87
12.043,17.04,3.73,9.64,19.93
12.052,17.02,4.62,11.48,21.04
12.062,17.2,5.42,13.36,22.44
12.072,18.03,5.39,14.95,24.03
12.082,19.44,4.34,15.28,25.11
12.093,19.98,2.68,13.44,24.23
12.102,19.58,0.95,10.95,22.46
12.112,18.22,-0.7,8.77,20.23
12.122,15.89,-2.16,6.37,17.26
12.132,12.88,-3.41,4.04,13.92
12.142,9.43,-4.2,2.66,10.66
12.152,6.28,-4.56,2.53,8.16
12.162,3.73,-4.9,2.89,6.81
12.172,1.87,-5.5,3.69,6.88
12.182,0.37,-6.17,4.69,7.76
12.192,-1,-6.89,5.33,8.77
12.202,-2.09,-7.87,5.33,9.73
12.212,-2.95,-9.06,4.7,10.63
12.222,-3.67,-10.33,3.81,11.61
12.232,-4.37,-11.47,2.94,12.62
12.242,-4.97,-12.38,2.21,13.52
12.251,-5.44,-13.09,1.64,14.27
12.262,-5.96,-13.7,1.05,14.97
12.271,-6.65,-14.15,0.41,15.64
12.282,-7.31,-14.47,-0.04,16.22
12.291,-7.85,-14.6,-0.21,16.58
12.302,-8,-14.66,-0.06,16.7
12.312,-7.86,-14.64,0.17,16.62
12.321,-7.44,-14.48,0.41,16.28
12.331,-6.81,-14.25,0.41,15.8
12.341,-6.29,-14.12,0.09,15.46
12.351,-6.01,-14.07,-0.28,15.31
12.361,-5.57,-14.04,-0.51,15.12
12.371,-4.79,-13.93,-0.43,14.73
12.381,-3.92,-13.64,-0.53,14.2
12.392,-2.95,-13.14,-0.77,13.49
12.401,-1.34,-12.31,-1.02,12.43
12.411,1.13,-11.2,-1.74,11.39
12.421,4.05,-10.02,-2.89,11.18
12.431,7.77,-8.9,-3.14,12.23
12.441,12.23,-7.65,-1.88,14.54
12.452,16.51,-5.93,0.09,17.54
12.462,20.46,-4.51,1.04,20.97
12.471,23.75,-3.72,0.31,24.04
12.482,25.71,-3.05,-0.65,25.9
12.492,26.42,-2.31,-0.57,26.53
12.501,26.51,-1.64,0.68,26.57
12.512,25.92,-0.92,2.28,26.04
12.521,24.72,-0.51,3.53,24.97
12.531,22.7,-0.09,4.43,23.13
12.541,20.02,0.68,5.45,20.76
12.551,17.07,1.7,6.4,18.31
12.562,14.05,2.76,6.72,15.82
12.571,11.18,3.77,6.5,13.47
12.581,8.55,4.75,6.08,11.52
12.591,6.01,5.79,5.61,10.06
12.601,3.58,6.84,5.19,9.31
12.611,1.28,7.9,4.95,9.41
12.621,-0.94,9.03,5,10.37
12.631,-2.76,10.05,5.4,11.74
12.641,-3.95,10.74,5.98,12.91
12.651,-4.8,10.98,6.37,13.57
12.661,-5.77,10.91,6.32,13.87
12.671,-6.78,10.84,6.03,14.14
12.681,-7.92,10.97,5.65,14.66
12.691,-9.24,11.33,5.22,15.53
12.701,-10.69,11.66,4.61,16.48
12.711,-12.01,11.91,4.29,17.45
12.721,-12.97,12.14,4.92,18.43
12.731,-13.34,12.44,6.66,19.42
12.741,-13.36,12.87,8.93,20.58
12.751,-12.86,13.03,10.77,21.24
12.761,-11.89,12.62,11.68,20.91
12.771,-10.64,11.69,11.72,19.68
12.781,-9.4,10.5,11.12,17.95
12.791,-8.32,9.17,10.18,16.03
12.801,-7.4,7.79,9.04,14.05
12.811,-6.35,6.42,7.75,11.9
12.821,-4.99,5.2,6.4,9.64
12.831,-3.1,4.37,4.98,7.31
12.841,-0.4,3.89,3.85,5.48
12.851,3.16,3.55,3.09,5.66
12.861,7.33,3.13,2.81,8.45
12.871,11.53,2.81,3.07,12.25
12.881,14.86,2.98,3.7,15.61
12.891,17.15,3.82,5.06,18.29
12.901,19.25,4.98,7.57,21.28
12.911,21.05,6.15,10.77,24.43
12.921,22.48,7.35,15.02,28.02
12.931,24.43,7.45,19.31,32.02
12.941,25,5.43,18.29,31.45
12.951,23.9,2.31,12.86,27.24
12.961,22.81,-1.24,8.19,24.27
12.971,20.45,-4.53,4.55,21.44
12.981,16.55,-6.95,1.05,17.98
12.99,12.37,-8.42,-0.97,14.99
13,8.41,-9.13,-2.44,12.65
13.01,5.1,-9.13,-4.2,11.27
13.02,2.33,-8.43,-3.08,9.27
13.031,-0.12,-7.45,-1.3,7.57
13.04,-2.11,-6.57,0.08,6.9
13.05,-3.55,-5.99,0.63,7
13.06,-4.39,-5.58,0.92,7.16
13.07,-4.8,-5.66,1.48,7.57
13.08,-5.34,-6.19,2.12,8.45
13.09,-6.02,-6.95,2.4,9.5
13.1,-6.42,-8.06,2.32,10.56
13.11,-6.78,-9.2,2.13,11.63
13.12,-7.34,-10.21,1.92,12.72
13.13,-7.96,-11.11,1.73,13.78
13.14,-8.36,-11.85,1.62,14.59
13.15,-8.4,-12.14,1.5,14.84
13.16,-8.48,-12.21,1.38,14.93
13.17,-8.94,-12.66,0.57,15.51
13.18,-9.05,-12.82,-0.02,15.69
13.19,-9.34,-12.76,-0.75,15.83
13.2,-9.57,-12.53,-1.43,15.83
13.21,-9.52,-11.91,-1.87,15.36
13.22,-9.03,-10.99,-2.09,14.37
13.23,-8.26,-10.08,-2.22,13.22
13.24,-7.59,-9.02,-1.96,11.95
13.25,-5.68,-7.88,-0.86,9.75
13.26,-1.9,-6.42,0.55,6.72
13.27,2.91,-5.2,0.92,6.03
13.28,7.43,-4.42,-0.33,8.65
13.29,11.02,-3.68,-2.03,11.79
13.3,14.74,-2.93,-2.84,15.29
13.311,18.23,-2.15,-2.07,18.48
13.32,20.35,-1.2,-0.64,20.39
13.331,21.17,-0.56,0.31,21.18
13.34,21.54,-0.14,0.13,21.54
13.35,21.56,0.02,-0.04,21.56
13.36,20.53,-0.09,0.4,20.54
13.37,18.24,-0.31,0.95,18.27
13.381,15.22,-0.3,1.43,15.29
13.39,12.21,0.05,1.75,12.34
13.4,9.4,0.72,1.56,9.55
13.41,7.05,1.68,0.82,7.29
13.42,5.29,2.74,-0.12,5.96
13.43,4.06,3.71,-0.84,5.56
13.44,3.25,4.52,-1.31,5.72
13.45,2.51,5.23,-1.6,6.02
13.46,1.61,5.84,-1.64,6.27
13.47,0.55,6.4,-1.38,6.57
13.48,-0.5,6.91,-0.91,6.99
13.49,-1.59,7.4,-0.45,7.58
13.5,-2.85,7.88,-0.12,8.38
13.51,-4.01,8.3,0.13,9.22
13.52,-4.81,8.62,0.44,9.88
13.53,-5.39,8.96,0.82,10.49
13.54,-5.94,9.42,1.28,11.21
13.55,-6.28,9.81,1.78,11.78
13.56,-6.64,10.11,2.3,12.31
13.57,-7.03,10.35,2.95,12.86
13.58,-7.24,10.45,3.71,13.24
13.589,-7.31,10.51,4.64,13.62
13.6,-7.03,10.4,5.92,13.87
13.61,-6.47,10.05,7.46,14.08
13.619,-5.99,9.44,8.69,14.16
13.63,-5.88,8.85,9.56,14.3
13.64,-5.54,8.27,10.37,14.37
13.65,-4.9,7.61,11.02,14.25
13.659,-3.82,6.84,11.48,13.9
13.669,-2.28,5.88,11.94,13.5
13.679,-0.71,4.91,12.28,13.24
13.689,0.59,4.29,12.85,13.56
13.699,1.9,4.24,14.05,14.79
13.709,3.77,4.51,15.61,16.68
13.719,6,4.89,17.04,18.71
13.73,8.39,5.3,17.86,20.43
13.739,11.11,5.61,17.58,21.54
13.749,13.8,5.74,16.53,22.29
13.759,15.72,5.94,16.04,23.23
13.77,16.31,6.01,16.1,23.69
13.78,16.08,5.92,16.04,23.47
13.79,15.58,5.75,15.94,23.02
13.8,14.83,5.53,16.31,22.73
13.81,13.92,5.29,16.62,22.31
13.819,13.17,4.97,16.6,21.76
13.83,12.51,4.85,16.95,21.62
13.839,12.12,4.92,17.59,21.92
13.849,12.12,4.73,17.3,21.64
13.86,12.28,4.23,16.12,20.7
13.869,12.31,3.74,15.14,19.87
13.88,12.19,3.25,14.59,19.29
13.89,11.97,2.73,13.71,18.4
13.9,11.54,2.19,12.39,17.07
13.91,10.94,1.51,10.82,15.46
13.919,10.52,0.91,9.27,14.05
13.929,10.16,0.51,7.83,12.83
13.939,9.24,0.26,6.79,11.47
13.949,8.16,-0.07,6.6,10.49
13.959,6.99,-0.63,6.62,9.65
13.969,5.7,-1.39,6.36,8.65
13.979,4.41,-2.12,6.11,7.83
13.989,3.21,-2.8,5.87,7.25
13.999,2.35,-3.54,5.37,6.85
14.009,1.79,-4.31,4.7,6.62
14.019,1.18,-5.04,4.14,6.63
14.029,0.34,-5.61,3.9,6.85
14.039,-0.47,-6.1,3.89,7.25
14.049,-1.16,-6.51,3.8,7.62
14.059,-1.82,-6.77,3.38,7.79
14.069,-2.22,-7.21,2.39,7.91
14.079,-2.3,-7.78,1.28,8.21
14.089,-2.61,-8.23,0.24,8.64
14.099,-3.16,-8.6,-0.63,9.18
14.109,-3.8,-8.86,-1.25,9.72
14.119,-4.48,-8.97,-1.63,10.16
14.129,-5.03,-9.05,-1.83,10.51
14.139,-5.37,-9.25,-2.02,10.89
14.149,-5.72,-9.56,-2.21,11.35
14.159,-5.85,-9.96,-2.42,11.81
14.169,-5.94,-10.47,-2.84,12.37
14.179,-5.97,-11.02,-3.44,13
14.189,-5.96,-11.42,-4.32,13.59
14.199,-5.83,-11.63,-5.16,13.99
14.209,-5.37,-11.58,-5.53,13.91
14.219,-4.9,-11.11,-5.58,13.37
14.229,-4.21,-10.29,-5.4,12.36
14.238,-2.8,-9.38,-4.92,10.95
14.249,-0.72,-8.55,-4.42,9.65
14.259,2.13,-7.85,-3.88,9.01
14.269,5.58,-7.33,-3.39,9.81
14.279,9.19,-6.63,-2.7,11.65
14.288,12.7,-6.01,-1.73,14.16
14.299,15.71,-5.55,-0.77,16.68
14.309,18.1,-5.29,-0.47,18.86
14.319,19.85,-5.09,-1.06,20.52
14.329,21.31,-4.64,-1.5,21.86
14.339,22.32,-3.78,-0.74,22.65
14.349,22.42,-2.58,0.86,22.59
14.358,21.55,-1.4,2.09,21.7
14.369,20.33,-0.24,2.89,20.54
14.379,19.13,0.95,4.11,19.59
14.388,17.73,2.06,5.56,18.7
14.399,16.01,3.17,6.49,17.56
14.409,14.21,4.38,6.71,16.31
14.419,12.37,5.63,6.49,15.07
14.428,10.69,6.81,6.2,14.11
14.438,9.22,7.73,5.75,13.34
14.448,7.75,8.43,5.09,12.53
14.458,6.17,9.02,4.31,11.75
14.468,4.38,9.69,3.59,11.23
14.478,2.55,10.54,3.16,11.3
14.488,0.71,11.59,2.94,11.98
14.498,-0.95,12.65,2.65,12.96
14.509,-2.28,13.66,2.19,14.03
14.518,-3.56,14.44,1.61,14.96
14.528,-5.04,14.72,1.12,15.6
14.538,-6.81,14.62,0.87,16.15
14.548,-8.68,14.46,0.81,16.89
14.558,-10.46,14.41,0.77,17.82
14.568,-11.98,14.37,0.77,18.72
14.578,-13.05,14.31,1.18,19.4
14.588,-13.44,14.2,2.36,19.69
14.598,-13.3,14.1,4.3,19.85
14.608,-12.66,14.04,6.34,19.94
14.618,-11.3,13.8,7.75,19.45
14.628,-9.32,13.31,8.09,18.15
14.638,-7.28,12.45,7.71,16.36
14.648,-5.43,11.27,7.37,14.52
14.658,-3.34,9.82,7.28,12.67
14.668,-0.73,8.15,7.38,11.02
14.678,2.08,6.37,7.07,9.74
14.688,4.59,4.68,6.43,9.18
14.698,7.22,3.29,6.2,10.07
14.708,10.43,2.46,6.74,12.66
14.718,13.89,2.67,8.14,16.32
14.728,16.93,4.51,12.31,21.41
14.738,19.36,7.36,20.59,29.21
14.748,19.07,4.99,22.03,29.56
14.758,21.74,-0.7,14.26,26
14.768,24.06,-0.39,12.84,27.27
14.778,23.98,-0.53,15.72,28.68
14.788,22.14,-0.55,18.53,28.88
14.798,19.79,-1.85,12.06,23.25
14.809,17.28,-3.51,4.78,18.27
14.818,13.9,-4.52,1.53,14.69
14.828,10.33,-5.19,1.34,11.64
14.838,7.02,-5.8,0.94,9.15
14.848,4.26,-6.38,-0.29,7.68
14.858,2.07,-6.89,0.06,7.19
14.868,0.08,-7.42,1.46,7.56
14.878,-1.72,-7.92,2.73,8.55
14.887,-3.01,-8.41,3.64,9.65
14.898,-3.75,-9.06,4.11,10.64
14.908,-4.4,-9.9,4.03,11.56
14.918,-5.09,-10.75,3.64,12.44
14.928,-5.67,-11.54,3.28,13.27
14.937,-6.16,-12.31,2.95,14.08
14.948,-6.76,-13.16,2.43,15
14.957,-7.52,-13.93,1.91,15.95
14.967,-8.21,-14.43,1.53,16.67
14.978,-8.63,-14.66,1.26,17.06
14.987,-8.61,-14.79,0.92,17.13
14.997,-8.34,-14.68,0.45,16.89
15.008,-8.12,-14.21,0.14,16.37
15.017,-7.91,-13.5,0.12,15.65
15.027,-7.7,-12.66,0.28,14.83
15.037,-7.27,-11.68,0.47,13.77
15.047,-6.38,-10.7,0.69,12.47
15.057,-5.16,-9.89,0.91,11.19
15.067,-3.41,-9.25,0.98,9.9
15.077,-0.61,-8.51,0.69,8.55
15.087,2.79,-7.67,-0.48,8.17
15.097,6.27,-6.93,-2.13,9.59
15.107,9.99,-6.05,-2.82,12.01
15.117,13.96,-4.77,-1.66,14.85
15.128,17.66,-3.24,0.52,17.96
15.137,20.16,-1.78,1.89,20.32
15.148,21.36,-0.6,1.76,21.44
15.158,22.42,0.22,1.64,22.48
15.167,23.49,0.93,2.38,23.63
15.178,23.23,1.3,2.94,23.45
15.187,21.24,1.46,2.61,21.45
15.198,18.44,1.63,1.59,18.58
15.207,15.34,1.95,0.29,15.47
15.217,12.17,2.52,-0.8,12.45
15.227,9.13,3.28,-1.48,9.81
15.237,6.34,4.21,-1.87,7.84
15.247,3.94,5.23,-1.9,6.82
15.257,1.88,6.18,-1.42,6.61
15.267,-0.03,7.04,-0.87,7.1
15.277,-1.86,7.7,-0.27,7.93
15.287,-3.45,8.19,0.31,8.89
15.297,-4.8,8.39,0.77,9.7
15.307,-5.8,8.36,0.98,10.23
15.317,-6.6,8.18,0.99,10.56
15.327,-7.39,8.01,1.04,10.95
15.337,-8.33,8.03,1.31,11.64
15.347,-9.32,8.15,1.68,12.49
15.357,-10.43,8.47,1.92,13.57
15.367,-11.63,9.02,2.07,14.86
15.377,-12.57,9.62,2.5,16.02
15.387,-13.19,10.25,3.43,17.05
15.397,-13.44,10.9,4.67,17.93
15.407,-13.1,11.34,5.96,18.32
15.417,-12.42,11.6,7.06,18.4
15.427,-11.56,11.68,7.85,18.21
15.437,-10.41,11.48,8.46,17.66
15.447,-8.78,10.88,9.1,16.68
15.457,-7.02,9.91,9.56,15.45
15.467,-5.14,8.85,9.89,14.23
15.477,-1.97,7.86,10.77,13.48
15.487,3.15,6.76,12.27,14.36
15.497,9.17,5.22,13.71,17.3
15.507,13.6,3.8,14.51,20.25
15.517,16.01,2.93,14.82,22.01
15.527,17.87,2.63,15.55,23.83
15.537,19.21,3.05,16.26,25.36
15.547,20.42,3.68,17.16,26.93
15.557,22.03,3.8,18.8,29.21
15.567,23.05,2.96,19.54,30.36
15.577,22.75,1.1,18.34,29.24
15.587,21.46,-1.26,15.76,26.66
15.597,19.66,-3.62,12.51,23.59
15.607,17.48,-5.56,9,20.43
15.617,14.87,-6.91,6.17,17.52
15.627,11.98,-7.59,4.76,14.96
15.637,9.1,-7.71,4.14,12.62
15.646,6.5,-7.32,3.31,10.34
15.657,4.36,-6.47,3.15,8.42
15.666,2.79,-5.48,3.81,7.24
15.676,1.67,-4.63,4.59,6.73
15.686,0.78,-4.08,5.08,6.56
15.696,0,-4.02,4.99,6.41
15.707,-0.58,-4.33,4.99,6.63
15.716,-0.97,-4.86,5.12,7.12
15.726,-1.44,-5.62,4.9,7.6
15.736,-2.15,-6.42,4.6,8.19
15.746,-2.93,-7.23,4.44,8.98
15.756,-3.77,-7.99,4.35,9.85
15.766,-4.59,-8.73,4.15,10.7
15.776,-5.41,-9.48,3.75,11.54
15.786,-6.1,-10.31,3.23,12.41
15.796,-6.83,-11.24,2.76,13.44
15.806,-7.75,-12.22,2.32,14.66
15.816,-8.68,-13.03,1.81,15.76
15.826,-9.36,-13.42,1.55,16.43
15.836,-9.65,-13.27,1.34,16.46
15.846,-9.76,-12.84,1.04,16.16
15.856,-9.67,-12.06,0.78,15.48
15.866,-9.24,-10.67,0.76,14.13
15.876,-8.22,-8.75,1.36,12.08
15.886,-5.84,-6.61,2.5,9.17
15.896,-2.25,-4.7,2.95,5.99
15.906,1.62,-3.31,2.06,4.22
15.916,5.17,-2.18,0.11,5.61
15.926,8.23,-0.88,-1.97,8.5
15.936,11.14,0.46,-2.46,11.41
15.947,14.07,0.8,0.34,14.1
15.957,14.9,0.66,2.01,15.05
15.967,15.3,0.34,0.76,15.33
15.977,16.36,-0.33,-0.04,16.36
15.986,16.98,-0.87,0.27,17
15.996,16.76,-1.43,1.16,16.86
16.006,15.56,-1.81,1.98,15.79
16.016,14.12,-1.93,2.4,14.45
16.026,12.8,-1.8,2.39,13.15
16.036,11.45,-1.3,1.87,11.68
16.046,10.12,-0.53,1.25,10.21
16.056,8.78,0.38,0.81,8.83
16.066,7.29,1.52,0.54,7.47
16.076,5.59,2.85,0.34,6.28
16.086,4.14,4.15,0.16,5.87
16.096,2.97,5.44,-0.18,6.2
16.106,1.89,6.61,-0.52,6.89
16.116,1.06,7.52,-0.73,7.63
16.126,0.45,8.25,-0.66,8.29
16.136,-0.06,8.88,-0.43,8.89
16.146,-0.61,9.38,-0.17,9.4
16.156,-1.15,9.8,0,9.87
16.166,-1.72,10.22,0.08,10.37
16.176,-2.38,10.74,0.22,11
16.186,-2.99,11.35,0.44,11.75
16.196,-3.51,11.98,0.83,12.51
16.206,-4.12,12.63,1.41,13.36
16.216,-4.73,13.22,2.16,14.21
16.226,-4.86,13.62,3.19,14.81
16.236,-4.68,13.74,4.43,15.17
16.246,-4.35,13.62,5.73,15.4
16.256,-3.88,13.34,6.95,15.54
16.266,-3.34,12.86,7.96,15.49
16.276,-2.63,12.18,8.78,15.24
16.285,-1.74,11.42,9.46,14.93
16.295,-0.63,10.69,10.33,14.88
16.305,0.93,9.86,11.4,15.1
16.315,3.02,8.83,12.55,15.64
16.326,5.34,7.63,13.41,16.33
16.335,7.41,6.31,13.78,16.87
16.345,8.83,5.21,14.22,17.53
16.356,9.7,4.57,15.3,18.68
16.365,10.69,4.27,17.4,20.86
16.376,12.16,4.06,20.16,23.89
16.386,13.76,3.86,22.22,26.42
16.396,15.24,3.43,22.26,27.19
16.405,16.29,2.83,21.07,26.78
16.416,17.35,1.98,20.58,26.99
16.426,18.09,0.92,19.56,26.66
16.436,17.94,-0.47,16.02,24.05
16.445,16.92,-1.67,11.64,20.61
16.456,15.29,-2.2,8.39,17.58
16.466,13.5,-2.41,5.99,14.96
16.476,11.72,-2.38,4.35,12.73
16.485,10.01,-2.1,3.45,10.79
16.495,8.39,-1.82,2.75,9.02
16.505,6.79,-1.73,2.28,7.37
16.515,5,-1.88,2,5.71
16.525,3.21,-2.27,1.69,4.28
16.535,1.54,-2.92,1.46,3.61
16.545,-0.11,-3.7,1.23,3.9
16.555,-1.63,-4.71,0.92,5.07
16.565,-2.92,-5.91,0.67,6.63
16.575,-4.15,-7.01,0.38,8.15
16.585,-5.34,-8,0.01,9.62
16.595,-6.57,-8.94,-0.27,11.09
16.605,-7.9,-9.86,-0.37,12.64
16.615,-9.2,-10.73,-0.3,14.14
16.625,-10.3,-11.63,-0.15,15.53
16.635,-10.94,-12.45,0.06,16.58
16.645,-11.25,-13.01,0.21,17.2
16.655,-11.35,-13.17,0.23,17.38
16.665,-11.17,-12.95,0.23,17.1
16.675,-10.77,-12.32,0.26,16.36
16.685,-10.18,-11.17,0.54,15.12
16.695,-9.02,-9.94,1.18,13.48
16.705,-7.13,-8.78,1.87,11.47
16.715,-4.34,-8,2.22,9.37
16.725,-0.99,-7.64,1.99,7.95
16.735,2.65,-7.44,1.25,7.99
16.745,6.31,-7.3,0.09,9.65
16.755,9.81,-7.01,-1.16,12.11
16.765,13.49,-6.56,-2.05,15.14
16.775,17.01,-5.76,-2.61,18.15
16.785,20,-4.3,-2.73,20.64
16.795,22.56,-2.61,-2.84,22.89
16.805,24.3,-0.82,-3.19,24.52
16.815,24.94,0.88,-3.05,25.14
16.825,24.92,2.32,-1.97,25.1
16.835,24.44,3.32,-0.42,24.67
16.845,22.84,3.78,0.97,23.18
16.855,20.08,3.99,1.67,20.54
16.865,16.5,4.28,1.92,17.15
16.875,12.62,4.65,1.94,13.59
16.884,9.04,5.21,1.78,10.59
16.895,6.04,5.96,1.69,8.65
16.904,3.49,6.82,1.73,7.86
16.915,1.12,7.9,1.78,8.18
16.925,-1.18,9.18,2,9.47
16.935,-3.32,10.62,2.52,11.41
16.945,-5.23,11.88,3.02,13.32
16.955,-6.73,12.64,3.27,14.69
16.965,-8.1,12.95,3.13,15.59
16.975,-9.5,12.99,2.74,16.32
16.985,-10.67,12.83,2.28,16.84
16.994,-11.62,12.42,1.82,17.11
17.004,-12.56,11.78,1.53,17.29
17.014,-13.2,11.21,1.88,17.42
17.025,-13.39,10.85,2.86,17.47
17.034,-13.3,10.61,4.16,17.52
17.044,-12.88,10.45,5.43,17.45
17.054,-12.12,10.21,6.07,16.97
17.064,-11.12,9.98,6.14,16.16
17.074,-9.85,9.63,6.18,15.1
17.084,-8.27,9.21,6.36,13.92
17.094,-6.49,8.63,6.36,12.53
17.104,-4.55,7.86,5.97,10.86
17.114,-2.15,7.06,5.4,9.14
17.124,0.67,6.3,4.87,7.99
17.134,3.87,5.62,4.82,8.35
17.144,7.21,5.1,5.36,10.33
17.154,10.32,4.91,6.38,13.09
17.165,13.12,5.1,7.68,16.03
17.175,15.12,5.9,9.19,18.65
17.185,16.25,7.11,11.25,21
17.195,16.92,8.07,13.72,23.23
17.204,17.03,8.75,15.33,24.52
17.214,18.13,9.21,15.82,25.77
17.224,19.39,8.68,14.5,25.72
17.234,19.28,7.22,11.03,23.35
17.244,18.24,4.59,6.8,20
17.254,16.18,1.79,2.94,16.54
17.264,13.28,-0.44,0.38,13.3
17.274,10,-2.04,-0.54,10.22
17.284,6.85,-3.05,-1.54,7.65
17.294,4.29,-3.64,-1.26,5.76
17.304,2.23,-4.11,-0.19,4.68
17.314,0.72,-4.67,0.98,4.83
17.324,-0.4,-5.49,1.88,5.81
17.334,-1.6,-6.62,2.43,7.23
17.344,-2.9,-7.9,2.67,8.83
17.354,-4.08,-9.14,2.64,10.35
17.364,-5.12,-10.39,2.27,11.81
17.374,-6.23,-11.75,1.66,13.4
17.384,-7.34,-13.13,1.11,15.08
17.394,-8.6,-14.21,0.64,16.62
17.404,-9.58,-14.89,0.14,17.71
17.414,-10.26,-15.38,-0.25,18.49
17.424,-10.57,-15.56,-0.68,18.82
17.434,-10.62,-14.92,-1.15,18.35
17.444,-10.9,-14.91,-2.15,18.6
17.454,-10.71,-14.76,-3.08,18.49
17.464,-10.43,-14.09,-4,17.98
17.474,-9.72,-12.95,-4.76,16.88
17.484,-8.77,-11.89,-5.3,15.69
17.494,-7.27,-10.86,-5.45,14.16
17.504,-5.2,-9.94,-5.28,12.4
17.514,-2.57,-9.08,-4.61,10.5
17.524,1.13,-8.06,-3.35,8.8
17.534,5.16,-6.96,-2.28,8.96
17.544,8.54,-6.1,-1.94,10.67
17.554,12.15,-5.64,-1.28,13.46
17.564,16.72,-5.15,1.36,17.55
17.574,21.12,-4.33,5.62,22.28
17.584,24.73,-3.56,9.3,26.66
17.594,27.02,-3,10.09,29
17.604,28.29,-2.78,9.02,29.82
17.614,28.48,-2.21,9.06,29.97
17.624,26.74,-1.11,10.01,28.57
17.634,23.44,-0.07,10.09,25.52
17.644,19.11,0.98,8.71,21.03
17.654,14.34,2.04,7.1,16.13
17.663,9.86,3.26,6.45,12.23
17.673,6.09,4.52,6.57,10.03
17.683,2.98,5.69,6.3,9
17.693,0.45,6.68,5.44,8.63
17.703,-1.41,7.46,4.77,8.97
17.713,-2.62,7.99,4.58,9.58
17.723,-3.61,8.37,4.56,10.19
17.733,-4.46,8.45,4.5,10.56
17.743,-5.1,8.2,4.19,10.52
17.753,-5.62,7.78,3.54,10.23
17.763,-6.18,7.45,2.76,10.07
17.773,-6.87,7.3,2.03,10.23
17.783,-7.7,7.41,1.67,10.82
17.793,-8.75,7.74,1.59,11.79
17.803,-10.01,8.1,1.49,12.97
17.813,-11.56,8.53,1.3,14.43
17.823,-13.17,9.09,1.08,16.04
17.833,-14.54,9.8,1.24,17.58
17.843,-15.13,10.45,2.13,18.51
17.853,-14.78,10.87,3.61,18.7
17.863,-14,11.01,5.21,18.55
17.873,-12.94,10.9,6.49,18.12
17.883,-11.51,10.37,7.28,17.12
17.893,-9.7,9.33,7.53,15.42
17.903,-8.19,7.92,7.13,13.43
17.913,-6.85,6.4,6.35,11.33
17.923,-5.25,4.94,5.63,9.14
17.933,-2.75,3.83,5.24,7.05
17.943,1.16,3.16,5.13,6.13
17.953,6.59,2.5,5.38,8.86
17.963,11.53,2.09,5.51,12.95
17.974,14.2,2.53,5.23,15.34
17.984,15.83,3.53,5.57,17.15
17.994,16.95,5.03,7.13,19.06
18.004,17.72,6.37,9.25,20.98
18.014,18.74,7.12,11.98,23.36
18.023,19.87,6.68,14.7,25.6
18.033,19.9,5.01,16.53,26.35
18.044,18.98,2.38,16.5,25.26
18.053,17.59,-0.99,13.5,22.19
18.063,15.47,-3.97,9.29,18.47
18.073,12.86,-6.06,6.07,15.46
18.083,9.8,-7.29,3.66,12.76
18.093,6.69,-7.81,2.55,10.6
18.103,3.78,-7.84,2.06,8.95
18.113,1.39,-7.51,1.08,7.72
18.123,-0.61,-7,1.18,7.13
18.133,-2.43,-6.44,1.48,7.04
18.143,-3.74,-5.89,1.98,7.25
18.153,-4.54,-5.7,2.61,7.74
18.163,-5.18,-5.95,3.15,8.49
18.173,-5.91,-6.55,3.48,9.48
18.183,-6.75,-7.38,3.5,10.6
18.193,-7.68,-8.35,3.22,11.8
18.203,-8.58,-9.32,2.78,12.98
18.213,-9.28,-10.22,2.37,14.01
18.223,-9.73,-11.12,1.97,14.91
18.232,-10.03,-12.08,1.44,15.77
18.242,-10.23,-12.92,0.83,16.5
18.252,-10.53,-13.4,0.3,17.05
18.262,-10.71,-13.48,-0.03,17.22
18.272,-10.47,-13.2,-0.09,16.85
18.282,-9.99,-12.48,0.05,15.99
18.292,-9.33,-11.21,0.44,14.59
18.303,-8.2,-9.47,1.32,12.6
18.313,-5.91,-7.43,2.59,9.84
18.322,-2.12,-5.48,3.57,6.87
18.332,2.64,-3.96,3.2,5.73
18.342,7.75,-2.6,1.66,8.35
18.353,13.38,-0.68,0.72,13.42
18.363,19.16,1.79,2.52,19.4
18.373,22.09,3.9,5.7,23.15
18.383,21.75,5.02,7.35,23.5
18.393,21.05,4.4,8.02,22.95
18.403,21.14,2.43,8.41,22.88
18.413,20.8,-0.17,7.73,22.19
18.422,18.76,-2.39,5.9,19.81
18.433,15.83,-3.77,4.13,16.78
18.443,12.75,-4.36,2.89,13.78
18.452,9.78,-4.17,2.12,10.84
18.462,7.17,-3.42,1.37,8.06
18.472,4.99,-2.37,0.62,5.55
18.482,3.28,-1.17,0.3,3.5
18.492,1.85,0.12,0.24,1.87
18.502,0.4,1.46,0.04,1.51
18.512,-0.94,2.71,-0.39,2.9
18.522,-2.03,3.66,-0.76,4.25
18.532,-3.02,4.37,-0.91,5.39
18.542,-3.9,4.93,-0.83,6.34
18.552,-4.58,5.4,-0.68,7.12
18.562,-5.19,5.91,-0.61,7.9
18.572,-5.68,6.6,-0.6,8.73
18.582,-5.9,7.32,-0.27,9.4
18.592,-5.84,8.05,0.25,9.95
18.602,-5.48,8.68,0.76,10.29
18.612,-5.24,9.23,1.15,10.68
18.622,-5.42,9.71,1.27,11.19
18.632,-5.41,10.08,1.46,11.53
18.642,-5.34,10.3,1.74,11.73
18.652,-5.46,10.45,2.02,11.96
18.662,-5.53,10.56,2.6,12.2
18.672,-5.33,10.63,3.67,12.44
18.682,-5.02,10.65,5.27,12.9
18.692,-4.49,10.54,7.35,13.61
18.702,-3.83,10.23,9.5,14.48
18.712,-3.2,9.67,11.03,15.02
18.722,-2.76,8.9,11.63,14.9
18.732,-2.38,7.99,11.71,14.37
18.742,-1.95,7.02,11.6,13.7
18.752,-1.46,6.07,11.37,12.97
18.762,-0.89,5.23,10.78,12.01
18.772,-0.09,4.59,10,11
18.782,1.22,4.11,9.24,10.19
18.792,3.16,3.94,9.12,10.42
18.802,5.16,4.29,9.89,11.95
18.812,7.05,5.11,11.47,14.4
18.822,9.08,6.08,14.12,17.86
18.832,10.89,6.91,17.28,21.56
18.842,11.87,7.65,20.19,24.64
18.852,13.18,7.9,23.03,27.69
18.862,15.2,7.38,23.85,29.23
18.872,16.81,5.98,21.37,27.84
18.882,17.4,3.92,18.87,25.97
18.892,16.72,1.74,17.82,24.5
18.902,15.13,0.11,15.63,21.76
18.912,13.31,-0.81,11.74,17.77
18.922,11.48,-0.87,8.56,14.35
18.931,9.78,-0.28,6.76,11.9
18.942,8.39,0.55,5.54,10.07
18.952,7.33,1.38,4.55,8.74
18.961,6.38,1.99,4.03,7.8
18.971,5.51,2.2,3.88,7.09
18.982,4.78,1.89,3.68,6.32
18.991,4.04,1.08,3.32,5.34
19.001,3.04,-0.09,2.99,4.26
19.011,1.73,-1.36,2.87,3.62
19.021,0.15,-2.5,2.83,3.78
19.031,-1.25,-3.5,2.92,4.73
19.041,-2.53,-4.34,3.13,5.92
19.051,-3.91,-5.12,3.24,7.21
19.061,-5.13,-5.92,3.26,8.49
19.071,-6.02,-6.83,3.11,9.62
19.081,-6.79,-7.89,2.69,10.75
19.091,-7.63,-8.92,2.09,11.92
19.101,-8.39,-9.84,1.47,13.01
19.111,-8.9,-10.77,0.96,14.01
19.121,-9.15,-11.65,0.55,14.83
19.131,-9.09,-12.29,0.02,15.28
19.141,-8.89,-12.59,-0.62,15.42
19.151,-8.73,-12.64,-1.2,15.41
19.161,-8.56,-12.65,-1.65,15.37
19.171,-8.42,-12.38,-2.07,15.11
19.181,-8.4,-11.63,-2.6,14.58
19.191,-8.28,-10.59,-3.14,13.81
19.201,-7.77,-9.42,-3.35,12.66
19.211,-6.64,-8.18,-3.86,11.22
19.221,-4.75,-7.29,-4.23,9.67
19.231,-1.95,-6.74,-3.79,7.97
19.241,1.61,-6.26,-3.09,7.17
19.251,5.99,-6.04,-2.54,8.88
19.261,10.49,-6.16,-2.18,12.36
19.271,14.78,-6.67,-2.09,16.35
19.282,18.34,-7.48,-2.21,19.93
19.292,20.79,-8.13,-2.35,22.44
19.301,22.25,-8.44,-2.4,23.92
19.312,22.69,-8.21,-2.36,24.24
19.321,22.41,-7.46,-2.25,23.72
19.331,21.63,-6.24,-1.98,22.6
19.342,20.7,-4.6,-0.97,21.23
19.351,19.62,-2.63,0.78,19.81
19.362,18.26,-0.48,2.9,18.5
19.371,16.81,1.41,4.66,17.51
19.381,15.23,2.91,5.62,16.49
19.392,13.6,4.11,5.91,15.39
19.401,11.89,5.01,5.82,14.16
19.411,10.19,5.68,5.64,12.96
19.421,8.68,6.22,5.48,12
19.431,7.35,6.63,5.19,11.18
19.441,6.08,7.06,4.81,10.49
19.451,4.79,7.55,4.58,10.04
19.461,3.33,8.15,4.54,9.91
19.471,1.69,8.89,4.68,10.19
19.481,-0.01,9.78,4.99,10.98
19.491,-1.57,10.66,5.31,12.01
19.501,-2.9,11.48,5.57,13.08
19.511,-4.29,12.28,5.63,14.17
19.521,-5.73,13.05,5.58,15.31
19.531,-7.27,13.68,5.47,16.43
19.541,-8.73,14.01,5.31,17.34
19.551,-9.99,14,5.07,17.93
19.561,-11.14,13.84,4.77,18.39
19.57,-11.79,13.52,4.75,18.55
19.58,-11.77,13.1,5.2,18.36
19.591,-11.43,12.71,6.01,18.12
19.601,-10.89,12.32,6.92,17.84
19.611,-10.07,11.87,7.71,17.37
19.62,-8.9,11.37,8.15,16.58
19.631,-7.17,10.63,8.22,15.23
19.64,-4.66,9.54,8.23,13.43
19.65,-1.59,8.33,8.37,11.92
19.66,2.08,7.01,8.42,11.15
19.67,6.24,5.48,8.13,11.62
19.68,10.75,4.04,7.7,13.83
19.691,15.37,3.13,8.1,17.65
19.701,19,3.32,9.3,21.41
19.711,21.31,4.43,10.94,24.36
19.72,22.75,5.93,12.94,26.83
19.731,23.16,7.14,14.38,28.18
19.74,22.5,7.81,14.49,27.88
19.75,21.42,7.37,13.8,26.53
19.761,20.26,5.58,11.58,23.99
19.77,18.57,2.33,7.66,20.23
19.781,15.53,-1.03,3.97,16.06
19.79,11.92,-3.69,1.72,12.6
19.8,8.3,-5.61,0.85,10.05
19.81,5.17,-6.97,0.08,8.68
19.82,2.91,-8.01,-1.01,8.58
19.83,1.09,-8.72,-0.33,8.79
19.84,-0.78,-9.23,0.76,9.29
19.85,-2.58,-9.48,2.06,10.04
19.86,-4.11,-9.63,3.29,10.98
19.87,-5.43,-9.86,3.66,11.84
19.88,-6.39,-10.31,3.25,12.56
19.89,-6.99,-10.97,2.77,13.3
19.9,-7.36,-11.66,2.58,14.03
19.91,-7.65,-12.3,2.53,14.7
19.92,-7.87,-13.03,2.39,15.41
19.93,-8.31,-13.8,2.11,16.24
19.94,-8.73,-14.51,1.91,17.04
19.95,-8.96,-15.09,1.74,17.64
19.96,-8.84,-15.47,1.42,17.88
19.97,-8.38,-15.69,0.94,17.81
19.98,-7.61,-15.84,0.24,17.57
19.99,-6.8,-15.8,-0.7,17.22
20,-5.9,-15.47,-1.43,16.62
20.01,-4.8,-14.85,-1.64,15.69
20.02,-3.35,-13.84,-1.33,14.3
20.03,-1.32,-12.42,-0.55,12.5
20.04,1.92,-10.63,0.31,10.8
20.05,5.79,-9.17,0.07,10.84
20.06,9.62,-8.34,-0.79,12.76
20.07,13.97,-7.42,-0.35,15.82
20.08,18.8,-5.96,2.37,19.86
20.09,22.6,-4.19,5.52,23.63
20.1,24.73,-2.55,6.17,25.61
20.11,25.76,-1.3,4.34,26.15
20.12,26.26,-0.39,3.13,26.45
20.13,26.05,0.8,3.9,26.36
20.14,24.34,1.83,4.92,24.9
20.15,21.41,2.46,4.62,22.04
20.16,18.18,2.9,3.68,18.77
20.17,14.65,3.35,3.28,15.39
20.18,10.9,3.91,3.44,12.08
20.19,7.24,4.53,3.66,9.29
20.2,3.97,5.07,3.39,7.28
20.21,1.14,5.58,2.73,6.32
20.22,-1.11,6.04,2.38,6.58
20.23,-2.72,6.37,2.58,7.39
20.24,-3.73,6.49,3.05,8.09
20.25,-4.57,6.44,3.36,8.58
20.26,-5.4,6.32,3.41,8.99
20.27,-6.07,6.31,3.26,9.34
20.28,-6.56,6.57,3.18,9.81
20.29,-7.05,7.05,3.28,10.49
20.3,-7.62,7.55,3.49,11.28
20.309,-8.38,8.03,3.8,12.21
20.32,-9.27,8.49,4.05,13.21
20.329,-10.38,9.07,4.13,14.4
20.339,-11.39,9.72,4.51,15.64
20.35,-12.06,10.36,5.65,16.87
20.359,-12.23,10.86,7.5,17.99
20.37,-11.95,11.17,9.52,18.93
20.379,-11.44,11.26,11.08,19.5
20.389,-10.47,10.95,12.1,19.39
20.4,-9.1,10.18,12.7,18.65
20.409,-7.61,8.99,12.88,17.45
20.419,-6.1,7.55,12.68,15.97
20.429,-4.39,5.89,12,14.07
20.439,-2.14,4.52,11.27,12.33
20.449,1.28,3.36,10.55,11.15
20.459,5.62,2.23,9.48,11.25
20.469,9.8,1.31,8.02,12.73
20.48,13.35,1.04,6.41,14.84
20.49,16.11,1.88,5.32,17.07
20.5,18.01,3.5,5.13,19.05
20.51,19.26,5.11,5.67,20.72
20.519,20.52,6.84,6.82,22.68
20.53,21.67,7.69,8.24,24.42
20.539,21.96,7.46,9.27,24.98
20.55,21.47,6.49,9.76,24.46
20.56,20.28,4.56,9.53,22.87
20.57,18.33,1.74,7.7,19.95
20.58,15.96,-0.94,4.78,16.69
20.589,13.46,-3.41,1.64,13.99
20.599,10.82,-5.19,-0.11,12
20.609,8.09,-5.54,0.29,9.81
20.619,5.55,-5.14,1.07,7.64
20.629,3.53,-4.49,1.83,6
20.639,1.94,-3.97,2.38,5.02
20.649,0.49,-3.48,2.99,4.62
20.659,-0.6,-3.18,3.74,4.95
20.669,-1.2,-3.27,4.53,5.71
20.679,-1.73,-3.72,5,6.47
20.689,-2.22,-4.58,5.18,7.26
20.699,-2.75,-5.65,5.36,8.26
20.709,-3.37,-6.73,5.61,9.39
20.719,-4.06,-7.76,5.81,10.51
20.729,-4.7,-8.73,5.94,11.56
20.739,-5.18,-9.64,5.92,12.45
20.749,-5.55,-10.59,5.7,13.24
20.759,-5.89,-11.66,5.29,14.09
20.769,-6.19,-12.76,4.7,14.94
20.779,-6.53,-13.7,3.96,15.69
20.789,-6.74,-14.37,3.22,16.2
20.799,-6.68,-14.73,2.23,16.33
20.809,-6.48,-14.69,1.23,16.1
20.819,-6.48,-14.2,0.49,15.61
20.829,-6.6,-13.17,0.28,14.74
20.839,-5.87,-11.59,0.88,13.02
20.849,-3.52,-9.34,2.26,10.24
20.859,-0.12,-6.95,3.13,7.62
20.869,2.98,-5.1,1.93,6.22
20.879,5.44,-3.59,-0.12,6.52
20.888,8.5,-2.16,-1.06,8.84
20.899,12.6,-0.63,-0.4,12.62
20.909,16.12,0.76,1.14,16.18
20.919,17.68,1.99,2.61,17.98
20.929,18.54,1.99,2.85,18.86
20.939,19.63,0.73,1.83,19.73
20.949,20.02,-0.89,-0.05,20.04
20.959,18.79,-2.14,-1.9,19
20.969,16.95,-3.08,-2.81,17.45
20.979,15.06,-3.63,-2.51,15.69
20.989,13.19,-3.58,-1.83,13.79
20.999,11.53,-2.95,-1.77,12.04
21.008,10.25,-1.86,-2.2,10.65
21.018,9.26,-0.37,-2.54,9.61
21.029,8.24,1.46,-2.32,8.68
21.038,7.08,3.49,-1.49,8.03
21.049,5.96,5.44,-0.2,8.07
21.058,4.72,7.19,0.95,8.65
21.068,3.73,8.44,1.65,9.37
21.078,2.84,9.14,1.85,9.75
21.088,2.02,9.32,1.8,9.71
21.098,1.34,9.05,1.58,9.29
21.108,0.49,8.67,1.29,8.78
21.118,-0.35,8.34,1.12,8.42
21.128,-1.05,8.03,1.09,8.18
21.138,-1.67,7.79,1.16,8.05
21.148,-2.32,7.71,1.27,8.15
21.158,-3.19,7.95,1.47,8.69
21.168,-4.17,8.57,1.8,9.7
21.178,-5.08,9.49,2.39,11.02
21.188,-6.08,10.63,3.26,12.67
21.198,-6.75,11.63,4.39,14.14
21.208,-7.12,12.41,5.72,15.41
21.218,-7.43,12.94,7.13,16.53
21.228,-7.38,13.06,8.44,17.21
21.238,-7.24,12.95,9.62,17.69
21.248,-6.77,12.45,10.84,17.84
21.258,-5.86,11.43,11.85,17.47
21.268,-4.63,10.09,12.23,16.52
21.278,-3.19,8.66,12.19,15.29
21.288,-1.56,7.26,12.01,14.12
21.298,0.35,6,11.85,13.28
21.308,2.86,5.02,12,13.32
21.318,5.48,4.37,12.32,14.17
21.328,7.56,4.1,12.83,15.44
21.338,9.48,4.22,14.58,17.89
21.348,11.42,5.02,18.28,22.12
21.359,14.3,5.59,22.8,27.49
21.368,17.02,5.53,24.92,30.68
21.379,18.69,4.98,24.37,31.11
21.388,19.6,4.39,24.13,31.4
21.398,20.06,3.72,24.93,32.22
21.408,20.27,2.19,24.79,32.1
21.418,20.22,0.06,22.48,30.23
21.428,19.94,-1.77,18.98,27.58
21.438,19.1,-2.77,15.1,24.5
21.448,17.87,-2.82,11.64,21.51
21.458,16.38,-2.24,9.23,18.94
21.468,14.63,-1.37,7.75,16.61
21.478,12.86,-0.34,6.69,14.5
21.488,11.22,0.55,5.55,12.53
21.498,9.76,1.45,5,11.06
21.508,8.65,2.08,5.03,10.22
21.518,7.91,2.17,5.34,9.79
21.528,7.11,1.53,5.28,8.99
21.537,6.07,0.24,4.93,7.83
21.548,4.79,-1.35,4.73,6.86
21.558,3.2,-2.92,4.64,6.35
21.568,1.46,-4.37,4.77,6.63
21.578,0.16,-5.91,5.28,7.92
21.587,-0.88,-7.5,5.8,9.52
21.598,-2.1,-8.97,5.85,10.92
21.608,-3.32,-10.39,5.43,12.19
21.617,-4.36,-11.88,4.93,13.58
21.627,-5.19,-13.25,4.41,14.9
21.637,-5.88,-14.13,3.68,15.74
21.647,-6.57,-14.67,2.96,16.35
21.658,-7.3,-15.4,2.6,17.24
21.667,-7.83,-16.15,2.42,18.11
21.678,-8.19,-16.69,1.99,18.7
21.687,-8.44,-16.77,1.04,18.8
21.697,-8.55,-16.54,0.02,18.62
21.707,-8.47,-16.05,-0.94,18.17
21.717,-8.23,-15.36,-1.59,17.5
21.728,-7.58,-14.2,-1.8,16.2
21.737,-6.49,-12.75,-1.9,14.43
21.747,-5.03,-11.1,-2.2,12.38
21.757,-2.94,-9.49,-2.68,10.29
21.767,-0.06,-8.14,-2.86,8.63
21.777,3.55,-7.03,-2.92,8.4
21.787,7.59,-6.22,-3.19,10.32
21.797,11.03,-5.36,-3.59,12.78
21.808,14.18,-4.34,-3.6,15.26
21.818,17.53,-3.2,-3.1,18.09
21.828,20.95,-2.25,-2.06,21.17
21.837,23.76,-1.61,-1.12,23.84
21.847,25.61,-1.04,-1.04,25.66
21.857,26.67,-0.6,-1.15,26.7
21.867,26.84,0.24,-0.52,26.85
21.878,26.03,1.35,1.45,26.1
21.887,24.32,2.31,3.85,24.73
21.897,21.83,3.25,5.11,22.65
21.908,18.93,4.06,5.11,20.02
21.917,15.85,4.94,4.69,17.25
21.927,12.72,5.97,4.46,14.75
21.937,9.69,7.1,4.4,12.8
21.947,6.88,8.26,4.3,11.58
21.957,4.37,9.42,4.21,11.21
21.967,2.22,10.57,4.29,11.62
21.977,0.33,11.7,4.63,12.59
21.987,-1.21,12.57,5.18,13.65
21.997,-2.23,13.04,5.76,14.43
22.007,-3.13,13.15,5.97,14.78
22.017,-4.13,13.12,5.64,14.87
22.027,-5.24,13.19,4.96,15.03
22.037,-6.58,13.42,4.19,15.52
22.047,-8.22,13.77,3.61,16.44
22.057,-9.78,14.17,3.49,17.57
22.067,-11,14.51,3.83,18.6
22.077,-11.77,14.82,4.89,19.55
22.087,-11.8,15.1,6.59,20.26
22.097,-11.25,15.23,8.24,20.65
22.107,-10.17,15.05,9.28,20.4
22.117,-8.76,14.57,9.72,19.59
22.127,-7.07,13.76,9.67,18.24
22.137,-5.32,12.62,9.17,16.48
22.147,-3.47,11.23,8.5,14.5
22.157,-1.49,9.61,7.72,12.42
22.167,0.78,8,7.03,10.68
22.177,3.42,6.53,6.59,9.89
22.187,6.08,5.17,6.24,10.13
22.197,9.04,4.06,5.98,11.58
22.207,12.62,3.53,6.41,14.58
22.217,16.59,3.75,7.82,18.72
22.227,20,4.74,9.67,22.71
22.237,21.83,6.45,10.98,25.27
22.247,22.92,8.47,12.71,27.54
22.257,23.97,10.28,16,30.6
22.267,24.32,11.07,18.89,32.72
22.277,24.03,9.69,17.76,31.41
22.287,23.2,6.34,13.61,27.63
22.297,21.5,2.08,10.06,23.83
22.307,18.67,-1.9,7.74,20.3
22.317,15.06,-5.28,5.17,16.77
22.327,10.78,-7.69,3,13.57
22.336,6.78,-9.36,1.97,11.72
22.346,3.73,-10.67,1.3,11.38
22.356,1.24,-11.7,1.11,11.82
22.366,-1.15,-12.23,1.85,12.42
22.376,-3.11,-12.31,3.19,13.09
22.386,-4.07,-12.39,4.64,13.84
22.396,-4.41,-12.91,5.25,14.62
22.406,-4.91,-13.73,4.69,15.32
22.416,-5.48,-14.83,3.81,16.26
22.426,-6.08,-15.91,3.28,17.35
22.436,-6.93,-16.74,2.98,18.37
22.446,-7.75,-17.21,2.53,19.04
22.456,-8.1,-17.09,1.81,19
22.466,-7.83,-16.63,0.83,18.4
22.476,-7.42,-16.22,-0.42,17.84
22.486,-7.33,-15.7,-1.54,17.4
22.496,-7.38,-14.97,-2.14,16.82
22.506,-7.49,-14.16,-2.18,16.16
22.516,-7.45,-13.38,-1.9,15.43
22.526,-7.08,-12.7,-1.58,14.63
22.536,-6.57,-12.17,-1.36,13.9
22.546,-5.58,-11.99,-1.32,13.29
22.556,-4.07,-12.1,-1.37,12.84
22.566,-2.15,-11.86,-1.44,12.14
22.576,0.77,-11.02,-1.41,11.14
22.586,4.29,-10.07,-1.58,11.06
22.596,8.18,-9.33,-1.63,12.51
22.606,13.41,-8.79,-0.61,16.05
22.617,19.87,-8.04,1.54,21.49
22.627,25.82,-6.97,3.49,26.97
22.636,29.57,-5.63,3.49,30.31
22.647,31.19,-4.11,2.28,31.54
22.656,31.2,-2.53,1.91,31.36
22.666,29.99,-0.72,3.2,30.17
22.676,27.53,0.82,4.86,27.97
22.686,23.84,1.75,5.05,24.43
22.696,19.65,2.21,3.85,20.15
22.706,15.3,2.6,2.65,15.74
22.716,11.08,3.26,2.23,11.77
22.726,7.34,4.24,2.29,8.78
22.736,4.2,5.25,2.32,7.11
22.746,1.75,6.1,2.38,6.78
22.756,-0.32,6.87,2.64,7.36
22.766,-2.25,7.59,3.06,8.49
22.776,-4.07,8.34,3.71,10
22.786,-5.6,9.05,4.38,11.51
22.796,-6.5,9.43,4.78,12.41
22.806,-7.02,9.41,4.76,12.67
22.816,-7.64,9.23,4.28,12.72
22.826,-8.45,9.15,3.65,12.98
22.836,-9.6,9.43,2.97,13.78
22.846,-10.9,9.96,2.41,14.96
22.855,-12.1,10.59,2.06,16.21
22.866,-13.01,11.3,2.27,17.38
22.876,-13.54,12.05,3.36,18.43
22.886,-13.27,12.63,5.24,19.05
22.896,-12.45,13.09,7.44,19.54
22.906,-11.3,13.01,8.98,19.43
22.916,-9.79,12.18,9.24,18.15
22.926,-8.34,10.96,8.46,16.16
22.936,-7.07,9.57,7.42,14.02
22.946,-5.89,8.05,6.62,11.97
22.956,-4.82,6.53,5.99,10.09
22.966,-3.64,5.31,5.3,8.34
22.976,-1.85,4.39,4.65,6.66
22.986,0.86,3.76,4.25,5.73
22.995,4.6,3.36,4.71,7.39
23.005,9.61,2.82,6.57,11.98
23.016,14.06,2.52,8.68,16.72
23.026,16.26,2.81,9.82,19.2
23.036,17.63,3.41,10.96,21.03
23.046,19.1,4.18,12.61,23.27
23.056,20.45,5.3,14.83,25.81
23.066,21.72,5.97,17.37,28.45
23.076,22.66,5.49,19.32,30.28
23.086,22.46,3.56,19.06,29.68
23.096,20.83,0.54,16.01,26.28
23.106,18.42,-2.68,11.59,21.93
23.116,15.6,-5.34,7.26,18.02
23.125,12.65,-7.26,3.8,15.07
23.135,9.55,-8.24,2.25,12.82
23.145,6.63,-8.67,0.74,10.94
23.155,4.15,-8.43,-0.46,9.4
23.165,2.05,-7.77,0.39,8.04
23.175,0.3,-6.97,1.49,7.13
23.185,-1.17,-6.22,2.32,6.74
23.195,-2.28,-5.67,2.83,6.73
23.205,-2.92,-5.63,3.02,7.03
23.215,-3.45,-6.3,2.86,7.73
23.225,-4.07,-7.19,2.92,8.77
23.235,-4.9,-8.13,2.91,9.92
23.245,-5.76,-9.12,2.87,11.16
23.255,-6.55,-10.02,2.79,12.29
23.265,-7.25,-10.87,2.73,13.35
23.275,-7.55,-11.89,2.87,14.38
23.285,-7.57,-13.05,3.08,15.4
23.295,-7.62,-14.19,3.04,16.39
23.305,-7.76,-15.16,2.65,17.24
23.315,-7.95,-15.48,1.88,17.5
23.325,-8.14,-15.43,0.94,17.47
23.335,-8.3,-15.33,0.36,17.44
23.345,-8.27,-14.88,0.26,17.03
23.355,-8.23,-13.87,0.18,16.13
23.365,-7.67,-12.18,0.08,14.4
23.375,-5.25,-9.88,0.49,11.2
23.385,-0.95,-7.42,0.44,7.49
23.395,3.77,-5.75,-0.74,6.92
23.405,8.93,-4.55,-2.21,10.26
23.415,14.43,-2.87,-3.64,15.16
23.425,19.35,-1.07,-3.68,19.73
23.435,22.78,0.85,-0.75,22.8
23.445,22.94,3.04,0.79,23.16
23.456,21.99,4.21,0.63,22.4
23.465,21.37,4.15,0.15,21.77
23.475,20.32,3.37,0.11,20.6
23.485,18.15,2.79,0.54,18.38
23.495,15.47,2.45,1.58,15.75
23.505,13.01,2.5,2.92,13.57
23.515,10.86,2.73,3.81,11.83
23.525,8.99,2.98,3.85,10.22
23.535,7.25,3.3,3.25,8.6
23.545,5.76,3.83,2.61,7.39
23.554,4.49,4.61,2.15,6.79
23.565,3.48,5.51,1.87,6.79
23.575,2.52,6.41,1.71,7.1
23.585,1.64,7.1,1.69,7.48
23.595,0.76,7.5,1.75,7.74
23.605,-0.23,7.7,1.71,7.89
23.615,-1.19,7.76,1.66,8.03
23.625,-2.32,7.86,1.58,8.34
23.635,-3.56,8.08,1.5,8.96
23.645,-4.63,8.57,1.55,9.86
23.654,-5.66,9.26,1.68,10.98
23.664,-6.64,10.04,1.81,12.17
23.675,-7.37,10.72,2.14,13.18
23.684,-7.93,11.25,2.73,14.04
23.694,-8.31,11.62,3.65,14.75
23.704,-8.42,11.82,4.92,15.33
23.714,-8.32,11.88,6.37,15.85
23.725,-8.04,11.88,7.78,16.32
23.734,-7.47,11.86,8.78,16.54
23.744,-6.8,11.73,9.08,16.32
23.754,-5.89,11.45,8.93,15.67
23.764,-4.37,10.91,8.99,14.8
23.775,-2.4,10.29,9.49,14.2
23.784,-0.24,9.67,10.08,13.97
23.794,2.26,8.96,10.72,14.15
23.804,4.83,8.28,11.35,14.85
23.814,7.35,7.72,12.1,16.12
23.824,9.64,7.23,13.16,17.84
23.834,11.29,6.88,14.58,19.68
23.845,12.34,6.57,16.38,21.54
23.855,13.07,6.29,18.57,23.56
23.864,13.97,5.92,21.03,25.93
23.875,15.11,5.21,23.08,28.07
23.884,16.33,4.17,24.5,29.74
23.895,17.45,2.81,25.38,30.93
23.904,18.11,1.11,24.98,30.87
23.915,17.95,-0.66,23.25,29.38
23.925,17.33,-2.18,21.05,27.35
23.934,16.34,-3.08,18.57,24.92
23.945,14.89,-3.37,15.3,21.61
23.954,13.24,-3.28,11.74,18
23.965,11.42,-2.93,8.81,14.72
23.974,9.44,-2.5,6.89,11.95
23.984,7.32,-2.13,5.78,9.57
23.994,5.33,-1.83,5.34,7.77
24.004,3.71,-1.7,4.9,6.38
24.014,2.43,-2.01,4.04,5.13
24.024,1.17,-2.57,2.92,4.07
24.034,-0.04,-3.38,1.98,3.92
24.044,-1.26,-4.41,1.12,4.72
24.054,-2.57,-5.52,0.33,6.1
24.064,-4.03,-6.64,-0.35,7.78
24.074,-5.67,-7.83,-0.91,9.71
24.084,-7.42,-8.93,-1.17,11.67
24.094,-8.93,-10.12,-1.07,13.54
24.104,-10.05,-11.46,-0.81,15.26
24.114,-10.63,-12.68,-0.86,16.57
24.124,-10.88,-13.49,-1.39,17.39
24.134,-10.86,-13.83,-2.02,17.7
24.144,-10.93,-14.14,-2.2,18.01
24.154,-10.92,-14.58,-1.75,18.31
24.164,-10.61,-15.01,-0.83,18.4
24.174,-9.79,-15,0.19,17.91
24.184,-8.27,-14.12,0.89,16.39
24.194,-6.2,-13.11,1.1,14.55
24.204,-3.42,-12.26,1.12,12.78
24.214,0.26,-11.76,1.02,11.81
24.224,4.47,-11.49,0.5,12.34
24.234,8.61,-10.95,-0.23,13.93
24.244,12.69,-10.03,-0.52,16.18
24.254,16.56,-8.72,-0.37,18.72
24.264,19.4,-7.12,-0.19,20.66
24.274,21.69,-5.66,-0.39,22.42
24.284,23.4,-4.37,-1.05,23.83
24.294,24.02,-2.75,-1.58,24.23
24.304,24.2,-0.77,-1.15,24.24
24.314,24.47,1.34,0.55,24.52
24.324,24.29,3.1,2.72,24.64
24.334,23.09,4.04,4.16,23.81
24.344,21.12,4.21,4.88,22.08
24.354,18.51,4.03,5.38,19.69
24.364,15.49,3.8,5.76,16.96
24.374,12.28,3.7,5.94,14.13
24.383,9.13,3.84,5.78,11.47
24.393,6.43,4.16,5.43,9.39
24.403,4.02,4.74,5.08,8.03
24.413,1.77,5.55,4.87,7.59
24.423,-0.24,6.62,4.92,8.25
24.433,-1.98,7.96,5.16,9.68
24.443,-3.47,9.41,5.43,11.4
24.453,-4.67,10.78,5.61,13.02
24.463,-5.68,11.97,5.68,14.42
24.473,-6.53,12.77,5.66,15.42
24.483,-7.35,13.15,5.49,16.03
24.493,-8.14,13.25,5.25,16.41
24.503,-9.16,13.34,4.91,16.91
24.513,-10.27,13.47,4.6,17.56
24.523,-11.14,13.45,4.46,18.02
24.533,-11.52,13.04,4.53,17.98
24.543,-11.43,12.24,4.83,17.43
24.553,-11.1,11.43,5.46,16.84
24.563,-10.66,10.71,6.2,16.34
24.573,-10.05,9.98,6.97,15.78
24.583,-9.22,9.28,7.63,15.15
24.593,-8.18,8.56,8.12,14.36
24.603,-6.93,7.76,8.43,13.39
24.613,-5.2,6.85,8.74,12.26
24.623,-3.12,5.9,8.87,11.1
24.633,-0.61,5.22,9.11,10.52
24.643,3.12,4.79,10.11,11.62
24.653,8.24,4.4,11.7,14.97
24.663,13.48,4,12.95,19.12
24.674,17.52,4.12,13,22.2
24.683,20.48,4.98,12.68,24.6
24.693,22.13,6.61,13.29,26.65
24.703,22.76,8.63,14.92,28.55
24.713,23.31,10.33,16.66,30.45
24.724,23.35,9.82,15.34,29.61
24.733,22.33,7.14,11.01,25.9
24.743,20.74,3.8,7.71,22.45
24.753,18.37,0.75,5.02,19.06
24.763,15.29,-2.98,-0.47,15.59
24.773,11.95,-4.99,-1.81,13.08
24.783,8.53,-5.38,-0.92,10.12
24.793,5.45,-5.25,-0.3,7.58
24.803,2.9,-5.03,0.82,5.86
24.813,0.7,-5,1.92,5.4
24.823,-1.41,-5.16,3.11,6.18
24.833,-3.37,-5.47,4.06,7.6
24.843,-5,-6.14,4.44,9.08
24.853,-6.12,-7.24,4.43,10.46
24.863,-7,-8.57,4.42,11.92
24.873,-7.99,-9.9,4.5,13.49
24.883,-8.69,-11.26,4.68,14.97
24.893,-9.27,-12.6,4.85,16.37
24.903,-9.81,-13.84,4.82,17.64
24.913,-10.07,-15.05,4.32,18.61
24.923,-10.03,-15.76,3.41,18.99
24.933,-9.72,-15.89,2.45,18.79
24.943,-9.21,-16.25,1.64,18.75
24.953,-8.49,-16.23,1.03,18.35
24.963,-7.83,-15.81,0.54,17.65
24.973,-7.02,-15.22,0.15,16.76
24.982,-5.85,-14.5,-0.26,15.64
24.993,-4.49,-13.68,-0.7,14.41
25.002,-3.2,-12.96,-1.03,13.39
25.012,-2,-12.25,-1.14,12.46
25.022,-0.39,-11.09,-0.87,11.13
25.032,1.5,-9.48,-0.72,9.63
25.042,3.85,-8.17,-1,9.09
25.052,7.26,-7.54,-0.93,10.51
25.062,11.73,-7.1,0.07,13.71
25.073,16.2,-6.34,1.86,17.49
25.083,19.88,-5.21,4.29,21
25.093,22.81,-4.09,6.08,23.96
25.102,24.38,-3.14,5.53,25.2
25.113,25,-2.54,3.95,25.43
25.123,24.87,-1.83,3.02,25.12
25.133,23.46,-1,2.79,23.65
25.143,21.24,-0.04,2.46,21.39
25.152,18.92,0.98,1.92,19.04
25.163,16.56,1.86,1.67,16.74
25.172,13.77,2.65,1.74,14.13
25.182,10.65,3.42,1.95,11.35
25.192,7.57,4.14,2.07,8.88
25.202,4.87,4.79,2.23,7.19
25.212,2.78,5.23,2.61,6.48
25.222,1.22,5.49,3.43,6.59
25.232,-0.09,5.65,4.44,7.19
25.242,-1.32,5.77,5.46,8.06
25.252,-2.44,5.84,6.31,8.94
25.262,-3.35,5.79,6.9,9.61
25.272,-4.39,5.83,7.2,10.25
25.282,-5.55,6.03,7.22,10.92
25.292,-6.86,6.38,7.11,11.76
25.302,-8.33,7.06,7.03,12.98
25.312,-9.67,7.93,7.15,14.4
25.322,-10.83,8.83,7.36,15.79
25.332,-11.89,9.76,7.5,17.11
25.342,-12.65,10.79,7.7,18.32
25.352,-12.84,11.79,8.27,19.3
25.362,-12.5,12.51,9.08,19.88
25.372,-11.77,12.79,9.75,19.93
25.382,-10.75,12.46,9.99,19.25
25.392,-9.55,11.9,9.72,18.09
25.402,-8.13,11.61,9.27,16.94
25.412,-6.67,10.06,8.52,14.78
25.422,-5.28,8.43,7.67,12.56
25.432,-3.81,7.11,7.15,10.78
25.442,-1.92,6.04,6.92,9.39
25.452,0.82,4.98,6.7,8.39
25.462,4.22,3.79,6.24,8.44
25.472,8.77,2.51,5.89,10.86
25.482,13.54,1.46,5.6,14.73
25.492,16.82,1.44,5.15,17.65
25.502,19.07,2.7,5.26,19.96
25.512,21.25,4.3,6.35,22.59
25.522,23.12,5.96,7.89,25.15
25.532,24.33,7.08,9.35,27.01
25.542,24.36,7.35,10.73,27.61
25.552,23.2,7.58,11.94,27.17
25.562,21.39,5.99,11.52,25.02
25.572,19.3,2.51,8.31,21.17
25.582,16.99,-0.68,4.53,17.6
25.592,14.51,-2.93,2.25,14.97
25.602,11.91,-4.48,1.32,12.79
25.612,9.21,-5.38,1.03,10.72
25.622,6.72,-5.89,0.04,8.93
25.631,4.39,-5.99,-0.49,7.44
25.641,2.38,-5.79,-0.29,6.27
25.651,0.87,-5.69,-0.03,5.76
25.662,-0.29,-5.81,0.09,5.82
25.672,-1.1,-5.98,0.09,6.08
25.681,-1.43,-6.15,0.07,6.31
25.691,-1.62,-6.31,0.07,6.52
25.701,-1.71,-6.46,0.12,6.69
25.711,-1.57,-6.78,0.09,6.96
25.721,-1.38,-7.32,-0.2,7.45
25.731,-1.22,-8,-0.74,8.12
25.741,-1.03,-8.85,-1.47,9.03
25.751,-0.92,-9.78,-2.14,10.05
25.761,-0.91,-10.62,-2.72,11
25.771,-0.87,-11.42,-3.12,11.87
25.781,-0.86,-12.11,-3.28,12.58
25.791,-0.78,-12.57,-3.18,12.99
25.801,-0.47,-12.75,-3.03,13.11
25.811,-0.11,-12.65,-2.79,12.96
25.821,0.21,-12.2,-2.27,12.41
25.831,0.28,-11.34,-1.24,11.41
25.841,0.39,-10.12,1.03,10.18
25.851,1.31,-8.43,5.49,10.15
25.861,3.46,-6.5,10.37,12.72
25.871,5.55,-5.16,9.88,12.45
25.881,5.71,-4.44,4.93,8.75
25.891,4.99,-4.04,1.11,6.51
25.901,5.09,-3.4,0.95,6.2
25.911,5.56,-1.51,4.51,7.31
25.921,4.93,1.55,10.28,11.51
25.931,3.35,3.55,13.32,14.19
25.941,2.24,4.14,11.97,12.86
25.951,2.29,4.06,8.35,9.56
25.961,2.76,3.29,4.81,6.45
25.971,2.66,2.46,3,4.71
25.981,2.31,2.63,3.78,5.15
25.991,2.01,3.39,6.26,7.4
26.001,1.79,3.45,7.98,8.88
26.011,1.66,2.59,7.67,8.26
26.021,1.81,1.69,5.8,6.31
26.031,1.85,0.9,3.68,4.22
26.041,1.62,0.28,2.25,2.79
26.051,1.12,-0.07,1.76,2.09
26.061,0.5,0.01,1.82,1.89
26.071,-0.19,0.32,1.67,1.71
26.081,-0.75,0.59,0.99,1.38
26.091,-1.03,0.77,0.25,1.31
26.101,-1.01,0.85,-0.02,1.32
26.111,-0.66,0.63,-0.2,0.94
26.121,-0.42,0.31,-0.42,0.67
26.131,-0.3,-0.02,-0.61,0.67
26.141,-0.27,-0.42,-0.75,0.91
26.151,-0.24,-0.99,-0.95,1.4
26.161,-0.26,-1.65,-1.08,1.99
26.171,-0.28,-2.31,-1.12,2.58
26.181,-0.28,-2.94,-1.08,3.15
26.191,-0.21,-3.59,-1.24,3.8
26.201,-0.09,-4.16,-1.64,4.47
26.211,-0.05,-4.54,-2.3,5.09
26.221,-0.06,-4.72,-2.97,5.58
26.231,-0.2,-4.64,-3.39,5.76
26.241,-0.33,-4.39,-3.47,5.6
26.251,-0.29,-4.12,-3.31,5.29
26.261,-0.21,-3.91,-2.92,4.88
26.27,-0.18,-3.65,-2.29,4.32
26.28,-0.07,-3.41,-1.5,3.73
26.291,0.08,-3.17,-0.61,3.23
26.3,0.27,-2.97,0.32,3
26.311,0.5,-2.82,1.02,3.04
26.321,0.63,-2.75,1.24,3.08
26.33,0.49,-2.65,1.34,3.01
26.341,0.24,-2.57,1.77,3.13
26.35,0.35,-2.35,2.5,3.45
26.36,1.74,-1.42,2.7,3.51
26.37,3.02,0.44,2.79,4.14
26.38,2.23,0.68,2.47,3.4
26.39,0.55,-1.04,2.41,2.69
26.4,0.29,-1.9,2.79,3.39
26.41,0.34,-2.08,3.51,4.09
26.42,0.19,-1.77,3.7,4.11
26.43,-0.15,-1.43,3.46,3.75
26.44,-0.31,-1.34,3.14,3.43
26.45,-0.34,-1.33,3.06,3.35
26.46,-0.59,-1.17,2.61,2.93
26.47,-1.02,-0.56,2.84,3.07
26.48,-1.44,0.05,2.66,3.02
26.49,-1.46,0.92,2.08,2.71
26.5,-1.48,2.26,1.91,3.31
26.51,-1.69,3.32,1.73,4.1
26.52,-2.16,3.65,1.17,4.39
26.53,-2.38,3.04,0.69,3.92
26.54,-2.02,1.74,0.39,2.69
26.55,-1.55,0.46,0.16,1.63
26.56,-1.12,-0.45,0.14,1.21
26.57,-0.7,-1.13,0.24,1.35
26.58,-0.33,-1.56,0.35,1.63
26.59,-0.02,-1.86,0.53,1.93
26.6,0.24,-2.13,0.67,2.25
26.61,0.47,-2.21,0.56,2.32
26.62,0.7,-2.13,0.37,2.27
26.63,0.86,-2.02,0.27,2.22
26.64,0.91,-1.92,0.25,2.14
26.65,0.92,-1.81,0.22,2.04
26.66,0.87,-1.7,0.13,1.92
26.67,0.78,-1.59,-0.05,1.77
26.68,0.6,-1.49,-0.25,1.62
26.69,0.45,-1.39,-0.38,1.51
26.7,0.36,-1.25,-0.5,1.39
26.71,0.32,-1.11,-0.62,1.31
26.72,0.31,-1.03,-0.74,1.31
26.73,0.34,-0.89,-0.84,1.27
26.74,0.45,-0.76,-0.81,1.2
26.75,0.6,-0.58,-0.63,1.04
26.76,0.65,-0.29,-0.38,0.8
26.77,0.61,-0.07,-0.04,0.62
26.78,0.5,-0.06,0.24,0.56
26.79,0.36,-0.34,0.41,0.65
26.8,0.23,-0.76,0.55,0.97
26.81,0.19,-1.07,0.67,1.28
26.82,0.27,-1.16,0.73,1.4
26.83,0.39,-1.04,0.63,1.28
26.84,0.42,-0.77,0.41,0.97
26.85,0.44,-0.47,0.24,0.69
26.86,0.43,-0.2,0.34,0.58
26.87,0.41,-0.01,0.6,0.73
26.88,0.39,0.16,0.82,0.92
26.89,0.45,0.34,0.84,1.01
26.9,0.64,0.55,0.58,1.03
26.91,0.82,0.63,0.29,1.07
26.92,0.93,0.51,0.12,1.06
26.93,0.93,0.31,0.06,0.98
26.94,0.84,0.1,0.03,0.85
26.949,0.82,-0.15,-0.05,0.83
26.96,0.97,-0.51,-0.02,1.1
26.969,0.82,-0.69,0.13,1.08
26.98,0.58,-0.82,0.44,1.09
26.989,0.42,-0.84,0.81,1.24
26.999,0.34,-0.87,1.13,1.47
27.01,0.49,-0.88,1.37,1.7
27.019,0.8,-0.84,1.57,1.95
27.029,1.13,-0.8,1.71,2.2
27.039,1.48,-0.74,1.76,2.42
27.05,1.83,-0.67,1.76,2.62
27.059,2.09,-0.6,1.75,2.8
27.069,2.27,-0.55,1.72,2.9
27.079,2.27,-0.56,1.57,2.82
27.089,2.08,-0.61,1.26,2.51
27.099,1.8,-0.65,1.09,2.2
27.109,1.42,-0.56,0.93,1.79
27.119,1.09,-0.37,0.66,1.33
27.129,0.86,-0.19,0.49,1.01
27.139,0.74,-0.08,0.21,0.77
27.149,0.66,-0.23,-0.06,0.7
27.159,0.61,-0.45,-0.34,0.83
27.169,0.61,-0.56,-0.56,1
27.179,0.61,-0.51,-0.62,1.01
27.189,0.61,-0.37,-0.48,0.86
27.199,0.62,-0.18,-0.29,0.7
27.209,0.62,0.1,-0.09,0.63
27.219,0.67,0.37,-0.15,0.78
27.229,0.74,0.49,-0.25,0.92
27.239,0.84,0.46,-0.21,0.98
27.249,1.01,0.36,-0.04,1.07
27.259,1.2,0.27,0.2,1.24
27.269,1.36,0.21,0.45,1.44
27.279,1.52,0.14,0.66,1.66
27.289,1.69,0.08,0.83,1.88
27.299,1.84,0.06,0.86,2.03
27.309,1.92,0.14,0.78,2.08
27.319,1.96,0.27,0.63,2.07
27.329,1.96,0.44,0.47,2.06
27.339,1.88,0.66,0.32,2.02
