time,ax,ay,az,atotal
0.22,0.15,0.41,-0.63,0.76
0.23,0.17,0.43,-0.54,0.71
0.24,0.13,0.49,-0.46,0.68
0.25,0.14,0.57,-0.35,0.69
0.26,0.2,0.59,-0.32,0.7
0.27,0.29,0.68,-0.34,0.82
0.28,0.35,0.69,-0.39,0.87
0.29,0.41,0.77,-0.48,0.99
0.3,0.49,0.91,-0.53,1.17
0.31,0.52,1,-0.78,1.37
0.32,0.48,0.97,-0.76,1.32
0.329,0.55,0.94,-0.75,1.33
0.34,0.66,0.96,-0.77,1.4
0.35,0.65,0.87,-0.66,1.27
0.359,0.67,0.81,-0.71,1.27
0.37,0.72,0.72,-1.08,1.48
0.379,0.75,0.65,-1.34,1.67
0.389,0.78,0.67,-1.55,1.85
0.399,0.68,0.5,-1.33,1.57
0.409,0.48,0.28,-0.86,1.02
0.419,0.33,0.29,-0.54,0.7
0.429,0.21,0.07,-0.41,0.47
0.439,-0.27,-0.32,0.02,0.42
0.449,-0.43,-0.32,0.32,0.62
0.459,-0.47,-1.56,0.15,1.63
0.469,-0.24,-1.57,-0.13,1.59
0.479,0.21,-2.49,-0.05,2.5
0.489,0.75,-2.92,-0.35,3.03
0.499,0.87,-2.63,-0.56,2.83
0.509,0.57,-2.19,-0.71,2.37
0.519,0.06,-1.32,-0.69,1.49
0.529,-0.17,-0.51,-0.54,0.76
0.539,-0.19,0.06,-0.55,0.59
0.549,-0.32,0.61,-0.72,1
0.559,-0.99,1.34,-1.53,2.26
0.569,-0.95,1.02,-1.56,2.09
0.579,-0.38,0.6,-1.85,1.99
0.589,-0.27,0.65,-2.65,2.74
0.599,-0.3,0.55,-3.45,3.5
0.609,-0.15,0.61,-3.65,3.7
0.619,0.65,0.83,-3.89,4.03
0.629,1.46,0.75,-3.89,4.22
0.639,1.28,0.63,-3.6,3.87
0.649,0.42,0.77,-3.86,3.96
0.659,-0.22,0.8,-4.36,4.44
0.669,-0.32,0.47,-4.72,4.76
0.679,-0.65,0.43,-4.82,4.88
0.689,-1.06,0.36,-4.82,4.95
0.699,-1.53,0.29,-4.9,5.14
0.709,-2.15,0.3,-4.76,5.23
0.719,-2.77,0.41,-5.12,5.83
0.729,-3.3,0.26,-4.97,5.97
0.739,-3.52,0.06,-4.2,5.48
0.749,-4.05,0.09,-4.11,5.77
0.759,-4.25,-0.03,-4.12,5.92
0.769,-4.43,-0.08,-3.7,5.77
0.779,-5.02,-0.11,-3.23,5.97
0.789,-5.5,-0.03,-2.83,6.19
0.799,-5.37,0.34,-2.59,5.97
0.809,-5.17,0.61,-2.51,5.78
0.819,-5.18,0.79,-2.5,5.8
0.829,-5.31,0.98,-2.24,5.84
0.839,-5.31,1.38,-1.81,5.78
0.849,-4.98,1.83,-1.46,5.5
0.859,-4.88,1.91,-1.3,5.4
0.869,-4.99,1.93,-1.22,5.49
0.879,-5.13,2.27,-1.42,5.78
0.889,-5.17,2.24,-1.3,5.78
0.899,-4.98,1.74,-0.55,5.3
0.909,-5.27,1.3,-0.17,5.43
0.919,-5.92,0.98,0.68,6.04
0.928,-6.6,0.1,1.33,6.73
0.939,-6.79,-0.14,2.08,7.1
0.949,-6.96,-0.23,2.6,7.43
0.958,-7.03,-0.94,3.08,7.73
0.969,-6.83,-1.72,3.34,7.8
0.978,-6.59,-2.39,3.43,7.8
0.988,-6.6,-3.23,3.49,8.13
0.998,-6.9,-3.77,3.43,8.58
1.008,-6.87,-4.33,3.42,8.82
1.018,-6.22,-5.33,3.3,8.83
1.028,-5.47,-5.83,3.51,8.73
1.038,-4.83,-6.06,3.92,8.69
1.049,-4.56,-6.19,4.25,8.78
1.058,-5.12,-6.03,4.62,9.16
1.068,-5.47,-5.94,5.47,9.75
1.078,-5.27,-6.27,5.96,10.13
1.088,-4.78,-6.88,6.14,10.39
1.098,-4.14,-7.55,6.04,10.52
1.108,-3.63,-8.05,5.73,10.53
1.118,-3.37,-8.64,5.73,10.91
1.128,-2.9,-9.17,5.83,11.24
1.138,-2.07,-9.27,5.89,11.18
1.148,-1.98,-9.43,6.18,11.45
1.158,-2.28,-9.42,6.1,11.45
1.168,-2.55,-9.26,6.34,11.51
1.178,-2.41,-9.44,6.58,11.75
1.188,-2.15,-9.65,6.64,11.91
1.198,-2.15,-9.73,6.46,11.88
1.208,-2.16,-9.81,6.49,11.96
1.218,-2.13,-9.81,6.46,11.94
1.228,-2.11,-9.58,6.53,11.78
1.238,-2.21,-9.25,6.62,11.59
1.248,-2.42,-8.92,6.59,11.35
1.258,-2.57,-8.71,6.39,11.11
1.268,-2.7,-8.39,6.12,10.73
1.278,-3.02,-7.99,5.87,10.37
1.288,-3.47,-7.48,5.59,9.96
1.298,-3.86,-6.86,5.29,9.48
1.308,-4.31,-6.34,4.94,9.12
1.318,-4.87,-5.91,4.45,8.86
1.328,-5.69,-5.09,3.9,8.57
1.338,-6.5,-4.25,3.46,8.5
1.348,-6.99,-3.47,3.08,8.39
1.358,-7.16,-2.71,2.81,8.15
1.368,-7.18,-1.94,2.39,7.82
1.378,-7.18,-1.3,1.95,7.56
1.388,-7.1,-0.83,1.33,7.27
1.398,-7.06,-0.28,0.74,7.11
1.408,-7.04,0.34,0.21,7.05
1.418,-6.49,0.95,-0.05,6.56
1.428,-5.56,1.27,-0.19,5.71
1.438,-4.82,1.46,-0.28,5.04
1.448,-4.44,2,-0.37,4.88
1.458,-4.12,2.59,-0.51,4.89
1.468,-3.91,2.99,-0.45,4.94
1.478,-3.82,3.54,-0.58,5.24
1.488,-3.87,4.14,-0.9,5.74
1.498,-4.07,5.28,-1.08,6.75
1.508,-3.85,6.51,-1.51,7.71
1.518,-3.15,7.58,-2.12,8.48
1.528,-2.04,8.5,-3.05,9.26
1.537,-0.41,9.35,-4.02,10.19
1.548,1.47,9.93,-4.42,10.97
1.557,2.91,9.74,-4.6,11.16
1.568,3.83,9.49,-4.69,11.25
1.577,4.5,9.56,-4.51,11.49
1.588,4.96,9.74,-4.14,11.69
1.597,5.1,10.01,-3.78,11.85
1.607,5.15,10.39,-3.3,12.06
1.618,4.85,10.8,-2.92,12.19
1.627,4.24,11.13,-2.54,12.18
1.637,3.73,11.29,-2.04,12.07
1.648,3.15,11.38,-1.67,11.93
1.657,2.45,11.57,-1.36,11.91
1.667,1.73,11.54,-1.05,11.72
1.677,1.08,11.29,-0.8,11.37
1.687,0.47,10.83,-0.63,10.86
1.697,-0.03,10.12,-0.53,10.13
1.707,-0.49,9.27,-0.57,9.3
1.717,-0.88,8.34,-0.73,8.42
1.727,-1.14,7.52,-0.8,7.64
1.737,-1.27,6.76,-0.74,6.92
1.747,-1.44,6.08,-0.6,6.27
1.757,-1.69,5.5,-0.42,5.77
1.767,-1.89,4.76,-0.39,5.13
1.778,-2.15,4.03,-0.44,4.59
1.787,-2.45,3.35,-0.46,4.18
1.797,-2.71,2.69,-0.34,3.83
1.807,-2.99,2.08,-0.15,3.64
1.817,-3.26,1.47,0.1,3.58
1.827,-3.44,0.79,0.29,3.54
1.837,-3.66,0.12,0.4,3.68
1.847,-3.89,-0.5,0.48,3.96
1.857,-4.08,-1.12,0.57,4.27
1.867,-4.24,-1.72,0.67,4.62
1.877,-4.47,-2.21,0.82,5.06
1.887,-4.64,-2.77,0.93,5.49
1.897,-4.7,-3.34,1.04,5.86
1.907,-4.72,-3.86,1.2,6.21
1.917,-4.66,-4.39,1.35,6.55
1.927,-4.51,-4.88,1.4,6.79
1.937,-4.38,-5.42,1.44,7.12
1.947,-4.26,-5.88,1.58,7.43
1.957,-4.05,-6.35,1.78,7.74
1.967,-3.89,-6.81,1.94,8.08
1.977,-3.85,-7.25,2.12,8.47
1.987,-3.83,-7.62,2.33,8.84
1.997,-3.79,-7.91,2.54,9.13
2.007,-3.72,-8.21,2.69,9.41
2.017,-3.61,-8.53,2.64,9.63
2.027,-3.5,-8.82,2.49,9.81
2.037,-3.37,-9.1,2.3,9.97
2.047,-3.37,-9.42,2.13,10.23
2.057,-3.44,-9.72,2.03,10.51
2.067,-3.75,-9.87,1.97,10.75
2.077,-4.01,-9.96,1.93,10.91
2.087,-3.83,-10.07,2.03,10.96
2.097,-4.06,-10.45,2.18,11.42
2.107,-4.6,-10.42,2.17,11.59
2.117,-4.99,-10.27,2.23,11.63
2.127,-5.23,-10.02,2.25,11.52
2.137,-5.52,-9.77,2.21,11.43
2.147,-5.89,-9.45,1.97,11.31
2.156,-6.46,-9.04,1.67,11.24
2.167,-7.2,-8.31,1.29,11.07
2.177,-8.11,-7.15,1.06,10.86
2.187,-8.46,-6.07,1.09,10.47
2.197,-8.01,-5.38,1.33,9.74
2.206,-7.21,-4.91,1.53,8.86
2.217,-6.37,-4.62,1.68,8.04
2.226,-5.41,-4.47,1.73,7.23
2.237,-4.53,-4.24,1.71,6.44
2.246,-4,-3.85,1.7,5.81
2.256,-3.73,-3.3,1.71,5.26
2.267,-3.77,-2.64,1.73,4.92
2.276,-4.22,-1.95,1.64,4.93
2.286,-4.89,-1.29,1.44,5.26
2.296,-5.35,-0.79,1.47,5.6
2.306,-5.76,-0.45,1.39,5.94
2.316,-6.21,-0.03,1.33,6.35
2.326,-6.76,0.49,1.32,6.91
2.336,-6.96,1.09,1.25,7.15
2.346,-7.11,1.52,1.07,7.35
2.356,-6.96,1.41,1.52,7.27
2.366,-6.91,1.85,1.73,7.36
2.376,-6.55,2.22,1.76,7.14
2.386,-6.17,2.77,1.88,7.02
2.396,-6.06,3.48,2.18,7.32
2.406,-6.22,4.26,2.35,7.89
2.416,-6.37,5.33,2.43,8.65
2.426,-6.13,6.22,2.72,9.15
2.436,-5.63,6.68,2.84,9.18
2.446,-4.84,6.93,2.81,8.91
2.456,-4.18,7.17,2.59,8.7
2.466,-3.55,7.25,2.25,8.38
2.476,-2.87,7.27,1.97,8.06
2.486,-2.26,7.37,1.79,7.92
2.496,-1.78,7.53,1.73,7.93
2.506,-1.66,7.96,1.76,8.32
2.516,-1.69,8.61,1.8,8.96
2.526,-1.4,9.08,1.77,9.36
2.536,-0.92,9.28,1.87,9.51
2.546,-0.23,9.4,2.07,9.63
2.556,0.65,9.4,2.38,9.72
2.566,1.25,9.59,2.53,10
2.576,1.39,9.9,2.39,10.28
2.586,1.54,10.25,2.16,10.59
2.596,1.89,10.49,2.01,10.85
2.606,2.14,10.74,1.85,11.11
2.616,2.11,11.09,1.74,11.42
2.626,1.96,11.31,1.75,11.61
2.636,2.09,11.24,1.97,11.6
2.646,2.35,11.12,2.29,11.6
2.656,2.44,11.13,2.6,11.69
2.666,2.47,11.08,2.8,11.7
2.676,2.46,10.85,2.7,11.44
2.686,2.49,11.55,2.62,12.1
2.696,2.14,12.06,2.51,12.5
2.706,1.51,12.24,2.32,12.55
2.716,0.93,12.33,2.16,12.55
2.726,0.44,12.1,1.94,12.27
2.736,-0.12,11.69,1.68,11.81
2.746,-0.78,11.1,1.24,11.2
2.756,-1.38,10.26,0.68,10.38
2.766,-1.63,9.23,0.14,9.38
2.776,-1.71,8.16,-0.28,8.34
2.786,-1.84,7.28,-0.61,7.54
2.796,-2.11,6.68,-0.87,7.06
2.806,-2.66,6.3,-1,6.91
2.816,-3.36,6.01,-0.96,6.95
2.825,-4.13,5.67,-0.76,7.06
2.836,-4.96,5.25,-0.45,7.24
2.845,-5.54,5.45,-0.16,7.77
2.855,-6.21,5.52,0.06,8.31
2.866,-7.08,4.96,-0.04,8.64
2.875,-7.83,4.61,-0.41,9.1
2.886,-8.36,4.18,-1,9.4
2.895,-8.62,3.59,-1.49,9.45
2.905,-8.8,2.78,-1.79,9.4
2.916,-8.88,1.98,-1.8,9.27
2.925,-8.8,1.19,-1.62,9.03
2.935,-8.75,0.43,-1.42,8.88
2.945,-8.62,-0.46,-1.23,8.72
2.955,-8.53,-1.3,-1.15,8.71
2.965,-8.41,-2.05,-1.12,8.73
2.975,-7.94,-2.95,-1.12,8.54
2.985,-7.32,-3.47,-1.23,8.2
2.995,-6.81,-3.87,-1.31,7.94
3.005,-6.48,-4.17,-1.44,7.84
3.015,-6.2,-4.43,-1.51,7.77
3.025,-6.03,-4.66,-1.49,7.77
3.035,-6.01,-4.8,-1.36,7.81
3.045,-5.89,-5.08,-1.18,7.87
3.055,-5.62,-5.5,-1.03,7.93
3.065,-5.36,-6,-0.95,8.1
3.075,-5.2,-6.45,-0.79,8.32
3.085,-5.11,-6.78,-0.53,8.51
3.095,-5.1,-7.13,-0.26,8.77
3.105,-5.03,-7.59,-0.03,9.11
3.115,-5.04,-8.1,0.17,9.54
3.125,-5.1,-8.62,0.35,10.03
3.135,-5.1,-9.2,0.48,10.53
3.145,-5.11,-9.77,0.62,11.04
3.155,-5.22,-10.24,0.76,11.52
3.165,-5.4,-10.56,0.92,11.9
3.175,-5.64,-10.74,1.06,12.18
3.185,-5.88,-10.71,1.23,12.28
3.195,-5.97,-10.62,1.41,12.27
3.205,-5.98,-10.55,1.54,12.23
3.215,-6.01,-10.39,1.71,12.12
3.225,-6.07,-10.11,1.89,11.94
3.235,-6.16,-9.78,1.96,11.72
3.245,-6.41,-9.37,1.91,11.51
3.255,-6.67,-9.04,1.73,11.37
3.265,-6.97,-8.66,1.59,11.23
3.275,-7.29,-8.15,1.66,11.06
3.285,-7.46,-7.62,1.91,10.84
3.295,-7.48,-7.21,2.05,10.59
3.305,-7.31,-6.83,2.08,10.21
3.315,-6.89,-6.52,2.06,9.71
3.325,-6.34,-6.24,2.03,9.13
3.335,-5.81,-5.87,1.97,8.49
3.345,-5.42,-5.39,1.84,7.87
3.355,-4.9,-5.03,1.69,7.23
3.365,-4.35,-4.74,1.48,6.6
3.375,-4.12,-4.33,1.2,6.1
3.385,-4.18,-3.74,0.91,5.68
3.395,-4.4,-3.1,0.65,5.42
3.405,-4.72,-2.4,0.44,5.32
3.415,-5.17,-1.64,0.27,5.43
3.425,-5.72,-0.86,0.13,5.78
3.435,-6.33,-0.08,0.02,6.33
3.444,-7.13,0.63,-0.13,7.16
3.455,-8.09,1.44,-0.31,8.22
3.465,-9.24,2.41,-0.54,9.56
3.474,-10.15,3.29,-0.64,10.69
3.484,-10.26,4.13,-0.35,11.07
3.494,-9.87,4.92,0.14,11.03
3.504,-9.18,5.54,0.54,10.74
3.515,-8.21,5.88,0.75,10.13
3.524,-7.22,5.82,0.77,9.31
3.534,-6.29,5.87,0.64,8.63
3.544,-4.98,5.94,0.83,7.8
3.554,-4.16,5.87,0.99,7.27
3.564,-3.73,6.01,1.02,7.14
3.574,-3.19,6.11,1.04,6.97
3.584,-2.69,6.19,1.05,6.83
3.594,-2.3,6.36,1.08,6.85
3.604,-1.79,6.58,1.25,6.93
3.614,-1.31,6.82,1.43,7.09
3.624,-0.97,7.09,1.54,7.32
3.634,-0.74,7.38,1.53,7.57
3.644,-0.64,7.74,1.45,7.9
3.654,-0.44,8.18,1.47,8.32
3.664,0.02,8.57,1.66,8.73
3.674,0.6,8.78,1.84,8.99
3.684,0.98,9.03,1.84,9.27
3.694,1.25,9.18,1.79,9.44
3.704,1.58,9.15,1.74,9.44
3.714,1.8,9.13,1.68,9.45
3.724,1.91,9.25,1.56,9.58
3.734,2.04,9.38,1.46,9.71
3.744,2.12,9.53,1.44,9.87
3.754,2.1,9.66,1.37,9.98
3.764,2.09,9.68,1.29,9.99
3.774,2.08,9.59,1.21,9.88
3.784,2.06,9.45,1.08,9.73
3.794,2.09,9.34,0.83,9.6
3.804,2.13,9.24,0.54,9.49
3.814,1.96,9.3,0.21,9.51
3.824,1.4,9.68,-0.04,9.78
3.834,0.79,10.08,-0.13,10.11
3.844,0.29,10.32,-0.1,10.33
3.854,0,10.36,0.01,10.36
3.864,-0.26,10.21,-0.02,10.21
3.874,-0.53,9.92,-0.24,9.93
3.884,-0.68,9.25,-0.61,9.3
3.894,-0.63,8.25,-1.05,8.34
3.904,-0.52,7.2,-1.56,7.38
3.914,-0.41,6.17,-2.03,6.51
3.924,-0.18,5.34,-2.21,5.78
3.934,-0.21,4.93,-2.1,5.36
3.944,-0.52,4.85,-1.73,5.18
3.954,-1.07,4.9,-1.45,5.22
3.964,-1.81,4.98,-1.34,5.47
3.974,-2.61,4.96,-1.3,5.76
3.984,-3.35,4.88,-1.34,6.07
3.994,-4,4.78,-1.45,6.4
4.004,-4.62,4.73,-1.59,6.8
4.014,-5.18,4.63,-1.8,7.18
4.024,-5.69,4.45,-2.04,7.5
4.034,-6,4.09,-2.22,7.59
4.044,-6.11,3.61,-2.18,7.43
4.054,-6,3,-1.97,6.99
4.064,-5.74,2.31,-1.67,6.41
4.073,-5.46,1.59,-1.37,5.85
4.084,-5.05,0.8,-1.11,5.23
4.094,-4.69,0.05,-0.97,4.79
4.103,-4.35,-0.66,-0.91,4.49
4.113,-4,-1.36,-0.91,4.32
4.123,-3.79,-1.96,-1.06,4.4
4.134,-3.64,-2.48,-1.13,4.55
4.143,-3.51,-2.93,-1.11,4.7
4.153,-3.41,-3.31,-1.01,4.86
4.164,-3.33,-3.64,-0.84,5.01
4.173,-3.34,-3.95,-0.67,5.21
4.183,-3.38,-4.23,-0.52,5.43
4.193,-3.46,-4.51,-0.29,5.69
4.203,-3.52,-4.83,-0.02,5.98
4.213,-3.6,-5.05,0.28,6.21
4.223,-3.65,-5.26,0.52,6.43
4.233,-3.7,-5.43,0.7,6.61
4.243,-3.73,-5.6,0.87,6.79
4.253,-3.77,-5.74,1.03,6.94
4.263,-3.72,-5.89,1.26,7.08
4.273,-3.66,-6.05,1.47,7.22
4.283,-3.64,-6.2,1.65,7.37
4.293,-3.61,-6.34,1.82,7.52
4.303,-3.65,-6.47,1.94,7.68
4.313,-3.73,-6.6,2.05,7.86
4.323,-3.73,-6.77,2.19,8.03
4.333,-3.72,-6.92,2.32,8.2
4.343,-3.76,-7.05,2.45,8.36
4.353,-3.7,-7.18,2.6,8.49
4.363,-3.62,-7.27,2.74,8.57
4.373,-3.64,-7.24,2.81,8.58
4.383,-3.69,-7.11,2.81,8.49
4.393,-3.88,-6.87,2.75,8.36
4.403,-4.29,-6.56,2.57,8.24
4.413,-4.66,-6.3,2.34,8.18
4.423,-4.87,-6.11,2.19,8.11
4.433,-4.93,-5.89,2.12,7.97
4.443,-5.09,-5.54,2.02,7.78
4.453,-5.32,-5.12,1.84,7.61
4.463,-5.33,-4.75,1.7,7.34
4.473,-4.93,-4.56,1.61,6.91
4.483,-4.36,-4.44,1.46,6.39
4.493,-3.75,-4.29,1.36,5.86
4.503,-3.11,-4.19,1.24,5.36
4.513,-2.45,-4.09,1.06,4.88
4.523,-1.81,-3.95,0.79,4.42
4.533,-1.44,-3.69,0.42,3.98
4.543,-1.29,-3.31,0.02,3.55
4.553,-1.15,-2.92,-0.32,3.16
4.563,-1.13,-2.47,-0.74,2.81
4.573,-1.28,-1.94,-1.25,2.64
4.583,-1.49,-1.38,-1.67,2.63
4.593,-1.76,-0.74,-1.97,2.74
4.603,-2.1,-0.1,-2.23,3.06
4.613,-2.47,0.47,-2.49,3.54
4.623,-2.8,1.01,-2.6,3.95
4.633,-3.18,1.49,-2.6,4.37
4.643,-3.58,1.87,-2.55,4.78
4.653,-3.81,2.18,-2.39,4.99
4.663,-3.77,2.34,-2.12,4.92
4.673,-3.66,2.51,-1.81,4.79
4.683,-3.52,2.69,-1.46,4.67
4.692,-3.33,2.79,-1.21,4.51
4.703,-2.94,2.86,-0.94,4.21
4.712,-2.51,2.95,-0.68,3.93
4.722,-2.19,3.16,-0.42,3.87
4.733,-1.68,3.24,-0.22,3.65
4.742,-1.21,3.33,-0.14,3.54
4.752,-0.89,3.51,-0.12,3.63
4.762,-0.6,3.67,-0.1,3.72
4.772,-0.33,3.85,-0.07,3.87
4.783,-0.12,4.07,-0.07,4.07
4.792,0.19,4.24,-0.04,4.25
4.802,0.55,4.41,0.04,4.44
4.812,0.85,4.61,0.1,4.69
4.822,1.05,4.8,0.11,4.91
4.832,1.2,5,0.07,5.14
4.842,1.28,5.24,0.04,5.39
4.852,1.36,5.38,0.04,5.55
4.862,1.48,5.46,0.06,5.66
4.872,1.51,5.56,0.09,5.76
4.882,1.44,5.68,0.17,5.86
4.892,1.33,5.85,0.33,6
4.902,1.19,6.03,0.49,6.16
4.912,1.15,6.08,0.63,6.22
4.922,1.18,6.06,0.75,6.22
4.932,1.17,6.04,0.8,6.2
4.942,1.08,6.06,0.76,6.2
4.952,1,6.07,0.72,6.2
4.962,0.95,6.06,0.73,6.18
4.972,0.95,6.05,0.76,6.17
4.982,0.98,5.97,0.76,6.1
4.992,1.04,5.91,0.78,6.05
5.002,1.11,5.83,0.81,5.99
5.012,1.21,5.71,0.75,5.88
5.022,1.21,5.61,0.58,5.77
5.032,1.14,5.53,0.38,5.66
5.042,1.1,5.44,0.23,5.55
5.052,0.98,5.39,0.14,5.48
5.062,0.79,5.44,0.17,5.5
5.072,0.53,5.5,0.27,5.53
5.082,0.16,5.57,0.37,5.58
5.092,-0.4,5.7,0.47,5.73
5.102,-1.02,5.78,0.52,5.9
5.112,-1.5,5.76,0.6,5.98
5.122,-1.76,5.63,0.78,5.95
5.132,-1.97,5.49,0.94,5.91
5.142,-2.43,5.51,0.97,6.1
5.152,-3.11,5.62,0.89,6.49
5.162,-3.76,5.72,0.84,6.89
5.172,-4.3,5.67,0.86,7.16
5.182,-4.73,5.48,0.93,7.3
5.192,-4.9,5.15,1.06,7.18
5.202,-4.73,4.61,1.19,6.72
5.212,-4.35,3.96,1.25,6.01
5.222,-3.85,3.18,1.2,5.13
5.232,-3.28,2.37,1.13,4.2
5.242,-2.8,1.71,1.18,3.48
5.252,-2.39,1.21,1.35,3
5.262,-2.05,0.8,1.47,2.65
5.272,-1.81,0.5,1.5,2.41
5.282,-1.59,0.27,1.42,2.15
5.292,-1.4,0.13,1.32,1.93
5.302,-1.24,0.09,1.25,1.77
5.311,-1.11,0.08,1.28,1.7
5.321,-1,0.05,1.34,1.67
5.332,-0.88,0.04,1.41,1.66
5.341,-0.79,0.02,1.51,1.7
5.351,-0.81,0.06,1.67,1.86
5.361,-0.89,0.09,1.99,2.19
5.371,-1,0.11,2.31,2.52
5.381,-1.35,0.23,2.65,2.98
5.391,-1.69,0.27,3.03,3.48
5.401,-2.02,0.28,3.33,3.91
5.411,-2.42,0.33,3.55,4.31
5.421,-2.84,0.37,3.75,4.72
5.431,-3.22,0.44,3.99,5.14
5.441,-3.46,0.4,4.24,5.49
5.451,-3.51,0.28,4.48,5.7
5.461,-3.47,0.14,4.65,5.8
5.471,-3.4,-0.06,4.73,5.82
5.481,-3.28,-0.24,4.74,5.77
5.491,-2.9,-0.53,4.78,5.62
5.501,-2.48,-0.81,4.77,5.44
5.511,-2.16,-1.01,4.71,5.28
5.521,-1.93,-1.14,4.62,5.14
5.531,-1.73,-1.28,4.49,4.98
5.541,-1.52,-1.37,4.37,4.82
5.551,-1.44,-1.32,4.28,4.71
5.561,-1.45,-1.22,4.21,4.62
5.571,-1.48,-1.13,4.17,4.56
5.581,-1.44,-1.08,4.14,4.51
5.591,-1.41,-1.02,4.12,4.47
5.601,-1.47,-0.91,4.07,4.42
5.611,-1.58,-0.81,4.03,4.41
5.621,-1.69,-0.73,3.99,4.4
5.631,-1.85,-0.66,3.93,4.39
5.641,-1.95,-0.66,3.89,4.4
5.651,-2,-0.77,3.84,4.4
5.661,-2.07,-0.89,3.75,4.38
5.671,-2.19,-1.01,3.71,4.43
5.681,-2.29,-1.18,3.71,4.52
5.691,-2.39,-1.44,3.66,4.6
5.701,-2.47,-1.76,3.61,4.71
5.711,-2.52,-2.09,3.64,4.9
5.721,-2.57,-2.52,3.64,5.12
5.731,-2.63,-2.97,3.59,5.36
5.741,-2.66,-3.44,3.45,5.55
5.751,-2.68,-3.88,3.23,5.71
5.761,-2.79,-4.21,2.97,5.86
5.771,-3.02,-4.45,2.75,6.04
5.781,-3.39,-4.62,2.52,6.26
5.791,-3.89,-4.77,2.33,6.58
5.801,-4.43,-4.88,2.18,6.95
5.811,-4.94,-5.07,2.08,7.38
5.821,-5.37,-5.28,2.07,7.81
5.831,-5.72,-5.56,2.18,8.26
5.841,-5.99,-5.91,2.23,8.71
5.851,-6.11,-6.31,2.16,9.04
5.861,-5.91,-6.68,1.96,9.13
5.871,-5.46,-6.96,1.68,9.01
5.881,-4.84,-7.12,1.29,8.7
5.891,-4.12,-7.28,0.91,8.41
5.901,-3.41,-7.49,0.6,8.25
5.911,-2.85,-7.62,0.31,8.14
5.921,-2.4,-7.69,-0.02,8.05
5.931,-1.94,-7.74,-0.25,7.98
5.94,-1.51,-7.69,-0.38,7.84
5.951,-1.21,-7.47,-0.47,7.58
5.961,-1.08,-7.11,-0.58,7.22
5.97,-1.11,-6.59,-0.68,6.71
5.98,-1.27,-5.94,-0.71,6.11
5.99,-1.54,-5.2,-0.73,5.48
6,-1.86,-4.41,-0.71,4.83
6.01,-2.15,-3.68,-0.69,4.32
6.02,-2.46,-2.95,-0.71,3.91
6.03,-2.72,-2.31,-0.73,3.65
6.04,-2.86,-1.78,-0.79,3.47
6.05,-2.93,-1.3,-0.78,3.3
6.06,-2.84,-0.86,-0.7,3.05
6.07,-2.7,-0.48,-0.65,2.82
6.08,-2.51,-0.14,-0.64,2.6
6.09,-2.3,0.15,-0.63,2.39
6.1,-2.08,0.48,-0.58,2.21
6.11,-1.88,0.8,-0.46,2.09
6.12,-1.76,1.13,-0.34,2.12
6.13,-1.6,1.42,-0.19,2.15
6.14,-1.46,1.64,-0.1,2.2
6.15,-1.33,1.83,-0.02,2.26
6.16,-1.14,2.02,0.09,2.32
6.17,-0.92,2.22,0.24,2.42
6.18,-0.7,2.4,0.37,2.53
6.19,-0.55,2.58,0.47,2.68
6.2,-0.44,2.77,0.54,2.85
6.21,-0.25,2.91,0.61,2.98
6.22,-0.12,3.06,0.62,3.12
6.23,-0.01,3.19,0.61,3.24
6.24,0.21,3.26,0.64,3.32
6.25,0.38,3.34,0.62,3.42
6.26,0.49,3.49,0.64,3.58
6.27,0.64,3.61,0.71,3.74
6.28,0.83,3.71,0.79,3.88
6.29,1.02,3.79,0.84,4.02
6.3,1.14,3.92,0.85,4.16
6.31,1.14,4.05,0.84,4.29
6.32,1.19,4.29,0.88,4.54
6.33,1.31,4.44,0.93,4.72
6.34,1.44,4.52,0.91,4.83
6.35,1.46,4.57,0.77,4.86
6.36,1.43,4.63,0.62,4.88
6.37,1.36,4.68,0.52,4.9
6.38,1.16,4.84,0.44,4.99
6.39,1.02,4.94,0.45,5.06
6.4,0.96,4.96,0.48,5.07
6.41,0.84,4.98,0.5,5.07
6.42,0.64,5.05,0.52,5.12
6.43,0.49,5.07,0.52,5.12
6.44,0.34,5.05,0.48,5.08
6.45,0.09,5.11,0.42,5.13
6.46,-0.37,5.27,0.28,5.29
6.47,-0.99,5.52,0.24,5.61
6.48,-1.47,5.68,0.33,5.87
6.49,-1.67,5.69,0.52,5.95
6.5,-1.78,5.57,0.67,5.88
6.51,-1.96,5.41,0.64,5.79
6.52,-2.15,5.18,0.54,5.63
6.53,-2.06,4.82,0.55,5.27
6.54,-1.66,4.25,0.56,4.6
6.55,-1.17,3.63,0.56,3.85
6.56,-0.65,2.96,0.58,3.09
6.57,-0.08,2.31,0.57,2.38
6.58,0.47,1.75,0.71,1.95
6.589,0.79,1.31,0.94,1.8
6.599,0.9,1.01,1.11,1.75
6.609,0.77,0.83,1.15,1.61
6.619,0.43,0.74,1.05,1.35
6.629,-0.06,0.76,0.82,1.13
6.639,-0.77,0.91,0.55,1.31
6.649,-1.55,1.09,0.3,1.92
6.659,-2.31,1.28,0.16,2.65
6.669,-3.03,1.43,0.11,3.35
6.679,-3.64,1.46,0.14,3.92
6.689,-3.96,1.31,0.23,4.18
6.699,-4.07,1.06,0.34,4.22
6.709,-4.1,0.72,0.47,4.19
6.719,-4.09,0.34,0.63,4.15
6.729,-3.95,-0.09,0.82,4.03
6.739,-3.63,-0.62,1.01,3.82
6.749,-3.27,-1.18,1.12,3.65
6.759,-2.86,-1.74,1.21,3.56
6.769,-2.44,-2.27,1.26,3.56
6.779,-2.1,-2.7,1.27,3.65
6.789,-1.79,-3.04,1.25,3.74
6.799,-1.46,-3.3,1.25,3.82
6.809,-1.16,-3.51,1.2,3.88
6.819,-0.96,-3.63,1.08,3.91
6.829,-0.82,-3.78,0.97,3.99
6.839,-0.75,-3.92,0.88,4.08
6.849,-0.74,-4,0.84,4.15
6.859,-0.8,-4.04,0.84,4.21
6.869,-0.89,-4.09,0.84,4.27
6.879,-0.96,-4.2,0.89,4.39
6.889,-1.16,-4.19,0.98,4.46
6.899,-1.43,-4.14,1.14,4.53
6.909,-1.68,-4.23,1.27,4.73
6.919,-1.91,-4.3,1.32,4.89
6.929,-2.11,-4.39,1.3,5.04
6.939,-2.27,-4.49,1.27,5.19
6.949,-2.4,-4.61,1.24,5.34
6.959,-2.53,-4.72,1.23,5.49
6.969,-2.62,-4.83,1.23,5.63
6.979,-2.73,-4.94,1.17,5.77
6.989,-2.83,-5.09,1.03,5.91
6.999,-2.89,-5.24,0.88,6.05
7.009,-2.95,-5.39,0.72,6.18
7.019,-3.03,-5.49,0.6,6.3
7.029,-3.07,-5.63,0.5,6.43
7.039,-3.1,-5.69,0.41,6.5
7.049,-3.11,-5.76,0.31,6.55
7.059,-3.12,-5.74,0.22,6.53
7.069,-3.2,-5.61,0.1,6.46
7.079,-3.56,-5.32,-0.14,6.41
7.089,-4.15,-4.96,-0.45,6.48
7.099,-4.66,-4.74,-0.71,6.68
7.109,-4.93,-4.59,-0.81,6.78
7.119,-5.04,-4.44,-0.79,6.76
7.129,-5.06,-4.21,-0.71,6.62
7.139,-4.99,-3.94,-0.64,6.39
7.149,-4.76,-3.73,-0.58,6.08
7.159,-4.31,-3.6,-0.44,5.63
7.169,-3.59,-3.55,-0.2,5.05
7.179,-2.74,-3.53,-0.01,4.47
7.189,-1.96,-3.44,0.1,3.96
7.199,-1.3,-3.29,0.13,3.54
7.209,-0.85,-3.02,0.1,3.14
7.219,-0.64,-2.65,0,2.72
7.229,-0.58,-2.22,-0.06,2.3
7.239,-0.62,-1.71,-0.09,1.83
7.249,-0.77,-1.16,-0.16,1.41
7.258,-1.03,-0.65,-0.31,1.25
7.268,-1.35,-0.17,-0.45,1.43
7.278,-1.69,0.27,-0.53,1.79
7.288,-2.1,0.71,-0.56,2.29
7.299,-2.61,1.16,-0.56,2.91
7.308,-3.12,1.54,-0.52,3.52
7.318,-3.57,1.91,-0.35,4.06
7.328,-3.88,2.23,0.03,4.47
7.338,-3.99,2.39,0.49,4.67
7.348,-3.94,2.46,0.92,4.74
7.358,-3.72,2.5,1.31,4.67
7.368,-3.35,2.49,1.64,4.48
7.378,-2.85,2.44,1.95,4.22
7.388,-2.34,2.45,2.21,4.04
7.398,-1.85,2.57,2.42,3.99
7.408,-1.37,2.67,2.54,3.93
7.418,-1.04,2.79,2.59,3.94
7.428,-0.8,2.95,2.58,4
7.438,-0.56,3.14,2.62,4.13
7.448,-0.32,3.33,2.68,4.29
7.458,-0.18,3.56,2.64,4.43
7.468,-0.03,3.79,2.65,4.62
7.478,0.05,4.09,2.63,4.86
7.488,0.03,4.46,2.63,5.18
7.498,0.07,4.79,2.64,5.47
7.508,0.05,5.13,2.65,5.78
7.518,0.1,5.36,2.64,5.97
7.528,0.17,5.55,2.55,6.11
7.538,0.14,5.79,2.43,6.28
7.548,0.24,5.97,2.38,6.43
7.558,0.35,6.16,2.32,6.59
7.568,0.33,6.38,2.18,6.75
7.578,0.34,6.53,2.08,6.86
7.588,0.41,6.63,2,6.94
7.598,0.34,6.81,1.91,7.08
7.608,0.2,6.94,1.84,7.19
7.618,0.08,7.01,1.78,7.23
7.628,0.01,7.07,1.73,7.28
7.638,0.12,6.98,1.76,7.2
7.648,0.39,6.76,1.83,7.01
7.658,0.81,6.4,1.84,6.71
7.668,1.29,5.95,1.63,6.31
7.678,1.62,5.73,1.06,6.05
7.688,1.74,5.67,0.56,5.95
7.698,1.42,5.89,0.09,6.06
7.708,0.97,6.24,-0.18,6.32
7.718,0.69,6.44,-0.3,6.48
7.728,0.42,6.59,-0.44,6.62
7.738,0.08,6.78,-0.57,6.8
7.748,-0.14,6.79,-0.69,6.82
7.758,-0.12,6.48,-0.78,6.52
7.768,0.24,5.87,-0.82,5.93
7.778,0.63,5.18,-0.86,5.29
7.788,0.89,4.59,-0.88,4.76
7.798,0.78,4.22,-0.94,4.39
7.808,0.35,4.07,-0.98,4.2
7.818,-0.13,3.91,-0.96,4.03
7.828,-0.68,3.78,-0.91,3.95
7.838,-1.26,3.66,-0.87,3.96
7.848,-1.77,3.5,-0.88,4.02
7.858,-2.17,3.33,-0.91,4.08
7.867,-2.54,3.13,-0.89,4.13
7.878,-2.95,2.91,-0.96,4.26
7.887,-3.28,2.62,-1.04,4.33
7.898,-3.4,2.24,-1.09,4.22
7.907,-3.45,1.85,-1.08,4.06
7.917,-3.41,1.47,-0.91,3.83
7.927,-3.25,0.97,-0.65,3.45
7.937,-2.98,0.46,-0.41,3.04
7.947,-2.63,-0.09,-0.28,2.65
7.957,-2.36,-0.7,-0.27,2.48
7.967,-2.27,-0.95,-0.38,2.49
7.977,-2.15,-1.09,-0.28,2.43
7.987,-2.04,-1.55,-0.19,2.57
7.997,-1.97,-1.73,-0.22,2.63
8.007,-1.91,-1.97,-0.29,2.76
8.017,-1.85,-2.25,-0.35,2.94
8.027,-1.79,-2.54,-0.43,3.14
8.037,-1.85,-2.82,-0.46,3.4
8.047,-1.99,-3.04,-0.42,3.66
8.057,-2.09,-3.31,-0.31,3.93
8.067,-2.22,-3.58,-0.2,4.21
8.077,-2.34,-3.83,-0.06,4.49
8.087,-2.5,-4.04,0.13,4.75
8.097,-2.71,-4.22,0.37,5.02
8.107,-2.82,-4.46,0.57,5.31
8.117,-2.89,-4.72,0.74,5.59
8.127,-2.99,-4.98,0.87,5.87
8.137,-3.07,-5.24,0.98,6.15
8.147,-3.18,-5.47,1.07,6.41
8.157,-3.29,-5.67,1.19,6.66
8.167,-3.38,-5.85,1.27,6.87
8.177,-3.5,-5.94,1.3,7.02
8.187,-3.63,-5.96,1.3,7.1
8.197,-3.73,-5.93,1.29,7.12
8.207,-3.8,-5.88,1.24,7.11
8.217,-3.84,-5.84,1.22,7.09
8.227,-3.87,-5.8,1.23,7.08
8.237,-3.87,-5.71,1.28,7.02
8.247,-3.89,-5.57,1.35,6.92
8.257,-4.04,-5.32,1.34,6.81
8.267,-4.39,-5.04,1.15,6.78
8.277,-4.79,-4.79,0.97,6.84
8.287,-4.97,-4.63,0.9,6.85
8.297,-4.95,-4.45,0.93,6.72
8.307,-4.9,-4.19,1,6.52
8.317,-4.82,-3.92,1.08,6.3
8.327,-4.6,-3.73,1.12,6.03
8.337,-4.11,-3.67,1.18,5.63
8.347,-3.41,-3.65,1.28,5.16
8.357,-2.68,-3.66,1.34,4.73
8.367,-1.92,-3.67,1.35,4.36
8.377,-1.23,-3.65,1.29,4.07
8.387,-0.66,-3.57,1.15,3.81
8.397,-0.35,-3.39,0.95,3.54
8.407,-0.21,-3.11,0.72,3.2
8.417,-0.18,-2.77,0.49,2.81
8.427,-0.34,-2.35,0.24,2.39
8.437,-0.65,-1.88,-0.02,1.99
8.447,-1.18,-1.27,-0.22,1.75
8.457,-1.87,-0.57,-0.32,1.98
8.467,-2.55,0.13,-0.35,2.58
8.477,-3.24,0.72,-0.37,3.34
8.487,-3.95,1.23,-0.39,4.15
8.497,-4.44,1.63,-0.32,4.74
8.507,-4.7,1.92,-0.18,5.08
8.517,-4.71,2.11,0.09,5.17
8.527,-4.44,2.23,0.45,4.99
8.536,-4.04,2.35,0.78,4.74
8.546,-3.6,2.41,1.07,4.47
8.556,-3.25,2.37,1.21,4.2
8.566,-2.73,2.56,1.32,3.97
8.576,-2.03,2.91,1.6,3.89
8.586,-1.57,2.88,1.79,3.74
8.596,-1.33,2.98,1.83,3.74
8.606,-1.09,3.17,1.85,3.83
8.616,-0.79,3.37,1.91,3.95
8.626,-0.53,3.54,1.99,4.09
8.636,-0.35,3.75,2.05,4.29
8.646,-0.19,4.02,2.1,4.54
8.656,-0.12,4.33,2.07,4.8
8.666,-0.09,4.65,2.06,5.08
8.676,-0.02,4.92,2.09,5.35
8.686,0.03,5.2,2.16,5.63
8.696,0.18,5.4,2.22,5.84
8.706,0.3,5.59,2.21,6.02
8.716,0.22,5.92,2.11,6.29
8.726,0.31,6.17,2.1,6.53
8.736,0.55,6.33,2.12,6.7
8.746,0.64,6.56,2.09,6.91
8.756,0.71,6.75,2.03,7.09
8.766,0.8,6.94,2,7.26
8.776,0.74,7.11,1.98,7.42
8.786,0.59,7.21,1.94,7.49
8.796,0.54,7.28,2,7.56
8.806,0.74,7.16,2.16,7.52
8.816,1.01,6.98,2.29,7.41
8.826,1.07,6.97,2.19,7.38
8.836,1.17,6.96,2.03,7.34
8.846,1.39,6.81,1.81,7.19
8.856,1.6,6.71,1.47,7.05
8.866,1.61,6.74,1.06,7.01
8.876,1.24,7.04,0.67,7.18
8.886,0.66,7.45,0.43,7.49
8.896,0.22,7.71,0.31,7.72
8.906,-0.12,7.8,0.2,7.81
8.916,-0.55,7.85,0.06,7.87
8.926,-0.95,7.77,-0.1,7.82
8.936,-1,7.39,-0.11,7.46
8.946,-0.73,6.73,-0.14,6.77
8.956,-0.24,5.95,-0.2,5.96
8.966,0.31,5.02,-0.47,5.05
8.976,0.63,4.21,-0.88,4.35
8.986,0.73,3.7,-1.13,3.94
8.996,0.56,3.46,-1.14,3.69
9.006,0.15,3.38,-1.03,3.54
9.016,-0.31,3.29,-0.91,3.43
9.026,-0.94,3.25,-0.92,3.5
9.036,-1.63,3.16,-1.02,3.69
9.046,-2.25,3.03,-1.14,3.95
9.056,-2.88,2.94,-1.25,4.3
9.066,-3.45,2.86,-1.32,4.67
9.076,-3.91,2.7,-1.34,4.93
9.086,-4.11,2.38,-1.28,4.92
9.096,-4.1,1.95,-1.12,4.67
9.106,-3.95,1.45,-0.91,4.3
9.116,-3.68,0.9,-0.63,3.84
9.126,-3.37,0.31,-0.39,3.41
9.136,-3.01,-0.26,-0.16,3.03
9.146,-2.58,-0.82,0,2.71
9.156,-2.21,-1.32,0.05,2.57
9.166,-1.99,-1.7,0,2.62
9.176,-1.77,-2,0.01,2.67
9.186,-1.5,-2.29,-0.01,2.74
9.195,-1.33,-2.49,-0.19,2.83
9.206,-1.26,-2.66,-0.37,2.96
9.215,-1.13,-2.92,-0.58,3.18
9.225,-1.09,-3.18,-0.78,3.45
9.235,-1.12,-3.42,-0.86,3.7
9.245,-1.14,-3.68,-0.81,3.94
9.256,-1.21,-3.9,-0.66,4.14
9.265,-1.33,-4.11,-0.55,4.35
9.275,-1.5,-4.27,-0.47,4.55
9.285,-1.58,-4.43,-0.39,4.72
9.295,-1.72,-4.55,-0.24,4.87
9.305,-1.89,-4.66,-0.11,5.03
9.315,-2.03,-4.76,-0.04,5.17
9.325,-2.22,-4.85,-0.03,5.33
9.335,-2.38,-4.97,-0.03,5.51
9.345,-2.53,-5.07,-0.04,5.67
9.355,-2.64,-5.17,-0.05,5.81
9.365,-2.72,-5.25,-0.02,5.91
9.375,-2.83,-5.36,0.01,6.06
9.385,-2.88,-5.44,0.02,6.16
9.395,-2.9,-5.5,0.03,6.22
9.405,-2.94,-5.54,0,6.27
9.415,-2.98,-5.55,-0.03,6.3
9.425,-3.03,-5.5,-0.02,6.28
9.435,-3.07,-5.37,0.01,6.19
9.445,-3.1,-5.21,0.01,6.07
9.455,-3.19,-4.99,-0.02,5.92
9.465,-3.44,-4.69,-0.12,5.81
9.475,-3.79,-4.39,-0.29,5.81
9.485,-4.01,-4.18,-0.35,5.8
9.495,-4.01,-4.05,-0.26,5.7
9.505,-3.91,-3.9,-0.11,5.52
9.515,-3.83,-3.7,-0.02,5.33
9.525,-3.75,-3.5,0.02,5.13
9.535,-3.49,-3.4,0.07,4.87
9.545,-3,-3.38,0.17,4.52
9.555,-2.44,-3.37,0.27,4.18
9.565,-1.91,-3.33,0.34,3.85
9.575,-1.31,-3.3,0.4,3.57
9.585,-0.76,-3.21,0.42,3.32
9.595,-0.37,-3.02,0.39,3.07
9.605,-0.13,-2.73,0.29,2.75
9.615,-0.08,-2.34,0.15,2.35
9.625,-0.18,-1.92,-0.03,1.93
9.635,-0.44,-1.42,-0.23,1.5
9.645,-0.85,-0.88,-0.41,1.29
9.655,-1.38,-0.29,-0.56,1.52
9.665,-1.97,0.28,-0.67,2.1
9.675,-2.64,0.88,-0.73,2.88
9.685,-3.34,1.42,-0.66,3.68
9.695,-3.92,1.88,-0.49,4.38
9.705,-4.25,2.19,-0.26,4.78
9.715,-4.48,2.41,-0.07,5.08
9.725,-4.62,2.57,0.13,5.29
9.735,-4.5,2.66,0.47,5.24
9.745,-4.16,2.65,0.84,5
9.755,-3.75,2.63,1.2,4.73
9.765,-3.19,2.61,1.56,4.41
9.775,-2.59,2.62,1.83,4.12
9.785,-1.98,2.65,2.05,3.89
9.794,-1.43,2.67,2.17,3.72
9.805,-0.99,2.74,2.25,3.68
9.814,-0.61,2.82,2.32,3.71
9.825,-0.22,2.92,2.38,3.77
9.834,0.09,3.06,2.38,3.88
9.844,0.32,3.22,2.34,3.99
9.854,0.53,3.39,2.35,4.15
9.864,0.64,3.61,2.37,4.37
9.874,0.72,3.87,2.37,4.59
9.884,0.78,4.14,2.36,4.83
9.894,0.82,4.45,2.37,5.11
9.904,0.87,4.73,2.42,5.38
9.914,0.87,5,2.47,5.64
9.924,0.84,5.23,2.56,5.88
9.934,0.92,5.37,2.63,6.05
9.944,0.96,5.48,2.66,6.17
9.954,0.94,5.6,2.63,6.26
9.964,0.92,5.68,2.61,6.32
9.974,0.86,5.74,2.6,6.36
9.984,0.72,5.86,2.54,6.43
9.994,0.64,5.85,2.53,6.41
10.004,0.63,5.8,2.57,6.37
10.014,0.64,5.78,2.65,6.39
10.024,0.64,5.74,2.75,6.4
10.034,0.58,5.7,2.77,6.36
10.044,0.53,5.61,2.64,6.22
10.054,0.7,5.35,2.4,5.9
10.064,0.88,5.07,2.04,5.54
10.074,0.88,4.94,1.64,5.28
10.084,0.89,4.84,1.25,5.08
10.094,1.01,4.75,0.87,4.93
10.104,1,4.76,0.46,4.89
10.114,0.56,5.01,-0.01,5.04
10.124,-0.15,5.4,-0.33,5.41
10.134,-0.74,5.65,-0.49,5.72
10.144,-1.09,5.72,-0.57,5.85
10.154,-1.52,5.76,-0.67,5.99
10.164,-2.02,5.79,-0.81,6.18
10.174,-2.24,5.62,-0.85,6.11
10.184,-2.13,5.17,-0.89,5.66
10.194,-1.77,4.53,-0.92,4.95
10.204,-1.26,3.85,-0.87,4.14
10.214,-0.78,3.14,-0.8,3.33
10.224,-0.2,2.37,-0.69,2.48
10.234,0.42,1.64,-0.56,1.79
10.244,0.85,1.05,-0.46,1.43
10.254,0.87,0.7,-0.42,1.19
10.264,0.57,0.53,-0.49,0.92
10.274,0.07,0.47,-0.62,0.79
10.284,-0.5,0.46,-0.82,1.07
10.294,-1.23,0.48,-1.11,1.72
10.304,-1.98,0.52,-1.37,2.47
10.314,-2.62,0.54,-1.5,3.07
10.324,-3.18,0.52,-1.52,3.57
10.334,-3.74,0.5,-1.53,4.07
10.344,-4.11,0.4,-1.4,4.36
10.354,-4.27,0.29,-1.14,4.43
10.364,-4.17,0.05,-0.81,4.25
10.374,-3.76,-0.32,-0.56,3.82
10.384,-3.23,-0.72,-0.41,3.33
10.394,-2.64,-1.17,-0.3,2.91
10.404,-2.04,-1.62,-0.2,2.61
10.414,-1.53,-1.96,-0.14,2.49
10.424,-1.04,-2.17,-0.04,2.4
10.434,-0.75,-2.46,-0.02,2.57
10.444,-0.57,-2.66,-0.07,2.72
10.454,-0.33,-2.88,-0.1,2.9
10.463,-0.18,-3.06,-0.08,3.07
10.474,-0.12,-3.2,-0.08,3.2
10.483,-0.13,-3.33,-0.11,3.33
10.494,-0.21,-3.45,-0.17,3.46
10.503,-0.34,-3.56,-0.24,3.58
10.513,-0.59,-3.62,-0.21,3.68
10.523,-0.92,-3.71,-0.13,3.82
10.533,-1.28,-3.66,-0.05,3.88
10.543,-1.52,-3.68,0.07,3.98
10.553,-1.63,-3.76,0.17,4.1
10.563,-1.82,-3.81,0.23,4.23
10.573,-1.95,-3.91,0.3,4.38
10.583,-1.94,-4.05,0.39,4.5
10.593,-1.97,-4.15,0.46,4.62
10.603,-2.01,-4.25,0.51,4.73
10.613,-2.07,-4.32,0.53,4.82
10.623,-2.08,-4.42,0.54,4.91
10.633,-1.96,-4.57,0.55,5
10.643,-1.88,-4.66,0.51,5.05
10.653,-1.91,-4.71,0.43,5.1
10.663,-1.89,-4.73,0.41,5.11
10.673,-1.82,-4.74,0.4,5.09
10.683,-1.77,-4.67,0.33,5.01
10.693,-1.69,-4.6,0.27,4.9
10.703,-1.68,-4.47,0.22,4.78
10.713,-1.74,-4.3,0.21,4.64
10.723,-1.85,-4.09,0.21,4.49
10.733,-1.98,-3.85,0.22,4.33
10.743,-2.09,-3.62,0.24,4.19
10.753,-2.24,-3.34,0.21,4.03
10.763,-2.52,-2.99,0.16,3.91
10.773,-2.95,-2.53,0,3.89
10.783,-3.47,-2.08,-0.23,4.06
10.793,-3.84,-1.74,-0.46,4.24
10.803,-4,-1.53,-0.52,4.31
10.813,-3.92,-1.4,-0.4,4.18
10.823,-3.73,-1.28,-0.17,3.95
10.833,-3.57,-1.15,0.1,3.76
10.843,-3.37,-1,0.35,3.53
10.853,-3.08,-0.93,0.6,3.27
10.863,-2.83,-0.83,0.77,3.05
10.873,-2.55,-0.75,0.95,2.82
10.883,-2.26,-0.66,1.09,2.59
10.893,-1.97,-0.54,1.26,2.4
10.903,-1.67,-0.44,1.53,2.31
10.913,-1.4,-0.36,1.81,2.32
10.923,-1.14,-0.34,2.1,2.41
10.933,-0.92,-0.31,2.33,2.52
10.943,-0.73,-0.24,2.57,2.68
10.953,-0.6,-0.15,2.75,2.82
10.963,-0.6,-0.06,2.87,2.93
10.973,-0.71,0.15,2.96,3.05
10.983,-0.98,0.47,3.1,3.28
10.993,-1.43,0.81,3.34,3.73
11.002,-1.88,1.07,3.63,4.23
11.013,-2.2,1.3,3.88,4.64
11.023,-2.44,1.4,4.13,4.99
11.032,-2.65,1.48,4.27,5.24
11.043,-2.59,1.49,4.38,5.3
11.053,-2.37,1.42,4.46,5.25
11.063,-2.25,1.37,4.46,5.18
11.072,-2.16,1.31,4.46,5.12
11.082,-2.06,1.25,4.47,5.08
11.092,-2.01,1.21,4.51,5.08
11.103,-2.05,1.24,4.62,5.21
11.112,-2.08,1.28,4.78,5.37
11.122,-2.1,1.33,4.98,5.56
11.132,-2.01,1.35,5.16,5.7
11.142,-1.84,1.39,5.27,5.75
11.152,-1.63,1.43,5.28,5.7
11.162,-1.4,1.51,5.2,5.59
11.172,-1.18,1.55,5.06,5.42
11.182,-0.98,1.62,4.94,5.29
11.192,-0.86,1.79,4.83,5.22
11.202,-0.84,2.01,4.76,5.23
11.212,-0.8,2.23,4.75,5.31
11.222,-0.76,2.45,4.75,5.39
11.232,-0.75,2.67,4.71,5.47
11.242,-0.75,2.85,4.64,5.5
11.252,-0.69,2.99,4.54,5.48
11.262,-0.61,3.11,4.43,5.44
11.272,-0.59,3.21,4.27,5.37
11.282,-0.59,3.34,4.1,5.32
11.292,-0.57,3.43,3.92,5.23
11.302,-0.6,3.5,3.7,5.12
11.312,-0.63,3.57,3.54,5.06
11.322,-0.62,3.6,3.38,4.98
11.332,-0.59,3.59,3.22,4.86
11.342,-0.54,3.56,3.02,4.7
11.352,-0.45,3.52,2.81,4.52
11.362,-0.35,3.45,2.54,4.3
11.372,-0.29,3.39,2.26,4.08
11.382,-0.21,3.33,2.02,3.9
11.392,-0.18,3.3,1.76,3.74
11.402,-0.14,3.25,1.49,3.58
11.412,-0.06,3.16,1.19,3.38
11.422,0.04,3.08,0.89,3.21
11.432,0.12,2.99,0.55,3.04
11.442,0.25,2.88,0.22,2.9
11.452,0.35,2.81,-0.12,2.83
11.462,0.39,2.71,-0.45,2.77
11.472,0.39,2.65,-0.68,2.76
11.482,0.38,2.61,-0.83,2.77
11.492,0.21,2.63,-0.93,2.8
11.502,-0.03,2.73,-0.94,2.89
11.512,-0.32,2.75,-0.98,2.94
11.522,-0.81,2.88,-1.21,3.23
11.532,-1.14,2.96,-1.37,3.45
11.542,-1.26,2.95,-1.43,3.51
11.552,-1.44,2.99,-1.47,3.63
11.562,-1.49,2.95,-1.46,3.61
11.572,-1.36,2.84,-1.45,3.47
11.582,-1.14,2.62,-1.49,3.23
11.592,-0.73,2.17,-1.57,2.77
11.602,-0.3,1.68,-1.69,2.41
11.612,0.11,1.27,-1.71,2.13
11.622,0.51,0.88,-1.62,1.91
11.632,0.88,0.47,-1.5,1.8
11.642,1.18,0.11,-1.39,1.83
11.652,1.45,-0.23,-1.29,1.95
11.662,1.62,-0.47,-1.19,2.07
11.672,1.62,-0.6,-1.1,2.05
11.681,1.44,-0.62,-1.03,1.88
11.692,1.17,-0.51,-0.94,1.59
11.701,0.8,-0.34,-0.88,1.23
11.712,0.2,-0.1,-0.86,0.89
11.722,-0.46,0.09,-0.84,0.97
11.731,-1.06,0.28,-0.84,1.38
11.742,-1.57,0.39,-0.83,1.81
11.752,-1.95,0.35,-0.84,2.15
11.761,-2.23,0.29,-0.82,2.39
11.771,-2.32,0.08,-0.78,2.44
11.781,-2.29,-0.24,-0.72,2.42
11.791,-2.19,-0.59,-0.69,2.37
11.801,-1.97,-0.95,-0.59,2.27
11.811,-1.64,-1.36,-0.45,2.18
11.821,-1.36,-1.73,-0.37,2.23
11.831,-1.09,-2.08,-0.32,2.37
11.841,-0.83,-2.42,-0.33,2.58
11.851,-0.6,-2.7,-0.39,2.8
11.861,-0.48,-2.9,-0.44,2.97
11.871,-0.45,-2.99,-0.47,3.05
11.881,-0.48,-3.01,-0.41,3.08
11.891,-0.55,-3.01,-0.39,3.08
11.901,-0.6,-3.01,-0.36,3.09
11.911,-0.67,-3.02,-0.35,3.11
11.921,-0.81,-3.01,-0.32,3.13
11.931,-0.92,-3.03,-0.29,3.18
11.941,-1.07,-3.02,-0.25,3.22
11.951,-1.24,-3.03,-0.19,3.28
11.961,-1.35,-3.03,-0.12,3.32
11.971,-1.42,-3.08,-0.04,3.4
11.981,-1.47,-3.17,0.05,3.49
11.991,-1.51,-3.26,0.14,3.6
12.001,-1.52,-3.38,0.22,3.71
12.011,-1.45,-3.51,0.27,3.81
12.021,-1.46,-3.61,0.29,3.9
12.031,-1.49,-3.69,0.33,3.99
12.041,-1.5,-3.77,0.34,4.07
12.051,-1.5,-3.85,0.36,4.15
12.061,-1.53,-3.89,0.4,4.2
12.071,-1.6,-3.89,0.45,4.23
12.081,-1.67,-3.88,0.5,4.25
12.091,-1.76,-3.85,0.53,4.26
12.101,-1.81,-3.8,0.61,4.26
12.111,-1.89,-3.7,0.67,4.21
12.121,-2.12,-3.48,0.74,4.14
12.131,-2.44,-3.17,0.86,4.09
12.141,-2.72,-2.87,1.01,4.08
12.151,-2.84,-2.65,1.1,4.04
12.161,-2.8,-2.58,1.06,3.95
12.171,-2.65,-2.58,0.96,3.82
12.181,-2.47,-2.6,0.89,3.7
12.191,-2.42,-2.56,0.89,3.64
12.201,-2.41,-2.49,0.97,3.59
12.211,-2.37,-2.43,1.05,3.56
12.221,-2.36,-2.43,1.05,3.55
12.231,-2.37,-2.46,1.06,3.58
12.241,-2.42,-2.4,1.11,3.59
12.251,-2.51,-2.32,1.16,3.61
12.261,-2.54,-2.24,1.25,3.61
12.271,-2.46,-2.18,1.39,3.57
12.281,-2.43,-2.08,1.55,3.55
12.291,-2.45,-1.95,1.73,3.57
12.301,-2.51,-1.84,2.01,3.7
12.311,-2.55,-1.71,2.35,3.87
12.321,-2.45,-1.62,2.75,4.02
12.33,-2.39,-1.52,3.19,4.26
12.341,-2.53,-1.35,3.53,4.55
12.35,-2.8,-1.21,3.74,4.83
12.361,-3.09,-1.18,3.9,5.12
12.371,-3.32,-1.18,4.1,5.41
12.38,-3.37,-1.23,4.37,5.66
12.39,-3.32,-1.29,4.61,5.82
12.4,-3.28,-1.37,4.82,5.99
12.41,-3.15,-1.5,5.03,6.12
12.421,-2.93,-1.6,5.17,6.16
12.43,-2.69,-1.68,5.32,6.19
12.44,-2.49,-1.77,5.37,6.17
12.45,-2.41,-1.77,5.35,6.13
12.46,-2.37,-1.72,5.35,6.09
12.47,-2.55,-1.53,5.33,6.1
12.48,-2.93,-1.23,5.42,6.28
12.49,-3.12,-0.97,5.49,6.39
12.5,-3.23,-0.74,5.48,6.4
12.51,-3.34,-0.55,5.38,6.36
12.52,-3.39,-0.4,5.26,6.27
12.53,-3.32,-0.33,5.13,6.12
12.54,-3.21,-0.28,4.93,5.89
12.55,-3.33,-0.11,4.69,5.75
12.56,-3.58,0.09,4.6,5.83
12.57,-3.5,0.15,4.56,5.75
12.58,-3.13,0.11,4.52,5.5
12.59,-2.88,0.13,4.44,5.3
12.6,-2.67,0.2,4.38,5.14
12.61,-2.34,0.2,4.31,4.91
12.62,-2.03,0.22,4.2,4.67
12.63,-1.85,0.31,4.1,4.51
12.64,-1.77,0.43,4.02,4.42
12.65,-1.7,0.61,4,4.39
12.66,-1.68,0.85,3.96,4.38
12.67,-1.67,1.09,3.86,4.34
12.68,-1.64,1.32,3.68,4.24
12.69,-1.63,1.55,3.46,4.12
12.7,-1.55,1.73,3.23,3.98
12.71,-1.44,1.89,3.08,3.89
12.72,-1.36,2.05,2.98,3.87
12.73,-1.27,2.24,2.95,3.92
12.74,-1.15,2.4,2.92,3.95
12.75,-1.04,2.55,2.88,3.99
12.76,-0.93,2.73,2.84,4.04
12.77,-0.83,2.9,2.76,4.09
12.78,-0.65,3.01,2.7,4.1
12.79,-0.46,3.13,2.6,4.1
12.8,-0.23,3.22,2.48,4.07
12.81,0.06,3.31,2.3,4.03
12.82,0.31,3.39,2.06,3.98
12.83,0.55,3.47,1.81,3.95
12.84,0.73,3.58,1.61,3.99
12.85,0.93,3.63,1.42,4.01
12.86,1.1,3.7,1.28,4.07
12.87,1.24,3.8,1.24,4.18
12.88,1.35,3.89,1.23,4.3
12.89,1.45,3.94,1.19,4.36
12.9,1.49,3.96,1.11,4.37
12.91,1.54,3.97,1.04,4.38
12.92,1.54,3.97,0.96,4.37
12.93,1.53,3.93,0.84,4.3
12.94,1.58,3.81,0.67,4.18
12.95,1.64,3.68,0.48,4.05
12.96,1.75,3.49,0.3,3.91
12.97,1.88,3.29,0.15,3.79
12.979,1.99,3.07,-0.02,3.66
12.99,1.96,2.94,-0.26,3.54
13,1.68,2.96,-0.44,3.43
13.009,1.02,3.2,-0.54,3.4
13.02,0.1,3.54,-0.55,3.58
13.03,-0.81,3.88,-0.44,3.99
13.039,-1.58,4.06,-0.29,4.37
13.05,-2.21,4.08,-0.2,4.64
13.059,-2.62,3.92,-0.23,4.72
13.069,-2.73,3.6,-0.3,4.53
13.079,-2.59,3.1,-0.46,4.06
13.089,-2.39,2.52,-0.69,3.55
13.099,-2.13,1.95,-0.89,3.02
13.109,-1.76,1.35,-0.97,2.42
13.119,-1.42,0.8,-0.97,1.9
13.129,-1.13,0.34,-0.88,1.47
13.139,-0.87,-0.09,-0.83,1.21
13.149,-0.65,-0.5,-0.85,1.18
13.159,-0.48,-0.78,-0.83,1.24
13.169,-0.42,-0.95,-0.85,1.35
13.179,-0.59,-1,-0.96,1.5
13.189,-0.95,-0.86,-1.1,1.69
13.199,-1.34,-0.65,-1.22,1.92
13.209,-1.66,-0.46,-1.26,2.14
13.219,-1.94,-0.32,-1.34,2.38
13.229,-2.15,-0.3,-1.43,2.6
13.239,-2.27,-0.37,-1.49,2.74
13.249,-2.4,-0.42,-1.51,2.87
13.259,-2.34,-0.58,-1.49,2.83
13.269,-2.06,-0.92,-1.55,2.74
13.279,-1.77,-1.29,-1.62,2.73
13.289,-1.36,-1.74,-1.61,2.73
13.299,-1,-2.14,-1.66,2.88
13.309,-0.76,-2.46,-1.7,3.09
13.319,-0.51,-2.79,-1.76,3.34
13.329,-0.31,-3.1,-1.81,3.6
13.339,-0.14,-3.41,-1.88,3.9
13.349,-0.04,-3.69,-1.94,4.17
13.359,0.01,-3.98,-1.98,4.44
13.369,-0.01,-4.23,-1.99,4.68
13.379,-0.19,-4.42,-1.98,4.85
13.389,-0.5,-4.6,-1.94,5.02
13.399,-0.73,-4.77,-1.83,5.16
13.409,-0.96,-4.88,-1.68,5.25
13.419,-1.17,-4.93,-1.5,5.28
13.429,-1.31,-4.99,-1.33,5.32
13.439,-1.42,-5.02,-1.21,5.36
13.449,-1.47,-5.04,-1.12,5.37
13.459,-1.58,-4.99,-1.08,5.34
13.469,-1.68,-4.93,-1.02,5.31
13.479,-1.77,-4.86,-0.99,5.26
13.489,-1.9,-4.74,-0.94,5.19
13.499,-1.98,-4.64,-0.86,5.11
13.509,-1.99,-4.55,-0.79,5.03
13.519,-1.97,-4.49,-0.72,4.95
13.529,-1.93,-4.43,-0.64,4.88
13.539,-1.89,-4.35,-0.59,4.78
13.549,-1.83,-4.28,-0.53,4.69
13.559,-1.74,-4.19,-0.48,4.56
13.569,-1.67,-4.08,-0.45,4.43
13.579,-1.65,-3.94,-0.46,4.3
13.589,-1.67,-3.75,-0.46,4.13
13.599,-1.74,-3.57,-0.46,3.99
13.609,-1.81,-3.38,-0.47,3.87
13.619,-1.84,-3.23,-0.46,3.75
13.628,-1.85,-3.11,-0.43,3.64
13.639,-1.83,-3.04,-0.38,3.57
13.648,-1.83,-2.98,-0.31,3.51
13.658,-1.83,-2.93,-0.22,3.47
13.669,-1.85,-2.85,-0.16,3.4
13.678,-2.01,-2.69,-0.23,3.37
13.689,-2.36,-2.46,-0.42,3.43
13.698,-2.61,-2.28,-0.56,3.52
13.708,-2.66,-2.21,-0.59,3.51
13.719,-2.69,-2.14,-0.59,3.49
13.728,-2.87,-2.04,-0.62,3.57
13.738,-2.99,-1.92,-0.61,3.61
13.748,-2.97,-1.86,-0.53,3.54
13.758,-2.86,-1.86,-0.39,3.43
13.768,-2.65,-1.69,-0.01,3.14
13.778,-2.41,-1.54,0.34,2.88
13.788,-2.22,-1.45,0.47,2.69
13.798,-1.96,-1.32,0.47,2.41
13.808,-1.75,-1.11,0.4,2.11
13.818,-1.63,-0.8,0.36,1.85
13.828,-1.58,-0.41,0.36,1.67
13.838,-1.59,0.03,0.4,1.64
13.848,-1.65,0.48,0.41,1.77
13.858,-1.76,0.96,0.42,2.05
13.868,-1.85,1.39,0.42,2.36
13.878,-1.94,1.82,0.45,2.7
13.888,-2.03,2.24,0.43,3.05
13.898,-2,2.56,0.4,3.28
13.908,-1.9,2.82,0.37,3.42
13.918,-1.7,3.01,0.36,3.47
13.928,-1.4,3.11,0.4,3.43
13.938,-1.04,3.23,0.46,3.43
13.948,-0.68,3.31,0.49,3.42
13.958,-0.34,3.22,0.5,3.28
13.968,0.03,3.21,0.49,3.25
13.978,0.4,3.32,0.49,3.38
13.988,0.69,3.29,0.44,3.39
13.998,0.82,3.14,0.36,3.26
14.008,0.88,3.21,0.35,3.35
14.018,0.97,3.3,0.33,3.46
14.028,1.04,3.38,0.34,3.55
14.038,1.03,3.46,0.34,3.62
14.048,1.01,3.6,0.38,3.76
14.058,1.1,3.67,0.42,3.86
14.068,1.22,3.75,0.44,3.97
14.078,1.28,3.88,0.51,4.12
14.088,1.33,3.99,0.59,4.25
14.098,1.42,4.08,0.68,4.37
14.108,1.51,4.16,0.76,4.49
14.118,1.59,4.21,0.8,4.57
14.128,1.68,4.25,0.78,4.64
14.138,1.71,4.31,0.74,4.69
14.148,1.73,4.35,0.67,4.73
14.158,1.71,4.39,0.61,4.75
14.168,1.66,4.43,0.57,4.77
14.178,1.59,4.46,0.51,4.76
14.188,1.53,4.46,0.46,4.74
14.198,1.44,4.47,0.42,4.71
14.208,1.38,4.46,0.4,4.69
14.218,1.36,4.41,0.36,4.63
14.228,1.34,4.35,0.29,4.56
14.238,1.32,4.28,0.18,4.48
14.248,1.28,4.22,0.09,4.41
14.258,1.2,4.17,-0.03,4.34
14.267,1.02,4.13,-0.16,4.26
14.277,0.77,4.1,-0.28,4.18
14.288,0.5,4.07,-0.35,4.12
14.297,0.26,4.01,-0.4,4.03
14.308,-0.02,3.92,-0.41,3.94
14.317,-0.28,3.79,-0.42,3.83
14.327,-0.46,3.63,-0.44,3.68
14.337,-0.65,3.46,-0.43,3.54
14.347,-0.96,3.33,-0.42,3.49
14.357,-1.61,3.37,-0.47,3.77
14.368,-2.46,3.48,-0.44,4.28
14.377,-3.13,3.51,-0.24,4.71
14.387,-3.53,3.38,0.03,4.89
14.397,-3.79,3.18,0.26,4.96
14.407,-4.03,2.93,0.36,4.99
14.417,-3.92,2.48,0.46,4.66
14.427,-3.33,1.77,0.66,3.82
14.437,-2.54,0.99,0.85,2.86
14.447,-1.73,0.26,0.95,1.99
14.457,-1.08,-0.36,0.99,1.51
14.467,-0.52,-0.91,1,1.44
14.477,-0.04,-1.29,0.95,1.6
14.487,0.18,-1.48,0.83,1.7
14.497,0.18,-1.52,0.64,1.66
14.507,0.06,-1.49,0.44,1.55
14.517,-0.19,-1.39,0.21,1.42
14.527,-0.48,-1.31,0.02,1.4
14.537,-0.85,-1.2,-0.11,1.48
14.547,-1.33,-1.07,-0.19,1.72
14.557,-1.87,-0.97,-0.23,2.12
14.567,-2.36,-0.83,-0.13,2.5
14.577,-2.78,-0.74,0.05,2.87
14.587,-3.03,-0.85,0.25,3.15
14.597,-3.09,-1.04,0.45,3.29
14.607,-3.02,-1.19,0.6,3.31
14.617,-2.88,-1.42,0.71,3.29
14.627,-2.6,-1.73,0.82,3.23
14.637,-2.22,-2.03,0.88,3.14
14.647,-1.82,-2.38,0.88,3.12
14.657,-1.49,-2.71,0.78,3.19
14.667,-1.11,-3.02,0.68,3.29
14.677,-0.82,-3.25,0.58,3.4
14.687,-0.72,-3.41,0.44,3.51
14.697,-0.65,-3.57,0.35,3.64
14.707,-0.58,-3.71,0.27,3.77
14.717,-0.53,-3.85,0.12,3.88
14.727,-0.5,-4,-0.01,4.03
14.737,-0.54,-4.11,-0.08,4.15
14.747,-0.61,-4.18,-0.07,4.23
14.757,-0.69,-4.21,-0.05,4.27
14.767,-0.79,-4.18,-0.02,4.25
14.777,-0.9,-4.15,0.05,4.24
14.787,-1.06,-4.08,0.12,4.22
14.797,-1.3,-4.06,0.19,4.27
14.807,-1.53,-4.04,0.2,4.32
14.817,-1.72,-4.02,0.21,4.38
14.827,-1.87,-4.01,0.25,4.43
14.837,-1.95,-4.05,0.26,4.5
14.847,-1.96,-4.14,0.24,4.59
14.857,-2.02,-4.2,0.15,4.66
14.867,-2.07,-4.25,0.03,4.73
14.877,-2.14,-4.24,-0.08,4.75
14.887,-2.2,-4.23,-0.18,4.77
14.897,-2.26,-4.23,-0.33,4.8
14.907,-2.28,-4.22,-0.43,4.81
14.916,-2.26,-4.21,-0.52,4.81
14.926,-2.17,-4.24,-0.61,4.8
14.937,-2.07,-4.22,-0.68,4.75
14.946,-1.97,-4.17,-0.67,4.66
14.956,-1.84,-4.15,-0.63,4.59
14.966,-1.71,-4.11,-0.6,4.5
14.976,-1.76,-3.92,-0.67,4.35
14.986,-2.05,-3.62,-0.85,4.24
14.996,-2.42,-3.31,-1.07,4.23
15.006,-2.69,-3.07,-1.17,4.25
15.016,-2.84,-2.92,-1.15,4.23
15.026,-3.04,-2.75,-1.09,4.24
15.036,-3.32,-2.53,-1.05,4.3
15.046,-3.45,-2.38,-0.97,4.3
15.056,-3.32,-2.36,-0.77,4.14
15.066,-2.89,-2.47,-0.47,3.83
15.076,-2.35,-2.58,-0.22,3.5
15.086,-1.88,-2.53,-0.05,3.15
15.096,-1.49,-2.37,0.09,2.8
15.106,-1.26,-2.19,0.17,2.53
15.116,-1.2,-1.88,0.19,2.25
15.126,-1.23,-1.57,0.21,2.01
15.136,-1.36,-1.22,0.22,1.84
15.146,-1.57,-0.84,0.19,1.79
15.156,-1.82,-0.48,0.18,1.89
15.166,-2.1,-0.11,0.21,2.11
15.176,-2.37,0.22,0.28,2.4
15.186,-2.67,0.6,0.34,2.76
15.196,-2.84,0.94,0.45,3.03
15.206,-2.87,1.21,0.6,3.17
15.216,-2.81,1.42,0.76,3.24
15.226,-2.69,1.59,0.96,3.27
15.236,-2.45,1.7,1.19,3.21
15.246,-2.18,1.82,1.39,3.16
15.256,-1.85,1.91,1.59,3.1
15.266,-1.51,1.98,1.76,3.05
15.276,-1.13,1.99,1.85,2.94
15.286,-0.82,2.03,1.87,2.88
15.296,-0.57,2.09,1.86,2.85
15.306,-0.34,2.2,1.85,2.9
15.316,-0.12,2.27,1.85,2.92
15.326,0.06,2.37,1.88,3.02
15.336,0.18,2.51,1.89,3.14
15.346,0.28,2.62,1.89,3.25
15.356,0.4,2.76,1.84,3.34
15.366,0.51,2.9,1.79,3.44
15.376,0.61,3.06,1.75,3.58
15.386,0.67,3.26,1.8,3.79
15.396,0.73,3.44,1.87,3.99
15.406,0.85,3.59,1.97,4.18
15.416,0.91,3.73,2.01,4.34
15.426,0.98,3.86,1.95,4.44
15.436,1.05,3.93,1.86,4.48
15.446,1.13,3.99,1.78,4.52
15.456,1.16,4.06,1.63,4.53
15.466,1.17,4.16,1.54,4.59
15.476,1.15,4.26,1.54,4.68
15.486,1.12,4.27,1.48,4.66
15.496,1.05,4.28,1.35,4.61
15.506,1,4.27,1.16,4.54
15.516,0.95,4.27,0.96,4.47
15.526,0.92,4.21,0.8,4.38
15.536,0.86,4.17,0.68,4.31
15.545,0.82,4.13,0.58,4.25
15.556,0.78,4.05,0.46,4.15
15.566,0.74,3.96,0.37,4.04
15.575,0.76,3.84,0.27,3.92
15.586,0.83,3.67,0.1,3.76
15.596,0.96,3.45,-0.09,3.58
15.605,1.15,3.2,-0.29,3.41
15.615,1.34,2.96,-0.52,3.29
15.625,1.42,2.81,-0.79,3.24
15.635,1.4,2.68,-1.04,3.19
15.645,1.1,2.72,-1.21,3.18
15.655,0.42,2.97,-1.25,3.25
15.665,-0.32,3.24,-1.15,3.45
15.675,-0.76,3.33,-0.97,3.56
15.685,-1.02,3.32,-0.85,3.57
15.695,-1.28,3.32,-0.79,3.64
15.705,-1.49,3.26,-0.74,3.65
15.715,-1.54,3.21,-0.57,3.6
15.725,-1.57,3.09,-0.48,3.5
15.735,-1.45,2.86,-0.38,3.23
15.745,-1.17,2.52,-0.25,2.79
15.755,-0.8,2.15,-0.15,2.3
15.765,-0.41,1.82,-0.06,1.86
15.775,-0.02,1.41,0.04,1.42
15.785,0.2,1.08,0.08,1.1
15.795,0.27,0.84,0.11,0.89
15.805,0.2,0.69,0.11,0.73
15.815,-0.08,0.64,0.05,0.65
15.825,-0.38,0.63,0.01,0.74
15.835,-0.65,0.59,-0.05,0.88
15.845,-0.93,0.59,-0.16,1.11
15.855,-1.14,0.55,-0.3,1.3
15.865,-1.31,0.51,-0.4,1.47
15.875,-1.5,0.51,-0.46,1.65
15.885,-1.64,0.47,-0.43,1.76
15.895,-1.67,0.4,-0.4,1.76
15.905,-1.71,0.36,-0.42,1.8
15.915,-1.68,0.29,-0.31,1.73
15.925,-1.45,0.06,-0.15,1.46
15.935,-1.2,-0.17,-0.08,1.22
15.945,-0.97,-0.41,-0.06,1.06
15.955,-0.75,-0.68,-0.03,1.01
15.965,-0.54,-0.94,-0.01,1.08
15.975,-0.48,-1.11,-0.06,1.21
15.985,-0.49,-1.21,-0.08,1.3
15.995,-0.45,-1.3,-0.09,1.38
16.005,-0.45,-1.4,-0.15,1.48
16.015,-0.42,-1.52,-0.19,1.59
16.025,-0.4,-1.63,-0.28,1.7
16.035,-0.45,-1.75,-0.36,1.85
16.045,-0.5,-1.86,-0.42,1.97
16.055,-0.52,-1.98,-0.43,2.09
16.065,-0.6,-2.1,-0.41,2.22
16.075,-0.65,-2.23,-0.39,2.35
16.085,-0.66,-2.35,-0.35,2.47
16.095,-0.74,-2.47,-0.34,2.6
16.105,-0.85,-2.56,-0.3,2.71
16.115,-0.96,-2.68,-0.26,2.86
16.125,-1.08,-2.82,-0.27,3.03
16.135,-1.24,-2.97,-0.33,3.23
16.145,-1.37,-3.11,-0.41,3.43
16.155,-1.4,-3.29,-0.46,3.6
16.165,-1.4,-3.46,-0.5,3.77
16.175,-1.47,-3.57,-0.56,3.9
16.185,-1.57,-3.69,-0.62,4.05
16.195,-1.6,-3.78,-0.63,4.15
16.205,-1.59,-3.89,-0.62,4.25
16.214,-1.63,-3.94,-0.62,4.31
16.224,-1.59,-4.01,-0.61,4.35
16.235,-1.57,-4.07,-0.6,4.4
16.244,-1.55,-4.08,-0.61,4.4
16.254,-1.54,-4.07,-0.61,4.39
16.264,-1.51,-4.08,-0.59,4.39
16.274,-1.55,-4.06,-0.58,4.38
16.284,-1.67,-3.98,-0.55,4.35
16.294,-1.73,-3.95,-0.49,4.34
16.304,-1.79,-3.91,-0.44,4.32
16.314,-1.87,-3.85,-0.42,4.31
16.324,-1.95,-3.81,-0.41,4.3
16.334,-1.96,-3.77,-0.37,4.27
16.344,-1.92,-3.72,-0.31,4.2
16.354,-1.85,-3.64,-0.22,4.1
16.364,-1.81,-3.52,-0.17,3.96
16.374,-1.89,-3.33,-0.21,3.83
16.384,-2.1,-3.09,-0.32,3.75
16.394,-2.29,-2.89,-0.42,3.71
16.404,-2.46,-2.75,-0.49,3.72
16.414,-2.75,-2.65,-0.59,3.87
16.424,-3.12,-2.48,-0.66,4.04
16.434,-3.39,-2.32,-0.67,4.17
16.444,-3.43,-2.33,-0.59,4.19
16.454,-3.27,-2.45,-0.45,4.12
16.464,-3.03,-2.53,-0.26,3.96
16.474,-2.65,-2.61,-0.01,3.72
16.484,-2.16,-2.62,0.23,3.4
16.494,-1.69,-2.53,0.37,3.06
16.504,-1.28,-2.41,0.47,2.77
16.514,-0.96,-2.22,0.49,2.47
16.524,-0.78,-1.94,0.48,2.15
16.534,-0.79,-1.6,0.36,1.82
16.544,-0.96,-1.23,0.18,1.57
16.554,-1.09,-0.85,0.09,1.39
16.564,-1.19,-0.46,0.08,1.28
16.574,-1.29,-0.08,0.12,1.3
16.584,-1.39,0.31,0.1,1.42
16.594,-1.49,0.66,0.06,1.63
16.604,-1.49,0.92,0.01,1.75
16.614,-1.38,1.12,0.02,1.78
16.624,-1.36,1.31,0.04,1.89
16.634,-1.38,1.4,0.08,1.97
16.644,-1.46,1.47,0.14,2.08
16.654,-1.44,1.55,0.31,2.13
16.664,-1.26,1.58,0.55,2.1
16.674,-1.06,1.61,0.71,2.06
16.684,-0.86,1.61,0.88,2.02
16.694,-0.65,1.57,0.96,1.95
16.704,-0.42,1.51,0.98,1.84
16.714,-0.23,1.47,0.94,1.76
16.724,-0.2,1.48,0.85,1.72
16.734,-0.13,1.49,0.83,1.7
16.744,-0.02,1.55,0.91,1.8
16.754,0.03,1.74,1,2.01
16.764,0.09,1.98,1.07,2.26
16.774,0.14,2.15,1.12,2.43
16.784,0.19,2.31,1.12,2.57
16.794,0.26,2.5,1.12,2.75
16.803,0.35,2.65,1.15,2.91
16.813,0.45,2.81,1.18,3.08
16.824,0.49,2.98,1.17,3.24
16.834,0.55,3.1,1.19,3.36
16.843,0.61,3.21,1.2,3.48
16.853,0.64,3.36,1.23,3.63
16.863,0.73,3.48,1.27,3.77
16.873,0.85,3.53,1.28,3.85
16.883,0.94,3.58,1.2,3.89
16.893,1,3.64,1.13,3.94
16.903,1.03,3.69,1.06,3.97
16.913,1.06,3.74,1,4.01
16.923,1.08,3.76,0.98,4.04
16.933,1.09,3.78,0.94,4.04
16.943,1.14,3.72,0.91,4
16.953,1.16,3.69,0.83,3.96
16.963,1.09,3.72,0.71,3.94
16.973,0.99,3.73,0.59,3.9
16.983,0.97,3.7,0.49,3.85
16.993,0.97,3.63,0.39,3.78
17.003,0.99,3.59,0.31,3.73
17.013,0.97,3.54,0.21,3.68
17.023,0.95,3.5,0.1,3.62
17.033,0.93,3.43,0,3.55
17.043,0.89,3.34,-0.13,3.46
17.053,0.84,3.27,-0.21,3.38
17.063,0.75,3.18,-0.29,3.28
17.073,0.51,3.16,-0.41,3.23
17.083,-0.04,3.31,-0.55,3.35
17.093,-0.73,3.56,-0.61,3.69
17.103,-1.12,3.65,-0.54,3.86
17.113,-1.22,3.6,-0.41,3.82
17.123,-1.23,3.44,-0.36,3.67
17.133,-1.25,3.27,-0.39,3.53
17.143,-1.23,3.08,-0.4,3.34
17.153,-1.14,2.78,-0.38,3.02
17.163,-0.92,2.47,-0.25,2.65
17.173,-0.61,2.14,-0.12,2.23
17.183,-0.19,1.69,0.02,1.7
17.193,0.27,1.22,0.08,1.26
17.203,0.63,0.81,0.01,1.03
17.213,0.96,0.48,-0.05,1.07
17.223,1.22,0.23,-0.07,1.24
17.233,1.38,0.04,-0.08,1.39
17.243,1.42,-0.04,-0.07,1.43
17.253,1.23,0.02,-0.08,1.23
17.263,0.87,0.15,-0.15,0.89
17.273,0.34,0.38,-0.28,0.58
17.283,-0.23,0.66,-0.32,0.77
17.293,-0.73,0.86,-0.36,1.19
17.303,-1.21,1.07,-0.37,1.65
17.313,-1.71,1.25,-0.34,2.15
17.323,-2.14,1.29,-0.29,2.52
17.333,-2.36,1.21,-0.23,2.66
17.343,-2.46,1.11,-0.17,2.71
17.353,-2.49,0.92,-0.15,2.66
17.363,-2.4,0.68,-0.15,2.49
17.373,-2.16,0.36,-0.1,2.19
17.383,-1.86,0,-0.06,1.86
17.393,-1.49,-0.35,0.02,1.53
17.403,-1.11,-0.67,0.1,1.31
17.413,-0.77,-0.99,0.11,1.26
17.423,-0.5,-1.23,0.05,1.33
17.433,-0.29,-1.39,-0.01,1.42
17.443,-0.11,-1.51,-0.02,1.52
17.453,0.01,-1.58,-0.02,1.58
17.463,0.07,-1.63,-0.04,1.64
17.473,0.06,-1.67,-0.12,1.68
17.483,0.05,-1.7,-0.19,1.71
17.492,0.03,-1.68,-0.16,1.69
17.503,-0.08,-1.6,-0.04,1.6
17.512,-0.3,-1.48,0.03,1.51
17.522,-0.54,-1.37,0.05,1.48
17.532,-0.73,-1.28,0.09,1.47
17.542,-0.91,-1.22,0.19,1.54
17.552,-1.05,-1.21,0.3,1.63
17.562,-1.17,-1.28,0.4,1.78
17.572,-1.32,-1.4,0.39,1.96
17.582,-1.44,-1.52,0.36,2.12
17.592,-1.47,-1.67,0.38,2.26
17.602,-1.49,-1.85,0.37,2.41
17.612,-1.59,-2.03,0.34,2.6
17.622,-1.68,-2.24,0.27,2.81
17.632,-1.74,-2.46,0.22,3.02
17.642,-1.74,-2.65,0.22,3.18
17.652,-1.7,-2.83,0.25,3.31
17.662,-1.68,-3.01,0.21,3.45
17.672,-1.64,-3.23,0.14,3.62
17.682,-1.68,-3.37,0.04,3.76
17.692,-1.71,-3.47,0,3.87
17.702,-1.7,-3.54,0.03,3.93
17.712,-1.65,-3.61,0.1,3.97
17.722,-1.63,-3.65,0.14,4
17.732,-1.68,-3.7,0.15,4.06
17.742,-1.71,-3.75,0.15,4.12
17.752,-1.8,-3.78,0.15,4.19
17.762,-1.9,-3.82,0.12,4.26
17.772,-1.86,-3.9,0.15,4.33
17.782,-1.79,-4.03,0.16,4.41
17.792,-1.82,-4.09,0.11,4.48
17.802,-1.82,-4.21,0.06,4.58
17.812,-1.83,-4.28,-0.02,4.66
17.822,-1.8,-4.31,-0.06,4.68
17.832,-1.85,-4.27,-0.14,4.66
17.842,-2.04,-4.14,-0.3,4.62
17.852,-2.19,-4.04,-0.5,4.62
17.862,-2.35,-3.93,-0.68,4.63
17.872,-2.54,-3.8,-0.79,4.64
17.882,-2.78,-3.6,-0.87,4.63
17.892,-3,-3.41,-0.89,4.63
17.902,-3.1,-3.27,-0.91,4.6
17.912,-3.08,-3.19,-0.88,4.52
17.922,-3.04,-3.04,-0.88,4.39
17.932,-2.9,-2.95,-0.82,4.21
17.942,-2.62,-2.86,-0.75,3.95
17.952,-2.26,-2.78,-0.63,3.64
17.962,-1.86,-2.71,-0.49,3.33
17.972,-1.48,-2.63,-0.4,3.05
17.982,-1.23,-2.46,-0.37,2.77
17.992,-1.04,-2.23,-0.35,2.49
18.002,-0.88,-1.96,-0.35,2.18
18.012,-0.76,-1.66,-0.4,1.87
18.022,-0.68,-1.37,-0.44,1.59
18.032,-0.59,-1.1,-0.43,1.32
18.042,-0.49,-0.86,-0.35,1.05
18.052,-0.5,-0.62,-0.23,0.83
18.062,-0.65,-0.38,-0.12,0.76
18.072,-0.88,-0.17,0.01,0.89
18.081,-1.15,0.01,0.21,1.17
18.092,-1.41,0.24,0.43,1.49
18.102,-1.59,0.46,0.7,1.8
18.112,-1.67,0.61,0.99,2.04
18.122,-1.7,0.69,1.27,2.23
18.132,-1.75,0.77,1.46,2.4
18.141,-1.87,0.86,1.63,2.63
18.151,-1.94,0.89,1.84,2.81
18.162,-1.84,0.89,2.1,2.93
18.171,-1.62,0.9,2.43,3.06
18.181,-1.43,0.9,2.68,3.17
18.192,-1.3,0.94,2.74,3.18
18.202,-1.17,0.98,2.72,3.12
18.211,-1.09,1.03,2.61,3.01
18.221,-1.02,1.13,2.54,2.96
18.231,-0.95,1.25,2.57,3.01
18.241,-0.9,1.37,2.62,3.09
18.251,-0.89,1.55,2.67,3.21
18.261,-0.83,1.7,2.74,3.33
18.271,-0.75,1.8,2.77,3.39
18.281,-0.75,1.98,2.8,3.51
18.291,-0.74,2.14,2.82,3.62
18.301,-0.72,2.25,2.82,3.68
18.311,-0.71,2.38,2.77,3.73
18.321,-0.73,2.53,2.75,3.81
18.331,-0.74,2.68,2.79,3.94
18.341,-0.76,2.85,2.84,4.1
18.351,-0.81,2.98,2.88,4.22
18.361,-0.79,3.08,2.91,4.31
18.371,-0.76,3.15,2.9,4.35
18.381,-0.71,3.22,2.86,4.36
18.391,-0.61,3.24,2.79,4.32
18.401,-0.48,3.25,2.73,4.27
18.411,-0.33,3.22,2.66,4.19
18.421,-0.18,3.18,2.57,4.09
18.431,-0.03,3.14,2.51,4.02
18.441,0.15,3.09,2.4,3.91
18.451,0.29,3.06,2.27,3.82
18.461,0.45,3.03,2.12,3.72
18.471,0.65,2.99,1.94,3.62
18.481,0.79,2.95,1.74,3.51
18.491,0.82,2.93,1.53,3.41
18.501,0.84,2.92,1.3,3.3
18.511,0.87,2.87,1.1,3.2
18.521,0.88,2.86,0.9,3.12
18.531,0.9,2.83,0.72,3.05
18.541,0.91,2.83,0.57,3.03
18.551,0.85,2.82,0.43,2.98
18.561,0.79,2.79,0.23,2.91
18.571,0.68,2.74,0.01,2.82
18.581,0.61,2.64,-0.21,2.72
18.591,0.55,2.51,-0.44,2.61
18.601,0.46,2.39,-0.6,2.51
18.611,0.4,2.26,-0.65,2.38
18.621,0.21,2.21,-0.66,2.31
18.631,-0.12,2.19,-0.68,2.3
18.641,-0.46,2.15,-0.74,2.32
18.651,-0.69,2.02,-0.86,2.3
18.661,-0.82,1.95,-1.01,2.34
18.671,-0.81,1.93,-1.09,2.36
18.681,-0.76,1.89,-1.06,2.3
18.691,-0.76,1.9,-1.01,2.29
18.701,-0.58,1.81,-0.94,2.12
18.711,-0.26,1.6,-0.98,1.9
18.721,0.13,1.3,-1.17,1.75
18.73,0.51,0.94,-1.41,1.77
18.741,0.92,0.55,-1.54,1.87
18.751,1.27,0.2,-1.51,1.99
18.761,1.5,-0.03,-1.39,2.04
18.771,1.59,-0.23,-1.26,2.05
18.781,1.63,-0.38,-1.19,2.06
18.791,1.61,-0.52,-1.19,2.06
18.801,1.41,-0.5,-1.22,1.93
18.811,1.06,-0.35,-1.2,1.64
18.82,0.6,-0.17,-1.15,1.31
18.83,0.09,0.02,-1.15,1.15
18.84,-0.42,0.22,-1.19,1.28
18.85,-0.85,0.44,-1.22,1.56
18.86,-1.26,0.62,-1.22,1.86
18.87,-1.6,0.75,-1.16,2.11
18.88,-1.83,0.79,-1.04,2.25
18.89,-1.89,0.68,-0.91,2.2
18.9,-1.78,0.49,-0.85,2.04
18.91,-1.61,0.26,-0.91,1.87
18.92,-1.41,-0.02,-0.96,1.71
18.93,-1.13,-0.37,-0.92,1.5
18.94,-0.81,-0.69,-0.86,1.37
18.95,-0.51,-0.99,-0.76,1.35
18.96,-0.28,-1.2,-0.71,1.42
18.97,-0.11,-1.37,-0.74,1.56
18.98,-0.01,-1.45,-0.83,1.68
18.99,0.07,-1.54,-0.95,1.81
19,0.08,-1.59,-1.1,1.93
19.01,0.05,-1.62,-1.23,2.03
19.02,0.04,-1.65,-1.32,2.12
19.03,-0.01,-1.68,-1.41,2.19
19.04,-0.03,-1.73,-1.44,2.25
19.05,-0.13,-1.75,-1.48,2.3
19.06,-0.34,-1.72,-1.53,2.33
19.07,-0.47,-1.79,-1.53,2.4
19.08,-0.58,-1.83,-1.5,2.43
19.09,-0.73,-1.93,-1.47,2.53
19.1,-0.82,-2.05,-1.37,2.6
19.11,-0.8,-2.19,-1.26,2.65
19.12,-0.74,-2.35,-1.14,2.72
19.13,-0.69,-2.54,-1.11,2.86
19.14,-0.67,-2.72,-1.1,3.01
19.15,-0.68,-2.91,-1.07,3.17
19.16,-0.69,-3.03,-1.01,3.27
19.17,-0.72,-3.12,-0.97,3.35
19.18,-0.81,-3.17,-0.96,3.41
19.19,-0.91,-3.2,-0.93,3.46
19.2,-0.93,-3.27,-0.83,3.5
19.21,-0.96,-3.34,-0.74,3.55
19.22,-1.04,-3.36,-0.61,3.57
19.23,-1.1,-3.4,-0.44,3.6
19.24,-1.15,-3.41,-0.27,3.61
19.25,-1.25,-3.38,-0.1,3.6
19.26,-1.37,-3.32,0.05,3.59
19.27,-1.53,-3.25,0.14,3.6
19.28,-1.68,-3.17,0.24,3.6
19.29,-1.74,-3.06,0.37,3.54
19.3,-1.73,-2.96,0.47,3.46
19.31,-1.73,-2.77,0.58,3.32
19.32,-1.8,-2.63,0.71,3.26
19.33,-1.9,-2.5,0.8,3.24
19.34,-1.93,-2.38,0.81,3.17
19.35,-1.79,-2.27,0.89,3.02
19.36,-1.65,-2.12,0.99,2.86
19.37,-1.62,-1.93,1.04,2.72
19.38,-1.7,-1.67,0.98,2.58
19.39,-1.73,-1.45,0.91,2.44
19.4,-1.67,-1.3,0.9,2.3
19.41,-1.76,-1.17,0.79,2.26
19.42,-1.96,-1.09,0.75,2.36
19.43,-1.87,-1.07,1.08,2.41
19.44,-1.73,-1.03,1.45,2.48
19.45,-1.6,-1,1.75,2.57
19.46,-1.48,-0.96,1.98,2.65
19.469,-1.35,-0.95,2.12,2.69
19.479,-1.32,-0.9,2.19,2.71
19.489,-1.3,-0.9,2.19,2.7
19.499,-1.29,-0.93,2.19,2.71
19.509,-1.34,-0.95,2.28,2.81
19.519,-1.39,-1.02,2.4,2.95
19.529,-1.59,-1.02,2.63,3.24
19.539,-1.79,-1.01,2.87,3.53
19.549,-1.86,-1.13,3.07,3.76
19.559,-1.88,-1.23,3.22,3.93
19.569,-1.87,-1.33,3.31,4.03
19.579,-1.83,-1.37,3.36,4.07
19.589,-1.73,-1.31,3.32,3.97
19.599,-1.55,-1.24,3.22,3.78
19.609,-1.4,-1.17,3.03,3.54
19.619,-1.37,-1.03,2.82,3.3
19.629,-1.51,-0.79,2.73,3.22
19.639,-1.69,-0.57,2.71,3.24
19.649,-1.81,-0.44,2.65,3.24
19.659,-1.92,-0.32,2.59,3.24
19.669,-2,-0.25,2.51,3.22
19.679,-2.08,-0.15,2.44,3.21
19.689,-2.13,-0.07,2.38,3.19
19.699,-2.18,-0.01,2.33,3.19
19.709,-2.29,0.12,2.39,3.31
19.719,-2.38,0.23,2.51,3.47
19.729,-2.43,0.3,2.57,3.55
19.739,-2.37,0.34,2.64,3.56
19.749,-2.28,0.37,2.71,3.56
19.759,-2.19,0.45,2.8,3.59
19.769,-2.03,0.52,2.86,3.55
19.779,-1.86,0.6,2.88,3.48
19.789,-1.72,0.69,2.88,3.42
19.799,-1.59,0.82,2.9,3.41
19.809,-1.48,0.96,2.88,3.38
19.819,-1.38,1.11,2.88,3.38
19.829,-1.29,1.27,2.87,3.39
19.839,-1.2,1.42,2.84,3.39
19.849,-1.14,1.58,2.81,3.41
19.859,-1.09,1.74,2.78,3.46
19.869,-1.03,1.92,2.77,3.52
19.879,-0.99,2.11,2.82,3.65
19.889,-0.9,2.25,2.81,3.71
19.899,-0.86,2.41,2.73,3.74
19.909,-0.78,2.53,2.66,3.75
19.919,-0.69,2.67,2.58,3.77
19.929,-0.66,2.8,2.52,3.83
19.939,-0.59,2.92,2.51,3.89
19.949,-0.46,2.98,2.48,3.9
19.959,-0.39,3.06,2.44,3.94
19.969,-0.3,3.13,2.41,3.97
19.979,-0.14,3.15,2.37,3.94
19.989,0.03,3.17,2.33,3.93
19.999,0.19,3.18,2.29,3.92
20.009,0.34,3.18,2.22,3.9
20.019,0.48,3.19,2.14,3.87
20.029,0.57,3.22,2.05,3.86
20.039,0.68,3.24,1.97,3.85
20.049,0.76,3.26,1.88,3.84
20.059,0.78,3.3,1.79,3.83
20.069,0.86,3.28,1.71,3.8
20.079,0.91,3.26,1.58,3.74
20.089,0.88,3.25,1.44,3.67
20.099,0.88,3.22,1.32,3.59
20.108,0.89,3.12,1.26,3.48
20.119,0.87,3.01,1.2,3.35
20.128,0.86,2.85,1.1,3.18
20.138,0.88,2.73,1.01,3.04
20.148,0.9,2.62,0.92,2.92
20.158,0.95,2.51,0.83,2.81
20.168,0.98,2.39,0.69,2.67
20.178,0.91,2.29,0.49,2.51
20.188,0.63,2.31,0.27,2.41
20.198,0.22,2.41,0.12,2.43
20.208,-0.17,2.52,0.07,2.53
20.218,-0.51,2.6,0.05,2.65
20.228,-0.77,2.6,0.03,2.71
20.238,-1.08,2.61,-0.08,2.83
20.248,-1.28,2.5,-0.1,2.81
20.258,-1.3,2.31,-0.11,2.65
20.268,-1.21,2.05,-0.18,2.39
20.278,-0.99,1.73,-0.23,2.01
20.288,-0.73,1.44,-0.24,1.63
20.298,-0.54,1.18,-0.3,1.33
20.308,-0.4,0.89,-0.36,1.04
20.318,-0.28,0.65,-0.4,0.81
20.328,-0.09,0.51,-0.34,0.62
20.338,0.02,0.44,-0.28,0.52
20.348,0.05,0.43,-0.3,0.53
20.358,0.04,0.4,-0.46,0.61
20.368,0.04,0.31,-0.69,0.75
20.378,0.03,0.29,-0.89,0.94
20.388,0.05,0.29,-0.98,1.02
20.398,0.06,0.33,-1,1.05
20.408,0,0.39,-1,1.07
20.418,-0.12,0.44,-1.08,1.18
20.428,-0.26,0.46,-1.26,1.37
20.438,-0.41,0.44,-1.46,1.58
20.448,-0.62,0.46,-1.66,1.83
20.458,-0.73,0.41,-1.77,1.96
20.468,-0.78,0.38,-1.73,1.94
20.478,-0.85,0.37,-1.7,1.94
20.488,-0.89,0.29,-1.67,1.92
20.498,-0.87,0.11,-1.72,1.93
20.508,-0.75,-0.08,-1.73,1.89
20.518,-0.51,-0.33,-1.69,1.8
20.528,-0.39,-0.58,-1.69,1.83
20.538,-0.27,-0.98,-1.75,2.02
20.548,0,-0.41,-1.62,1.67
20.558,0.2,-0.72,-1.49,1.67
20.568,0.27,-0.87,-1.47,1.72
20.578,0.33,-0.83,-1.46,1.71
20.588,0.47,-0.96,-1.47,1.82
20.598,0.49,-1.03,-1.52,1.9
20.608,0.5,-1.09,-1.48,1.91
20.618,0.49,-1.14,-1.39,1.86
20.628,0.47,-1.22,-1.28,1.83
20.638,0.4,-1.28,-1.25,1.83
20.648,0.38,-1.4,-1.17,1.86
20.658,0.33,-1.54,-1.12,1.93
20.668,0.27,-1.66,-1.02,1.97
20.677,0.18,-1.71,-0.92,1.95
20.688,0.1,-1.77,-0.8,1.95
20.698,0.01,-1.8,-0.71,1.94
20.708,-0.14,-1.83,-0.7,1.96
20.718,-0.32,-1.83,-0.65,1.97
20.728,-0.46,-1.87,-0.52,1.99
20.737,-0.56,-1.9,-0.39,2.02
20.747,-0.63,-1.98,-0.24,2.09
20.757,-0.67,-2.08,-0.12,2.19
20.767,-0.73,-2.17,-0.02,2.29
20.777,-0.81,-2.27,0.09,2.41
20.787,-0.86,-2.35,0.23,2.51
20.797,-0.92,-2.44,0.37,2.64
20.807,-0.91,-2.55,0.49,2.75
20.817,-0.91,-2.63,0.58,2.84
20.827,-0.94,-2.7,0.61,2.92
20.837,-1.05,-2.72,0.64,2.98
20.847,-1.16,-2.74,0.65,3.05
20.857,-1.26,-2.73,0.66,3.08
20.867,-1.39,-2.7,0.67,3.11
20.877,-1.46,-2.68,0.68,3.13
20.887,-1.53,-2.65,0.68,3.13
20.897,-1.62,-2.59,0.66,3.12
20.907,-1.73,-2.47,0.7,3.09
20.917,-1.75,-2.41,0.77,3.08
20.927,-1.72,-2.38,0.8,3.04
20.937,-1.7,-2.33,0.85,3
20.947,-1.71,-2.26,0.91,2.98
20.957,-1.67,-2.22,0.98,2.95
20.967,-1.72,-2.18,0.98,2.94
20.977,-1.84,-2.11,0.97,2.96
20.987,-1.97,-2,0.97,2.97
20.997,-2.18,-1.84,0.96,3.01
21.007,-2.27,-1.75,0.94,3.02
21.017,-2.24,-1.72,0.91,2.96
21.027,-2.22,-1.68,0.82,2.9
21.037,-2.27,-1.63,0.71,2.88
21.047,-2.45,-1.54,0.51,2.94
21.057,-2.6,-1.46,0.39,3.01
21.067,-2.55,-1.39,0.43,2.94
21.077,-2.45,-1.33,0.51,2.83
21.087,-2.24,-1.33,0.59,2.67
21.097,-1.88,-1.4,0.69,2.44
21.107,-1.41,-1.5,0.77,2.19
21.117,-0.88,-1.62,0.87,2.04
21.127,-0.43,-1.7,0.93,1.98
21.137,-0.15,-1.74,0.91,1.97
21.147,0.09,-1.71,0.92,1.95
21.157,0.25,-1.63,0.96,1.91
21.167,0.24,-1.43,0.99,1.76
21.177,0.11,-1.22,0.99,1.58
21.187,-0.13,-1,0.89,1.34
21.197,-0.39,-0.79,0.78,1.18
21.207,-0.78,-0.53,0.6,1.12
21.217,-1.25,-0.23,0.51,1.37
21.227,-1.73,0.14,0.61,1.84
21.237,-2.18,0.54,0.79,2.38
21.247,-2.49,0.94,1.01,2.85
21.257,-2.7,1.28,1.18,3.21
21.267,-2.8,1.54,1.3,3.45
21.277,-2.81,1.78,1.38,3.6
21.287,-2.7,1.94,1.44,3.62
21.297,-2.5,2.02,1.51,3.55
21.307,-2.33,2.15,1.56,3.53
21.317,-2.13,2.19,1.67,3.48
21.326,-1.87,2.21,1.79,3.41
21.337,-1.59,2.27,1.93,3.38
21.347,-1.42,2.4,2.01,3.43
21.357,-1.21,2.5,2.05,3.45
21.366,-0.94,2.52,2.04,3.38
21.376,-0.75,2.62,2,3.38
21.387,-0.56,2.73,1.96,3.41
21.397,-0.33,2.82,1.94,3.44
21.407,-0.01,2.89,1.88,3.45
21.416,0.28,2.94,1.73,3.42
21.426,0.47,3.02,1.58,3.44
21.436,0.6,3.12,1.46,3.5
21.446,0.68,3.31,1.47,3.69
21.456,0.74,3.51,1.56,3.92
21.466,0.86,3.64,1.62,4.08
21.476,0.93,3.77,1.61,4.2
21.486,0.97,3.84,1.54,4.25
21.496,1.02,3.93,1.48,4.32
21.506,1,3.98,1.45,4.35
21.516,0.91,4,1.48,4.36
21.526,0.87,4.01,1.58,4.4
21.536,0.85,4.06,1.6,4.44
21.546,0.89,4.03,1.61,4.43
21.556,0.92,3.99,1.54,4.38
21.566,0.93,3.98,1.42,4.32
21.576,0.95,3.93,1.28,4.24
21.586,0.98,3.9,1.12,4.17
21.596,0.91,3.91,1.05,4.15
21.606,0.86,3.93,1.04,4.15
21.616,0.89,3.89,1.02,4.11
21.626,0.87,3.9,0.96,4.11
21.636,0.87,3.85,0.85,4.04
21.646,0.84,3.83,0.73,3.99
21.656,0.81,3.79,0.62,3.92
21.666,0.85,3.72,0.49,3.85
21.676,0.91,3.62,0.33,3.74
21.686,0.91,3.51,0.13,3.63
21.696,0.8,3.45,-0.07,3.54
21.706,0.63,3.42,-0.19,3.48
21.716,0.45,3.35,-0.23,3.38
21.726,0.27,3.23,-0.29,3.25
21.736,0.06,3.12,-0.31,3.14
21.746,-0.09,2.98,-0.3,3
21.756,-0.39,2.98,-0.26,3.02
21.766,-0.91,3.14,-0.16,3.27
21.776,-1.3,3.23,0.06,3.49
21.786,-1.47,3.16,0.23,3.49
21.796,-1.64,3.08,0.29,3.5
21.806,-1.82,3,0.3,3.52
21.816,-1.94,2.87,0.3,3.48
21.826,-1.99,2.71,0.28,3.37
21.836,-1.85,2.48,0.41,3.12
21.846,-1.61,2.17,0.52,2.75
21.856,-1.27,1.7,0.58,2.2
21.866,-0.9,1.22,0.54,1.61
21.876,-0.58,0.76,0.49,1.08
21.886,-0.37,0.41,0.47,0.72
21.896,-0.16,0.1,0.5,0.54
21.906,-0.04,-0.05,0.49,0.49
21.916,-0.14,-0.11,0.41,0.44
21.926,-0.45,-0.08,0.24,0.52
21.936,-0.81,-0.01,0.1,0.81
21.946,-1.12,0.01,-0.04,1.12
21.956,-1.55,0.13,-0.28,1.58
21.966,-1.93,0.17,-0.39,1.98
21.976,-2.17,0.22,-0.39,2.22
21.986,-2.28,0.24,-0.27,2.31
21.996,-2.31,0.16,-0.21,2.33
22.006,-2.27,0.09,-0.22,2.28
22.016,-2.13,-0.02,-0.21,2.14
22.026,-1.96,-0.23,-0.27,1.99
22.036,-1.76,-0.44,-0.31,1.84
22.045,-1.57,-0.63,-0.25,1.71
22.056,-1.32,-0.83,-0.09,1.56
22.065,-1.08,-1.04,0,1.5
22.075,-0.84,-1.27,0.04,1.52
22.085,-0.61,-1.5,0.06,1.62
22.095,-0.48,-1.7,0.03,1.76
22.105,-0.36,-1.89,-0.04,1.92
22.115,-0.22,-2.1,-0.06,2.12
22.125,-0.16,-2.3,-0.12,2.31
22.135,-0.16,-2.47,-0.21,2.48
22.145,-0.2,-2.63,-0.26,2.65
22.155,-0.29,-2.78,-0.27,2.8
22.165,-0.34,-2.97,-0.26,3
22.175,-0.41,-3.09,-0.22,3.13
22.185,-0.52,-3.17,-0.1,3.22
22.195,-0.67,-3.24,0,3.31
22.205,-0.83,-3.28,0.01,3.38
22.215,-1.03,-3.29,0.01,3.45
22.225,-1.22,-3.29,0.04,3.51
22.235,-1.28,-3.36,0.13,3.6
22.245,-1.35,-3.45,0.14,3.71
22.255,-1.47,-3.52,0.12,3.82
22.265,-1.55,-3.63,0.06,3.95
22.275,-1.62,-3.72,0.01,4.06
22.285,-1.66,-3.78,-0.02,4.13
22.295,-1.73,-3.81,-0.05,4.19
22.305,-1.76,-3.86,-0.09,4.24
22.315,-1.81,-3.88,-0.15,4.28
22.325,-1.89,-3.87,-0.24,4.31
22.335,-1.95,-3.86,-0.32,4.33
22.345,-1.95,-3.84,-0.39,4.32
22.355,-1.95,-3.78,-0.48,4.28
22.365,-1.98,-3.68,-0.57,4.22
22.375,-2.02,-3.57,-0.63,4.15
22.385,-2.04,-3.51,-0.68,4.11
22.395,-2.1,-3.4,-0.68,4.05
22.405,-2.16,-3.25,-0.64,3.95
22.415,-2.15,-3.13,-0.55,3.83
22.425,-2.13,-2.99,-0.48,3.7
22.435,-2.14,-2.85,-0.41,3.59
22.445,-2.15,-2.69,-0.35,3.47
22.455,-2.26,-2.51,-0.37,3.39
22.465,-2.43,-2.29,-0.42,3.37
22.475,-2.51,-2.15,-0.43,3.33
22.485,-2.52,-2.09,-0.37,3.29
22.495,-2.46,-1.98,-0.25,3.17
22.505,-2.45,-1.89,-0.11,3.1
22.515,-2.4,-1.76,0.03,2.98
22.525,-2.24,-1.72,0.16,2.83
22.535,-2,-1.74,0.26,2.66
22.545,-1.85,-1.76,0.3,2.57
22.555,-1.79,-1.75,0.3,2.52
22.565,-1.73,-1.7,0.36,2.45
22.575,-1.62,-1.67,0.43,2.37
22.585,-1.51,-1.59,0.5,2.25
22.595,-1.39,-1.48,0.59,2.12
22.605,-1.28,-1.28,0.65,1.92
22.615,-1.24,-0.96,0.66,1.7
22.625,-1.29,-0.62,0.6,1.55
22.634,-1.35,-0.29,0.58,1.5
22.644,-1.52,0.08,0.57,1.63
22.655,-1.68,0.47,0.57,1.83
22.664,-1.81,0.82,0.62,2.08
22.674,-1.89,1.14,0.66,2.3
22.684,-1.89,1.42,0.67,2.45
22.694,-1.9,1.67,0.7,2.62
22.704,-1.91,1.88,0.78,2.79
22.714,-1.87,2.04,0.88,2.91
22.724,-1.84,2.18,1,3.03
22.734,-1.81,2.29,1.09,3.12
22.744,-1.75,2.38,1.18,3.18
22.754,-1.61,2.41,1.32,3.18
22.764,-1.47,2.45,1.46,3.21
22.774,-1.28,2.52,1.61,3.25
22.784,-1.05,2.56,1.66,3.23
22.794,-0.82,2.56,1.7,3.18
22.804,-0.58,2.58,1.73,3.16
22.814,-0.36,2.62,1.77,3.19
22.824,-0.13,2.7,1.84,3.27
22.834,0.05,2.79,1.89,3.37
22.844,0.21,2.93,1.96,3.53
22.854,0.34,3.05,2,3.66
22.864,0.41,3.21,1.98,3.8
22.874,0.49,3.37,1.98,3.94
22.884,0.56,3.53,2,4.1
22.894,0.63,3.65,2.03,4.22
22.904,0.73,3.77,2.02,4.34
22.914,0.8,3.85,2,4.41
22.924,0.88,3.92,1.92,4.45
22.934,1,3.96,1.84,4.48
22.944,1.15,3.97,1.83,4.52
22.954,1.27,4,1.8,4.56
22.964,1.37,4.02,1.77,4.6
22.974,1.35,4.02,1.7,4.57
22.984,1.27,3.98,1.57,4.46
22.994,1.22,3.9,1.45,4.33
23.004,1.14,3.88,1.26,4.24
23.014,1.1,3.82,1.12,4.13
23.024,1.03,3.76,1.05,4.04
23.034,0.98,3.7,1.03,3.97
23.044,0.98,3.62,1.03,3.89
23.054,0.95,3.54,0.96,3.79
23.064,0.94,3.46,0.82,3.68
23.074,0.95,3.4,0.61,3.58
23.084,0.9,3.37,0.4,3.51
23.094,0.84,3.38,0.23,3.49
23.104,0.77,3.4,0.07,3.49
23.114,0.72,3.4,-0.09,3.47
23.124,0.67,3.38,-0.26,3.46
23.134,0.6,3.35,-0.45,3.43
23.144,0.53,3.27,-0.59,3.37
23.154,0.4,3.21,-0.64,3.29
23.164,0.24,3.16,-0.62,3.23
23.174,0.11,3.06,-0.55,3.11
23.184,-0.02,2.94,-0.5,2.98
23.194,-0.12,2.81,-0.44,2.85
23.204,-0.25,2.76,-0.35,2.79
23.214,-0.52,2.77,-0.28,2.83
23.224,-0.88,2.83,-0.23,2.97
23.234,-1.06,2.89,-0.15,3.08
23.244,-1.09,2.93,-0.01,3.13
23.254,-1.18,2.94,0.03,3.17
23.264,-1.42,3.02,-0.01,3.34
23.274,-1.67,3.09,-0.02,3.51
23.284,-1.76,2.98,0,3.46
23.294,-1.7,2.75,0.01,3.23
23.304,-1.49,2.38,0.08,2.81
23.313,-1.15,1.95,0.22,2.28
23.324,-0.71,1.51,0.4,1.72
23.333,-0.22,1.02,0.52,1.17
23.343,0.16,0.58,0.56,0.82
23.353,0.33,0.29,0.58,0.73
23.363,0.32,0.15,0.6,0.69
23.373,0.23,0.09,0.59,0.65
23.383,0.03,0.11,0.55,0.56
23.393,-0.25,0.19,0.52,0.61
23.403,-0.55,0.22,0.49,0.76
23.413,-0.89,0.28,0.46,1.04
23.423,-1.31,0.37,0.43,1.43
23.433,-1.61,0.38,0.47,1.72
23.443,-1.79,0.36,0.54,1.9
23.453,-1.98,0.35,0.63,2.11
23.463,-2.03,0.24,0.73,2.17
23.473,-2.04,0.09,0.78,2.18
23.483,-1.94,-0.12,0.82,2.11
23.493,-1.68,-0.4,0.87,1.94
23.503,-1.44,-0.68,0.87,1.81
23.513,-1.19,-0.96,0.88,1.76
23.523,-1.01,-1.2,0.88,1.8
23.533,-0.87,-1.4,0.85,1.85
23.543,-0.72,-1.56,0.82,1.91
23.553,-0.64,-1.65,0.75,1.92
23.563,-0.59,-1.73,0.66,1.94
23.573,-0.6,-1.77,0.55,1.95
23.583,-0.58,-1.84,0.46,1.99
23.593,-0.53,-1.93,0.4,2.04
23.603,-0.48,-1.98,0.38,2.08
23.613,-0.48,-2.08,0.4,2.17
23.623,-0.59,-2.11,0.37,2.22
23.633,-0.72,-2.13,0.3,2.27
23.643,-0.8,-2.16,0.32,2.32
23.653,-0.88,-2.17,0.37,2.37
23.663,-1,-2.16,0.43,2.42
23.673,-1.13,-2.16,0.48,2.48
23.683,-1.2,-2.24,0.47,2.59
23.693,-1.24,-2.3,0.42,2.65
23.703,-1.24,-2.36,0.36,2.69
23.713,-1.25,-2.45,0.31,2.77
23.723,-1.24,-2.56,0.25,2.85
23.733,-1.26,-2.65,0.21,2.94
23.743,-1.27,-2.75,0.19,3.03
23.753,-1.23,-2.92,0.14,3.17
23.763,-1.23,-3.04,0.06,3.28
23.773,-1.23,-3.15,0.02,3.38
23.783,-1.25,-3.23,-0.03,3.46
23.793,-1.27,-3.29,-0.05,3.53
23.803,-1.28,-3.33,-0.08,3.57
23.813,-1.27,-3.36,-0.1,3.6
23.823,-1.28,-3.34,-0.14,3.58
23.833,-1.29,-3.29,-0.15,3.54
23.843,-1.38,-3.17,-0.17,3.46
23.853,-1.5,-3.04,-0.16,3.39
23.863,-1.58,-2.92,-0.15,3.32
23.873,-1.71,-2.81,-0.16,3.29
23.883,-1.84,-2.68,-0.17,3.25
23.893,-1.9,-2.58,-0.15,3.21
23.903,-1.92,-2.49,-0.09,3.15
23.912,-1.91,-2.42,-0.06,3.08
23.923,-1.89,-2.36,-0.06,3.02
23.932,-1.86,-2.29,-0.05,2.95
23.943,-1.82,-2.22,-0.03,2.87
23.952,-1.85,-2.05,-0.07,2.76
23.962,-1.92,-1.87,-0.18,2.68
23.973,-1.89,-1.77,-0.19,2.6
23.982,-1.84,-1.7,-0.21,2.51
23.993,-1.83,-1.63,-0.22,2.46
24.003,-1.95,-1.57,-0.26,2.52
24.012,-2.16,-1.45,-0.32,2.62
24.022,-2.3,-1.33,-0.32,2.67
24.032,-2.23,-1.37,-0.23,2.63
24.042,-2.08,-1.45,-0.07,2.54
24.053,-1.84,-1.57,0.13,2.42
24.062,-1.49,-1.71,0.35,2.3
24.072,-1.11,-1.83,0.58,2.21
24.082,-0.81,-1.87,0.74,2.17
24.092,-0.73,-1.75,0.8,2.06
24.102,-0.82,-1.42,0.76,1.81
24.112,-0.82,-1.08,0.82,1.59
24.122,-0.75,-0.76,0.93,1.42
24.132,-0.79,-0.36,0.93,1.28
24.142,-0.85,0.02,0.89,1.23
24.152,-0.92,0.34,0.76,1.24
24.162,-1.11,0.68,0.56,1.42
24.172,-1.47,1.1,0.35,1.87
24.182,-1.73,1.45,0.35,2.29
24.192,-1.88,1.79,0.5,2.64
24.202,-1.96,2.07,0.7,2.93
24.212,-1.87,2.23,0.87,3.03
24.222,-1.7,2.32,1.01,3.05
24.232,-1.48,2.31,1.09,2.95
24.242,-1.22,2.24,1.16,2.8
24.252,-0.97,2.19,1.22,2.69
24.262,-0.78,2.13,1.26,2.59
24.272,-0.61,2.11,1.28,2.55
24.282,-0.34,2.13,1.43,2.59
24.292,-0.06,2.15,1.6,2.68
24.302,0.21,2.16,1.68,2.74
24.312,0.42,2.14,1.69,2.76
24.322,0.58,2.13,1.69,2.78
24.332,0.71,2.16,1.66,2.81
24.342,0.79,2.2,1.62,2.85
24.352,0.83,2.29,1.63,2.93
24.362,0.85,2.44,1.67,3.07
24.372,0.87,2.57,1.69,3.2
24.382,0.88,2.69,1.7,3.31
24.392,0.91,2.81,1.69,3.4
24.402,0.97,2.89,1.66,3.47
24.412,1.03,2.95,1.59,3.5
24.422,1.07,2.97,1.49,3.49
24.432,0.95,3.03,1.41,3.48
24.442,0.72,3.19,1.51,3.6
24.452,0.49,3.34,1.61,3.74
24.462,0.3,3.49,1.69,3.89
24.472,0.18,3.57,1.8,4
24.482,0.1,3.61,1.86,4.06
24.492,0.12,3.54,1.82,3.99
24.502,0.21,3.47,1.77,3.9
24.512,0.26,3.45,1.74,3.87
24.522,0.28,3.42,1.71,3.83
24.532,0.37,3.41,1.68,3.82
24.541,0.42,3.41,1.57,3.77
24.552,0.48,3.39,1.42,3.7
24.562,0.54,3.39,1.31,3.67
24.572,0.57,3.38,1.21,3.64
24.582,0.62,3.35,1.13,3.59
24.592,0.69,3.33,1.02,3.55
24.602,0.75,3.27,0.88,3.47
24.612,0.81,3.22,0.7,3.4
24.622,0.84,3.18,0.48,3.32
24.631,0.78,3.11,0.29,3.22
24.641,0.7,3.09,0.13,3.17
24.651,0.57,3.09,0.01,3.14
24.661,0.44,3.07,-0.08,3.1
24.671,0.35,3.02,-0.11,3.04
24.681,0.29,2.93,-0.12,2.95
24.691,0.32,2.82,-0.06,2.84
24.701,0.35,2.69,0.01,2.71
24.711,0.2,2.62,0.06,2.63
24.721,-0.05,2.61,0.12,2.61
24.731,-0.26,2.58,0.22,2.6
24.741,-0.37,2.45,0.31,2.49
24.751,-0.47,2.3,0.27,2.36
24.761,-0.73,2.19,0.09,2.31
24.771,-1.08,2.12,-0.12,2.38
24.781,-1.41,2.06,-0.18,2.5
24.791,-1.59,1.93,-0.1,2.5
24.801,-1.48,1.59,0.1,2.17
24.811,-1.23,1.17,0.16,1.71
24.821,-0.87,0.68,0.2,1.13
24.831,-0.5,0.22,0.22,0.59
24.841,-0.11,-0.2,0.29,0.37
24.851,0.14,-0.48,0.36,0.62
24.861,0.17,-0.61,0.34,0.71
24.871,0.02,-0.63,0.28,0.69
24.881,-0.17,-0.55,0.19,0.61
24.891,-0.48,-0.4,0.03,0.62
24.901,-0.79,-0.24,-0.1,0.83
24.911,-1.04,-0.08,-0.15,1.05
24.921,-1.3,0.14,-0.17,1.31
24.931,-1.49,0.32,-0.17,1.53
24.941,-1.62,0.46,-0.23,1.7
24.951,-1.65,0.5,-0.27,1.74
24.961,-1.55,0.49,-0.25,1.65
24.971,-1.43,0.42,-0.26,1.51
24.981,-1.29,0.36,-0.23,1.36
24.991,-1.01,0.21,-0.12,1.04
25.001,-0.75,0.01,-0.05,0.75
25.011,-0.52,-0.18,0.03,0.56
25.021,-0.32,-0.39,0.07,0.51
25.031,-0.13,-0.6,0.09,0.62
25.041,0.09,-0.8,0.13,0.81
25.051,0.16,-0.93,0.08,0.95
25.061,0.16,-1.05,-0.03,1.07
25.071,0.19,-1.18,-0.09,1.19
25.081,0.16,-1.29,-0.19,1.32
25.091,0.03,-1.34,-0.32,1.37
25.101,-0.06,-1.41,-0.35,1.46
25.111,-0.09,-1.55,-0.36,1.59
25.121,-0.2,-1.61,-0.4,1.67
25.131,-0.31,-1.71,-0.41,1.78
25.141,-0.45,-1.83,-0.43,1.93
25.151,-0.65,-1.9,-0.44,2.06
25.161,-0.82,-2.01,-0.42,2.21
25.171,-0.96,-2.09,-0.34,2.33
25.181,-1.07,-2.18,-0.26,2.44
25.191,-1.16,-2.3,-0.22,2.58
25.201,-1.21,-2.47,-0.23,2.76
25.211,-1.23,-2.66,-0.3,2.95
25.221,-1.3,-2.8,-0.38,3.11
25.231,-1.38,-2.94,-0.42,3.27
25.241,-1.4,-3.04,-0.39,3.37
25.251,-1.4,-3.19,-0.4,3.51
25.26,-1.37,-3.26,-0.36,3.56
25.271,-1.34,-3.34,-0.3,3.61
25.28,-1.31,-3.4,-0.3,3.66
25.291,-1.29,-3.44,-0.33,3.69
25.301,-1.22,-3.45,-0.34,3.67
25.31,-1.14,-3.44,-0.33,3.64
25.32,-1.12,-3.43,-0.34,3.62
25.33,-1.13,-3.42,-0.34,3.62
25.34,-1.17,-3.36,-0.31,3.57
25.35,-1.23,-3.28,-0.3,3.51
25.36,-1.39,-3.17,-0.29,3.47
25.37,-1.56,-3.08,-0.28,3.47
25.38,-1.68,-3.03,-0.24,3.47
25.39,-1.79,-2.93,-0.22,3.44
25.4,-1.89,-2.83,-0.17,3.41
25.41,-1.93,-2.73,-0.15,3.35
25.42,-2.03,-2.57,-0.18,3.28
25.43,-2.18,-2.38,-0.23,3.24
25.44,-2.24,-2.3,-0.25,3.22
25.45,-2.21,-2.26,-0.28,3.18
25.46,-2.16,-2.25,-0.21,3.12
25.47,-2.17,-2.17,-0.14,3.07
25.48,-2.23,-2.06,-0.08,3.04
25.49,-2.27,-1.99,0.01,3.02
25.5,-2.22,-1.99,0.09,2.98
25.51,-2.21,-1.99,0.17,2.98
25.52,-2.19,-1.96,0.28,2.96
25.53,-2.15,-1.95,0.38,2.93
25.54,-2.1,-1.9,0.49,2.88
25.55,-2,-1.85,0.59,2.79
25.56,-1.83,-1.78,0.72,2.66
25.57,-1.6,-1.69,0.85,2.48
25.58,-1.38,-1.53,0.93,2.26
25.59,-1.22,-1.32,0.97,2.04
25.6,-1.14,-1.07,0.99,1.85
25.61,-1.14,-0.77,1,1.7
25.62,-1.16,-0.47,1.01,1.61
25.63,-1.3,-0.1,0.99,1.63
25.64,-1.48,0.26,0.96,1.78
25.65,-1.56,0.59,0.99,1.94
25.66,-1.66,0.94,1.06,2.18
25.67,-1.7,1.27,1.15,2.41
25.68,-1.69,1.55,1.25,2.61
25.69,-1.64,1.75,1.31,2.73
25.7,-1.64,1.95,1.31,2.86
25.71,-1.63,2.1,1.32,2.97
25.72,-1.6,2.24,1.37,3.08
25.73,-1.64,2.39,1.47,3.25
25.74,-1.64,2.47,1.57,3.35
25.75,-1.61,2.5,1.74,3.45
25.76,-1.49,2.54,1.93,3.53
25.77,-1.33,2.52,2.06,3.52
25.78,-1.14,2.5,2.11,3.46
25.79,-0.91,2.5,2.15,3.42
25.8,-0.61,2.51,2.22,3.41
25.81,-0.35,2.56,2.25,3.43
25.82,-0.16,2.61,2.25,3.45
25.83,0.06,2.63,2.28,3.48
25.84,0.16,2.74,2.28,3.57
25.85,0.25,2.88,2.3,3.69
25.86,0.33,3,2.29,3.79
25.87,0.39,3.18,2.27,3.93
25.879,0.49,3.32,2.24,4.03
25.89,0.54,3.45,2.18,4.12
25.9,0.58,3.63,2.13,4.25
25.91,0.63,3.75,2.15,4.37
25.92,0.67,3.84,2.17,4.46
25.929,0.76,3.89,2.12,4.5
25.94,0.92,3.87,2.09,4.49
25.95,1.04,3.81,1.97,4.42
25.959,1.12,3.7,1.81,4.27
25.969,1.21,3.56,1.72,4.14
25.979,1.23,3.56,1.62,4.1
25.989,1.24,3.56,1.58,4.09
25.999,1.2,3.55,1.54,4.05
26.009,1.16,3.53,1.46,3.99
26.019,1.09,3.49,1.34,3.89
26.029,1.01,3.43,1.21,3.78
26.039,0.92,3.31,1.07,3.6
26.049,0.91,3.22,0.96,3.48
26.059,0.94,3.08,0.87,3.33
26.069,0.93,2.95,0.79,3.2
26.079,0.91,2.83,0.66,3.05
26.089,0.87,2.71,0.46,2.88
26.099,0.79,2.59,0.26,2.73
26.109,0.71,2.47,0.09,2.57
26.119,0.65,2.35,-0.1,2.44
26.129,0.55,2.23,-0.25,2.31
26.139,0.4,2.14,-0.34,2.2
26.149,0.25,2.03,-0.4,2.09
26.159,0.08,1.97,-0.44,2.02
26.169,-0.12,1.9,-0.45,1.96
26.179,-0.38,1.86,-0.45,1.96
26.189,-0.72,1.89,-0.48,2.08
26.199,-1.09,1.92,-0.43,2.25
26.209,-1.34,1.86,-0.3,2.31
26.219,-1.52,1.8,-0.2,2.36
26.229,-1.65,1.72,-0.15,2.38
26.239,-1.78,1.68,-0.09,2.45
26.249,-1.92,1.7,-0.14,2.57
26.259,-1.96,1.72,-0.15,2.61
26.269,-1.8,1.56,-0.08,2.38
26.279,-1.63,1.48,-0.09,2.2
26.289,-1.38,1.25,-0.06,1.86
26.299,-0.99,0.92,-0.01,1.35
26.309,-0.54,0.64,0.12,0.84
26.319,-0.14,0.34,0.25,0.44
26.329,0.21,0.03,0.35,0.41
26.339,0.47,-0.22,0.39,0.65
26.349,0.71,-0.44,0.42,0.93
26.359,0.85,-0.57,0.4,1.1
26.369,0.72,-0.55,0.27,0.95
26.379,0.56,-0.55,0.18,0.81
26.389,0.26,-0.39,-0.01,0.47
26.399,-0.09,-0.26,-0.15,0.31
26.409,-0.49,-0.12,-0.28,0.57
26.419,-0.89,0.06,-0.3,0.94
26.429,-1.21,0.15,-0.27,1.24
26.439,-1.51,0.16,-0.32,1.55
26.449,-1.77,0.14,-0.28,1.8
26.459,-1.93,0.09,-0.18,1.94
26.469,-2.05,0.03,-0.08,2.05
26.479,-1.98,-0.13,0.04,1.99
26.489,-1.75,-0.41,0.14,1.8
26.499,-1.48,-0.75,0.16,1.67
26.509,-1.21,-1.06,0.12,1.61
26.519,-1,-1.34,0.08,1.67
26.529,-0.75,-1.53,0.1,1.7
26.539,-0.47,-1.59,0.1,1.66
26.549,-0.27,-1.61,0.04,1.64
26.558,-0.2,-1.73,-0.01,1.74
26.569,-0.14,-1.79,-0.13,1.8
26.578,-0.08,-1.83,-0.21,1.85
26.589,-0.11,-1.85,-0.32,1.88
26.598,-0.16,-1.85,-0.37,1.89
26.608,-0.24,-1.8,-0.43,1.87
26.618,-0.34,-1.76,-0.44,1.85
26.628,-0.38,-1.78,-0.44,1.87
26.638,-0.4,-1.81,-0.47,1.91
26.648,-0.39,-1.89,-0.45,1.98
26.658,-0.45,-1.92,-0.46,2.02
26.668,-0.5,-1.92,-0.41,2.02
26.678,-0.52,-1.95,-0.35,2.05
26.688,-0.59,-1.99,-0.3,2.09
26.698,-0.6,-2.09,-0.22,2.18
26.708,-0.57,-2.15,-0.16,2.23
26.718,-0.61,-2.23,-0.16,2.32
26.728,-0.66,-2.3,-0.2,2.4
26.738,-0.7,-2.36,-0.25,2.47
26.748,-0.74,-2.41,-0.28,2.54
26.758,-0.78,-2.46,-0.28,2.59
26.768,-0.77,-2.5,-0.27,2.63
26.778,-0.81,-2.53,-0.27,2.66
26.788,-0.85,-2.56,-0.26,2.71
26.798,-0.86,-2.62,-0.28,2.77
26.808,-0.93,-2.64,-0.27,2.81
26.818,-0.98,-2.67,-0.22,2.85
26.828,-1.04,-2.67,-0.19,2.87
26.838,-1.11,-2.65,-0.14,2.87
26.848,-1.17,-2.6,-0.11,2.85
26.858,-1.21,-2.57,-0.06,2.84
26.868,-1.26,-2.5,0.01,2.8
26.878,-1.33,-2.43,0.1,2.77
26.888,-1.42,-2.35,0.17,2.75
26.898,-1.53,-2.27,0.26,2.75
26.908,-1.61,-2.22,0.34,2.76
26.918,-1.72,-2.15,0.41,2.78
26.928,-1.81,-2.12,0.51,2.83
26.938,-1.86,-2.09,0.6,2.87
26.948,-1.89,-2.09,0.68,2.89
26.958,-1.94,-2.02,0.78,2.91
26.968,-2,-1.93,0.86,2.91
26.978,-2.11,-1.77,0.84,2.88
26.988,-2.25,-1.6,0.75,2.86
26.998,-2.33,-1.46,0.68,2.84
27.008,-2.35,-1.36,0.66,2.79
27.018,-2.4,-1.19,0.67,2.76
27.028,-2.46,-1.05,0.69,2.76
27.038,-2.44,-1.02,0.74,2.74
27.048,-2.34,-1.06,0.84,2.7
27.058,-2.15,-1.21,0.97,2.65
27.068,-1.93,-1.37,1.15,2.63
27.078,-1.73,-1.47,1.4,2.67
27.088,-1.62,-1.46,1.57,2.69
27.098,-1.47,-1.45,1.75,2.71
27.108,-1.35,-1.4,1.87,2.7
27.118,-1.25,-1.26,1.94,2.62
27.128,-1.14,-1.11,1.95,2.52
27.138,-1.11,-0.95,1.95,2.44
27.148,-1.07,-0.82,1.96,2.38
27.158,-1.07,-0.68,1.98,2.35
27.168,-1.14,-0.47,2.02,2.37
27.177,-1.18,-0.27,2.11,2.44
27.188,-1.27,-0.06,2.21,2.55
27.197,-1.4,0.18,2.28,2.68
27.207,-1.53,0.43,2.35,2.83
27.217,-1.61,0.64,2.43,2.98
27.227,-1.65,0.78,2.53,3.12
27.237,-1.64,0.89,2.59,3.19
27.248,-1.63,1,2.6,3.23
27.257,-1.63,1.1,2.62,3.27
27.267,-1.64,1.16,2.67,3.34
27.277,-1.64,1.21,2.73,3.41
27.287,-1.65,1.25,2.78,3.47
27.297,-1.6,1.28,2.85,3.51
27.307,-1.51,1.32,2.93,3.55
27.317,-1.4,1.33,2.97,3.54
27.327,-1.31,1.42,3.02,3.58
27.337,-1.18,1.49,3.06,3.6
27.347,-1.08,1.58,3.1,3.64
27.357,-0.98,1.65,3.18,3.71
27.367,-0.84,1.75,3.21,3.75
27.377,-0.71,1.81,3.19,3.73
27.387,-0.57,1.91,3.16,3.74
27.397,-0.43,1.97,3.11,3.71
27.407,-0.35,2.08,3.05,3.71
27.417,-0.23,2.19,3.05,3.76
27.427,-0.08,2.24,3.02,3.76
27.437,0.04,2.31,2.92,3.72
27.447,0.12,2.38,2.83,3.7
27.457,0.21,2.47,2.81,3.75
27.467,0.2,2.58,2.77,3.79
27.477,0.21,2.68,2.74,3.84
27.487,0.28,2.72,2.72,3.85
27.497,0.27,2.79,2.62,3.84
27.507,0.27,2.83,2.53,3.8
27.517,0.36,2.79,2.37,3.68
27.527,0.44,2.77,2.22,3.58
27.537,0.48,2.8,2.12,3.55
27.547,0.46,2.81,2.02,3.49
27.557,0.45,2.81,1.91,3.43
27.567,0.45,2.77,1.78,3.33
27.577,0.49,2.71,1.61,3.19
27.587,0.5,2.65,1.42,3.05
27.597,0.51,2.6,1.24,2.92
27.607,0.48,2.58,1.1,2.84
27.617,0.46,2.55,1,2.78
27.627,0.44,2.49,0.86,2.68
27.637,0.39,2.46,0.69,2.59
27.647,0.35,2.41,0.51,2.49
27.657,0.34,2.32,0.32,2.37
27.667,0.33,2.21,0.16,2.24
27.677,0.35,2.12,0.03,2.15
27.687,0.37,2.04,-0.09,2.08
27.697,0.33,1.99,-0.21,2.03
27.707,0.32,1.91,-0.32,1.96
27.717,0.33,1.82,-0.45,1.91
27.727,0.26,1.75,-0.55,1.85
27.737,0.17,1.69,-0.61,1.81
27.747,0.06,1.63,-0.62,1.74
27.757,-0.07,1.57,-0.61,1.68
27.767,-0.23,1.52,-0.66,1.67
27.777,-0.31,1.4,-0.63,1.56
27.787,-0.44,1.37,-0.63,1.57
27.796,-0.7,1.38,-0.62,1.66
27.807,-0.95,1.38,-0.6,1.78
27.817,-1.06,1.35,-0.58,1.81
27.827,-1.15,1.31,-0.58,1.83
27.837,-1.21,1.29,-0.57,1.86
27.846,-1.17,1.18,-0.56,1.75
27.856,-1.06,1.05,-0.59,1.6
27.867,-0.83,0.82,-0.57,1.3
27.876,-0.55,0.55,-0.56,0.96
27.886,-0.28,0.3,-0.52,0.66
27.896,-0.04,0.04,-0.47,0.47
27.906,0.21,-0.23,-0.44,0.54
27.916,0.45,-0.49,-0.41,0.78
27.926,0.63,-0.69,-0.38,1.01
27.936,0.8,-0.86,-0.31,1.22
27.946,0.93,-1.02,-0.22,1.4
27.956,0.93,-1.1,-0.2,1.45
27.966,0.88,-1.15,-0.23,1.47
27.976,0.72,-1.15,-0.25,1.38
27.986,0.36,-1.02,-0.37,1.14
27.996,-0.02,-0.87,-0.47,0.99
28.006,-0.43,-0.7,-0.65,1.05
28.016,-0.87,-0.49,-0.79,1.27
28.026,-1.29,-0.37,-0.88,1.61
28.036,-1.67,-0.32,-0.9,1.92
28.046,-1.95,-0.36,-0.86,2.16
28.056,-2.08,-0.47,-0.79,2.27
28.066,-2.08,-0.68,-0.74,2.31
28.076,-1.99,-0.99,-0.72,2.33
28.086,-1.88,-1.21,-0.72,2.35
28.096,-1.71,-1.44,-0.64,2.33
28.106,-1.61,-1.73,-0.55,2.43
28.116,-1.55,-1.76,-0.58,2.41
28.126,-1.23,-1.84,-0.46,2.26
28.136,-1.03,-1.79,-0.45,2.12
28.146,-0.81,-1.99,-0.42,2.19
28.156,-0.56,-2.15,-0.39,2.25
28.166,-0.56,-2.11,-0.46,2.23
28.176,-0.57,-2.13,-0.45,2.25
28.186,-0.55,-2.04,-0.32,2.14
28.196,-0.61,-1.95,-0.27,2.06
28.206,-0.59,-1.97,-0.2,2.07
28.216,-0.62,-2,-0.22,2.11
28.226,-0.72,-1.98,-0.3,2.13
28.236,-0.73,-2.01,-0.24,2.15
28.246,-0.82,-1.94,-0.22,2.12
28.256,-0.88,-1.88,-0.11,2.08
28.266,-0.92,-1.83,-0.01,2.05
28.276,-0.87,-1.9,0.04,2.08
28.286,-0.85,-1.92,0.05,2.1
28.296,-0.88,-1.95,0.06,2.14
28.306,-0.92,-2.05,0.1,2.25
28.316,-0.98,-2.13,0.19,2.35
28.326,-1.09,-2.13,0.31,2.42
28.336,-1.16,-2.14,0.43,2.48
28.346,-1.18,-2.19,0.47,2.53
28.356,-1.2,-2.24,0.49,2.59
28.366,-1.26,-2.25,0.54,2.64
28.376,-1.33,-2.28,0.6,2.7
28.386,-1.36,-2.35,0.67,2.8
28.396,-1.47,-2.36,0.65,2.86
28.406,-1.53,-2.42,0.68,2.94
28.416,-1.55,-2.47,0.75,3.01
28.426,-1.58,-2.47,0.82,3.05
28.436,-1.6,-2.49,0.9,3.1
28.445,-1.59,-2.55,0.92,3.14
28.456,-1.65,-2.54,0.98,3.18
28.466,-1.71,-2.53,1.02,3.23
28.475,-1.77,-2.5,1.08,3.25
28.486,-1.85,-2.42,1.15,3.26
28.495,-1.91,-2.37,1.24,3.28
28.505,-1.88,-2.33,1.34,3.28
28.515,-1.81,-2.31,1.45,3.28
28.525,-1.79,-2.27,1.52,3.26
28.536,-1.83,-2.22,1.56,3.28
28.545,-1.93,-2.16,1.62,3.31
28.555,-2.02,-2.09,1.67,3.35
28.565,-2.14,-1.98,1.71,3.38
28.575,-2.14,-1.99,1.8,3.43
28.585,-2.19,-1.94,1.78,3.42
28.595,-2.27,-1.88,1.79,3.45
28.605,-2.35,-1.84,1.85,3.51
28.615,-2.4,-1.83,1.9,3.57
28.625,-2.42,-1.82,1.95,3.6
28.635,-2.44,-1.8,2,3.63
28.645,-2.45,-1.75,2.05,3.65
28.655,-2.45,-1.69,2.09,3.63
28.665,-2.5,-1.57,2.11,3.63
28.675,-2.56,-1.44,2.16,3.64
28.685,-2.63,-1.34,2.23,3.7
28.695,-2.59,-1.34,2.3,3.72
28.705,-2.57,-1.29,2.35,3.71
28.715,-2.64,-1.22,2.41,3.77
28.725,-2.69,-1.18,2.49,3.85
28.735,-2.69,-1.18,2.58,3.91
28.745,-2.68,-1.2,2.65,3.96
28.755,-2.59,-1.31,2.76,4.01
28.765,-2.59,-1.4,2.82,4.08
28.775,-2.64,-1.44,2.89,4.16
28.785,-2.58,-1.51,3.02,4.25
28.795,-2.49,-1.57,3.17,4.32
28.805,-2.41,-1.58,3.29,4.37
28.815,-2.29,-1.65,3.35,4.38
28.825,-2.11,-1.7,3.34,4.3
28.835,-1.96,-1.66,3.31,4.19
28.845,-1.81,-1.58,3.37,4.14
28.855,-1.76,-1.37,3.37,4.04
28.865,-1.76,-1.18,3.32,3.94
28.875,-1.8,-0.99,3.25,3.85
28.885,-1.88,-0.75,3.17,3.76
28.895,-1.94,-0.51,3.09,3.68
28.905,-2.12,-0.18,3,3.68
28.915,-2.37,0.13,2.9,3.75
28.925,-2.56,0.4,2.87,3.87
28.935,-2.72,0.64,2.8,3.95
28.945,-2.81,0.8,2.66,3.95
28.955,-2.93,0.87,2.49,3.94
28.965,-2.96,0.9,2.35,3.88
28.975,-2.9,0.9,2.27,3.8
28.985,-2.91,0.97,2.2,3.78
28.995,-2.79,0.97,2.27,3.72
29.005,-2.57,0.98,2.35,3.62
29.015,-2.28,0.98,2.35,3.42
29.025,-1.98,0.98,2.28,3.17
29.035,-1.63,0.96,2.19,2.9
29.045,-1.35,1.05,2.19,2.78
29.055,-1.04,1.14,2.25,2.73
29.065,-0.69,1.21,2.27,2.66
29.075,-0.41,1.34,2.21,2.61
29.085,-0.22,1.52,2.14,2.64
29.095,-0.08,1.75,2.11,2.74
29.105,-0.09,2,2.05,2.87
29.115,-0.13,2.28,2.01,3.04
29.124,-0.22,2.59,1.96,3.25
29.135,-0.29,2.82,1.97,3.45
29.145,-0.22,2.94,1.98,3.56
29.155,-0.19,3.03,1.91,3.59
29.165,-0.16,3.13,1.83,3.63
29.174,-0.03,3.12,1.79,3.59
29.185,0.07,3.02,1.8,3.52
29.195,0.13,3.03,1.88,3.57
29.204,0.21,3.01,1.94,3.59
29.214,0.38,2.93,1.94,3.54
29.224,0.58,2.86,1.93,3.49
29.234,0.72,2.8,1.9,3.46
29.244,0.84,2.71,1.88,3.41
29.254,0.9,2.68,1.9,3.41
29.264,1.03,2.61,1.87,3.37
29.274,1.17,2.55,1.74,3.3
29.284,1.23,2.54,1.61,3.25
29.294,1.29,2.52,1.52,3.21
29.304,1.34,2.5,1.4,3.16
29.314,1.29,2.54,1.21,3.1
29.324,1.12,2.64,1.05,3.06
29.334,1.01,2.73,0.94,3.06
29.344,0.96,2.74,0.82,3.02
29.354,0.88,2.78,0.7,2.99
29.364,0.81,2.77,0.55,2.94
29.374,0.74,2.74,0.4,2.87
29.384,0.68,2.7,0.28,2.8
29.394,0.62,2.65,0.22,2.73
29.404,0.55,2.57,0.21,2.64
29.414,0.5,2.45,0.25,2.52
29.424,0.49,2.28,0.26,2.35
29.434,0.44,2.12,0.29,2.19
29.444,0.44,1.91,0.34,1.99
29.454,0.37,1.74,0.38,1.82
29.464,0.11,1.74,0.4,1.79
29.474,-0.41,1.87,0.38,1.95
29.484,-1.08,2.08,0.38,2.37
29.494,-1.7,2.25,0.41,2.84
29.504,-2.14,2.34,0.4,3.19
29.514,-2.36,2.37,0.41,3.37
29.524,-2.4,2.36,0.41,3.39
29.534,-2.24,2.19,0.4,3.16
29.544,-1.94,1.9,0.35,2.74
29.554,-1.56,1.48,0.34,2.17
29.564,-1.24,1.14,0.31,1.71
29.574,-0.9,0.87,0.42,1.32
29.584,-0.55,0.57,0.52,0.95
29.594,-0.29,0.31,0.53,0.68
29.604,-0.08,0.06,0.47,0.48
29.614,0.11,-0.2,0.33,0.4
29.624,0.16,-0.42,0.14,0.47
29.634,0.17,-0.53,0.08,0.56
29.644,0.04,-0.53,0.08,0.54
29.654,-0.27,-0.48,0.1,0.56
29.664,-0.57,-0.42,0.18,0.73
29.674,-0.89,-0.33,0.24,0.98
29.684,-1.28,-0.18,0.29,1.33
29.694,-1.61,-0.13,0.32,1.65
29.704,-1.94,-0.15,0.3,1.97
29.714,-2.14,-0.22,0.27,2.17
29.724,-2.2,-0.31,0.25,2.23
29.734,-2.2,-0.46,0.17,2.26
29.744,-2.15,-0.69,0.05,2.26
29.754,-2.15,-0.88,-0.15,2.33
29.764,-2.07,-1.03,-0.28,2.33
29.773,-1.85,-1.25,-0.3,2.25
29.784,-1.62,-1.37,-0.34,2.15
29.793,-1.32,-1.53,-0.37,2.05
29.803,-1.04,-1.73,-0.45,2.06
29.813,-0.82,-1.95,-0.51,2.18
29.823,-0.61,-2.12,-0.54,2.27
29.833,-0.39,-2.27,-0.51,2.36
29.843,-0.23,-2.38,-0.49,2.44
29.853,-0.09,-2.48,-0.48,2.53
29.863,0.03,-2.55,-0.5,2.6
29.873,0.1,-2.6,-0.53,2.66
29.883,0.08,-2.61,-0.54,2.67
29.893,0.05,-2.59,-0.55,2.65
29.903,-0.06,-2.54,-0.54,2.6
29.913,-0.21,-2.49,-0.54,2.56
29.923,-0.3,-2.51,-0.53,2.59
29.933,-0.47,-2.59,-0.57,2.7
29.943,-0.66,-2.65,-0.53,2.79
29.953,-0.76,-2.74,-0.48,2.88
29.963,-0.85,-2.85,-0.44,3.01
29.973,-1.08,-3.02,-0.52,3.25
29.983,-1.34,-3.19,-0.58,3.51
29.993,-1.51,-3.32,-0.57,3.69
30.003,-1.65,-3.43,-0.54,3.85
30.013,-1.84,-3.48,-0.55,3.97
30.023,-1.97,-3.59,-0.57,4.13
30.033,-2.03,-3.72,-0.63,4.28
30.043,-2.1,-3.82,-0.7,4.41
30.053,-2.14,-3.88,-0.75,4.49
30.063,-2.14,-3.9,-0.76,4.51
30.073,-2.16,-3.93,-0.8,4.55
30.083,-2.1,-3.96,-0.83,4.55
30.093,-1.99,-4,-0.84,4.54
30.103,-1.94,-4.03,-0.92,4.57
30.113,-1.98,-3.98,-0.96,4.55
30.123,-2.08,-3.92,-1.01,4.55
30.133,-2.27,-3.84,-1.1,4.59
30.143,-2.41,-3.72,-1.13,4.57
30.153,-2.48,-3.65,-1.2,4.58
30.163,-2.56,-3.55,-1.26,4.55
30.173,-2.59,-3.46,-1.26,4.5
30.183,-2.56,-3.37,-1.28,4.43
30.193,-2.6,-3.24,-1.33,4.36
30.203,-2.76,-3.02,-1.46,4.35
30.213,-2.94,-2.82,-1.58,4.37
30.223,-3.03,-2.66,-1.63,4.35
30.233,-3.02,-2.56,-1.56,4.25
30.243,-3.03,-2.38,-1.5,4.13
30.253,-3.05,-2.21,-1.43,4.03
30.263,-2.98,-2.13,-1.38,3.92
30.273,-2.85,-2.13,-1.32,3.79
30.283,-2.61,-2.15,-1.2,3.59
30.293,-2.25,-2.17,-0.96,3.27
30.303,-1.84,-2.21,-0.71,2.96
30.313,-1.35,-2.28,-0.52,2.7
30.323,-0.93,-2.31,-0.41,2.53
30.333,-0.58,-2.28,-0.29,2.37
30.343,-0.3,-2.14,-0.19,2.17
30.353,-0.14,-1.88,-0.15,1.89
30.363,-0.09,-1.56,-0.16,1.57
30.373,-0.11,-1.22,-0.26,1.25
30.383,-0.26,-0.86,-0.37,0.98
30.393,-0.68,-0.4,-0.58,0.98
30.403,-1.04,0.14,-0.56,1.19
30.412,-1.25,0.62,-0.36,1.44
30.422,-1.45,1.1,-0.11,1.82
30.432,-1.57,1.46,0.15,2.15
30.442,-1.62,1.7,0.33,2.37
30.452,-1.68,1.84,0.41,2.53
30.463,-1.68,1.92,0.56,2.61
30.472,-1.51,1.97,0.81,2.61
30.483,-1.35,1.99,0.99,2.6
30.492,-1.2,2.05,1.15,2.64
30.502,-1.01,2.1,1.39,2.71
30.512,-0.72,2.08,1.54,2.69
30.522,-0.48,2.1,1.61,2.69
30.532,-0.25,2.14,1.63,2.7
30.542,-0.04,2.18,1.63,2.72
30.552,0.13,2.25,1.62,2.77
30.562,0.26,2.31,1.63,2.84
30.572,0.39,2.4,1.67,2.95
30.582,0.55,2.49,1.69,3.06
30.592,0.69,2.61,1.74,3.21
30.602,0.84,2.71,1.74,3.33
30.612,0.96,2.85,1.78,3.49
30.622,1.14,2.91,1.75,3.58
30.632,1.29,2.96,1.68,3.64
30.642,1.4,3.01,1.58,3.67
30.652,1.5,3.04,1.51,3.7
30.662,1.52,3.13,1.42,3.76
30.672,1.54,3.23,1.4,3.84
30.682,1.52,3.32,1.4,3.91
30.692,1.47,3.41,1.4,3.97
30.702,1.47,3.42,1.34,3.96
30.712,1.46,3.36,1.25,3.88
30.722,1.37,3.39,1.16,3.84
30.732,1.29,3.44,1.07,3.83
30.742,1.25,3.46,0.97,3.8
30.752,1.14,3.5,0.86,3.78
30.762,1.01,3.55,0.8,3.78
30.772,0.95,3.56,0.78,3.76
30.782,0.97,3.51,0.71,3.71
30.792,0.94,3.49,0.57,3.66
30.802,0.91,3.43,0.46,3.57
30.812,0.88,3.37,0.38,3.5
30.822,0.84,3.33,0.29,3.45
30.832,0.85,3.25,0.17,3.36
30.842,0.83,3.14,-0.04,3.25
30.852,0.78,3.04,-0.27,3.15
30.862,0.69,2.94,-0.49,3.06
30.872,0.56,2.88,-0.63,3
30.882,0.46,2.84,-0.63,2.94
30.892,0.14,2.88,-0.63,2.95
30.902,-0.45,3.06,-0.6,3.15
30.912,-1.08,3.27,-0.54,3.48
30.922,-1.73,3.53,-0.52,3.96
30.932,-2.14,3.6,-0.38,4.2
30.942,-2.31,3.57,-0.26,4.26
30.952,-2.29,3.4,-0.21,4.11
30.962,-2.18,3.12,-0.29,3.81
30.972,-1.88,2.67,-0.41,3.29
30.982,-1.45,2.13,-0.48,2.62
30.992,-0.91,1.5,-0.36,1.79
31.002,-0.38,0.86,-0.21,0.96
31.012,0.04,0.34,-0.06,0.35
31.022,0.35,-0.15,0.02,0.38
31.032,0.53,-0.5,0.01,0.73
31.042,0.67,-0.72,0.02,0.98
31.052,0.73,-0.79,-0.02,1.07
31.061,0.63,-0.81,-0.23,1.05
31.072,0.5,-0.83,-0.49,1.08
31.082,0.2,-0.72,-0.66,1
31.092,-0.27,-0.44,-0.74,0.9
31.101,-0.68,-0.12,-0.72,1
31.112,-1.1,0.23,-0.68,1.31
31.121,-1.49,0.53,-0.57,1.68
31.131,-1.72,0.69,-0.46,1.91
31.141,-1.8,0.71,-0.37,1.97
31.151,-1.78,0.55,-0.34,1.9
31.161,-1.69,0.26,-0.28,1.73
31.171,-1.45,-0.05,-0.06,1.45
31.181,-1.18,-0.36,0.11,1.24
31.191,-0.96,-0.67,0.22,1.19
31.201,-0.75,-1.02,0.3,1.3
31.211,-0.53,-1.35,0.33,1.49
31.221,-0.39,-1.62,0.31,1.69
31.231,-0.3,-1.81,0.31,1.86
31.241,-0.21,-1.95,0.37,2
31.251,-0.18,-2.04,0.34,2.08
31.261,-0.19,-2.04,0.31,2.08
31.271,-0.2,-2.05,0.28,2.08
31.281,-0.17,-2.16,0.31,2.19
31.291,-0.24,-2.13,0.32,2.17
31.301,-0.34,-2.13,0.37,2.19
31.311,-0.48,-2.08,0.41,2.18
31.321,-0.58,-2.07,0.43,2.19
31.331,-0.66,-2.07,0.52,2.23
31.341,-0.82,-2.07,0.59,2.3
31.351,-0.96,-2.12,0.65,2.41
31.361,-1.02,-2.22,0.72,2.54
31.371,-1.11,-2.26,0.72,2.62
31.381,-1.19,-2.37,0.7,2.75
31.391,-1.24,-2.48,0.67,2.86
31.401,-1.32,-2.58,0.63,2.96
31.411,-1.39,-2.67,0.66,3.09
31.421,-1.49,-2.78,0.69,3.23
31.431,-1.64,-2.9,0.62,3.39
31.441,-1.74,-3.03,0.57,3.54
31.451,-1.78,-3.16,0.6,3.67
31.461,-1.78,-3.31,0.63,3.81
31.471,-1.76,-3.43,0.68,3.91
31.481,-1.76,-3.53,0.71,4.01
31.491,-1.78,-3.58,0.69,4.06
31.501,-1.83,-3.57,0.7,4.08
31.511,-1.91,-3.49,0.69,4.04
31.521,-1.97,-3.36,0.65,3.95
31.531,-2.07,-3.2,0.59,3.86
31.541,-2.16,-3.07,0.53,3.79
31.551,-2.24,-2.99,0.48,3.77
31.561,-2.32,-2.92,0.45,3.76
31.571,-2.39,-2.83,0.42,3.73
31.581,-2.37,-2.78,0.43,3.68
31.591,-2.28,-2.74,0.41,3.59
31.601,-2.28,-2.63,0.3,3.49
31.611,-2.42,-2.41,0.18,3.42
31.621,-2.62,-2.17,0.01,3.4
31.631,-2.76,-1.98,-0.08,3.4
31.641,-2.89,-1.83,-0.17,3.43
31.651,-3.11,-1.71,-0.27,3.56
31.661,-3.3,-1.67,-0.32,3.72
31.671,-3.35,-1.66,-0.32,3.76
31.681,-3.17,-1.79,-0.28,3.65
31.691,-2.79,-2.03,-0.13,3.45
31.701,-2.25,-2.3,-0.01,3.22
31.711,-1.59,-2.54,0.11,3
31.721,-0.94,-2.66,0.17,2.83
31.731,-0.44,-2.71,0.18,2.75
31.741,-0.18,-2.6,0.14,2.61
31.751,-0.09,-2.36,0.11,2.37
31.761,-0.12,-2.07,0.05,2.08
31.77,-0.22,-1.73,-0.04,1.74
31.78,-0.38,-1.39,-0.11,1.44
31.79,-0.63,-1.01,-0.22,1.21
31.8,-1.11,-0.54,-0.38,1.29
31.81,-1.61,-0.07,-0.49,1.68
31.82,-1.95,0.34,-0.54,2.05
31.83,-2.17,0.69,-0.58,2.35
31.841,-2.35,0.99,-0.52,2.6
31.85,-2.45,1.26,-0.38,2.79
31.86,-2.35,1.42,-0.18,2.75
31.87,-2.13,1.49,-0.08,2.6
31.88,-1.91,1.53,0,2.45
31.89,-1.56,1.49,0.12,2.16
31.9,-1.23,1.44,0.16,1.9
31.91,-0.95,1.49,0.19,1.78
31.92,-0.65,1.57,0.26,1.72
31.93,-0.31,1.63,0.37,1.7
31.94,-0.04,1.72,0.47,1.79
31.95,0.12,1.82,0.52,1.9
31.96,0.29,1.95,0.57,2.05
31.97,0.48,2.06,0.61,2.2
31.98,0.63,2.15,0.62,2.33
31.99,0.77,2.26,0.59,2.46
32,0.87,2.38,0.56,2.59
32.01,0.92,2.53,0.58,2.75
32.02,1,2.65,0.64,2.9
32.03,1.04,2.81,0.65,3.06
32.04,1.13,2.94,0.71,3.23
32.05,1.23,3.04,0.79,3.37
32.06,1.35,3.11,0.88,3.5
32.07,1.45,3.19,0.97,3.64
32.08,1.48,3.25,1.05,3.73
32.09,1.5,3.24,1.08,3.73
32.1,1.44,3.26,1.09,3.73
32.11,1.35,3.33,1.17,3.78
32.12,1.29,3.42,1.28,3.87
32.13,1.23,3.49,1.35,3.93
32.14,1.18,3.51,1.35,3.94
32.15,1.09,3.54,1.25,3.91
32.16,1.02,3.55,1.15,3.87
32.17,0.96,3.57,1.07,3.85
32.18,0.91,3.58,0.99,3.83
32.19,0.85,3.6,0.95,3.82
32.2,0.78,3.61,0.9,3.8
32.21,0.76,3.62,0.8,3.79
32.22,0.68,3.65,0.65,3.77
32.23,0.6,3.74,0.56,3.83
32.24,0.53,3.78,0.46,3.84
32.25,0.52,3.78,0.35,3.83
32.26,0.59,3.76,0.24,3.81
32.27,0.67,3.66,0.04,3.72
32.28,0.72,3.61,-0.21,3.68
32.29,0.78,3.55,-0.38,3.66
32.3,0.8,3.53,-0.49,3.65
32.31,0.65,3.63,-0.55,3.73
32.32,0.3,3.82,-0.58,3.88
32.33,-0.16,4.06,-0.6,4.11
32.34,-0.46,4.19,-0.54,4.25
32.35,-0.56,4.13,-0.47,4.2
32.36,-0.61,4.03,-0.46,4.1
32.37,-0.65,3.9,-0.46,3.98
32.38,-0.65,3.74,-0.47,3.82
32.39,-0.53,3.41,-0.4,3.47
32.4,-0.47,3.04,-0.42,3.11
32.41,-0.27,2.62,-0.34,2.65
32.419,-0.05,2.23,-0.22,2.24
32.43,0.13,1.82,-0.12,1.83
32.439,0.37,1.39,-0.06,1.43
32.449,0.56,0.97,-0.02,1.12
32.46,0.63,0.69,0.04,0.93
32.469,0.53,0.49,0.03,0.72
32.479,0.24,0.47,-0.05,0.53
32.489,-0.13,0.55,-0.09,0.57
32.499,-0.62,0.67,-0.19,0.93
32.51,-1.23,0.86,-0.26,1.53
32.519,-1.75,0.99,-0.28,2.03
32.529,-2.18,1.05,-0.25,2.43
32.539,-2.49,0.98,-0.17,2.68
32.549,-2.63,0.81,-0.05,2.75
32.559,-2.58,0.48,0.1,2.63
32.569,-2.46,0.11,0.26,2.47
32.579,-2.36,-0.28,0.41,2.41
32.589,-2.26,-0.7,0.57,2.43
32.599,-2.06,-1.16,0.7,2.46
32.609,-1.81,-1.58,0.78,2.53
32.619,-1.57,-1.93,0.85,2.63
32.629,-1.35,-2.19,0.94,2.74
32.639,-1.23,-2.42,0.89,2.86
32.649,-1.11,-2.57,0.8,2.91
32.659,-0.96,-2.65,0.73,2.92
32.669,-0.86,-2.64,0.66,2.86
32.679,-0.87,-2.65,0.57,2.84
32.689,-0.91,-2.61,0.53,2.82
32.699,-0.91,-2.59,0.54,2.8
32.709,-0.96,-2.59,0.55,2.82
32.719,-0.98,-2.57,0.62,2.82
32.729,-1.02,-2.55,0.67,2.83
32.739,-1.12,-2.52,0.67,2.84
32.749,-1.21,-2.5,0.7,2.87
32.759,-1.32,-2.48,0.75,2.91
32.769,-1.37,-2.52,0.85,2.99
32.779,-1.44,-2.54,0.98,3.08
32.789,-1.46,-2.64,1.03,3.19
32.799,-1.49,-2.72,1.02,3.27
32.809,-1.57,-2.8,0.95,3.35
32.819,-1.63,-2.89,0.95,3.45
32.829,-1.64,-2.97,0.95,3.53
32.839,-1.62,-3.12,0.94,3.64
32.849,-1.65,-3.22,0.89,3.73
32.859,-1.71,-3.33,0.8,3.83
32.869,-1.86,-3.39,0.72,3.93
32.879,-2.06,-3.4,0.7,4.03
32.889,-2.15,-3.47,0.71,4.15
32.899,-2.17,-3.56,0.69,4.22
32.909,-2.22,-3.61,0.64,4.28
32.919,-2.31,-3.62,0.61,4.34
32.929,-2.42,-3.58,0.59,4.36
32.939,-2.57,-3.55,0.6,4.42
32.949,-2.68,-3.55,0.63,4.49
32.959,-2.69,-3.55,0.66,4.5
32.969,-2.72,-3.54,0.61,4.5
32.979,-2.66,-3.53,0.57,4.46
32.989,-2.56,-3.49,0.54,4.36
32.999,-2.46,-3.43,0.51,4.25
33.009,-2.38,-3.38,0.4,4.16
33.019,-2.45,-3.24,0.17,4.07
33.029,-2.67,-3.02,-0.12,4.03
33.039,-2.82,-2.88,-0.34,4.05
33.049,-2.86,-2.78,-0.43,4.01
33.059,-2.91,-2.65,-0.45,3.97
33.069,-2.93,-2.56,-0.44,3.92
33.078,-2.87,-2.54,-0.44,3.86
33.089,-2.7,-2.6,-0.39,3.76
33.098,-2.48,-2.63,-0.29,3.63
33.109,-2.29,-2.61,-0.2,3.48
33.118,-2.23,-2.48,-0.13,3.34
33.128,-2.11,-2.29,-0.05,3.11
33.139,-1.9,-2.1,0.07,2.84
33.148,-1.7,-1.94,0.16,2.59
33.158,-1.53,-1.71,0.26,2.31
33.168,-1.36,-1.44,0.31,2.01
33.178,-1.26,-1.18,0.33,1.76
33.188,-1.31,-0.94,0.23,1.63
33.198,-1.53,-0.65,0.02,1.66
33.208,-1.65,-0.33,-0.04,1.68
33.218,-1.62,-0.05,-0.01,1.62
33.228,-1.51,0.28,0.17,1.55
33.238,-1.39,0.6,0.36,1.56
33.248,-1.15,0.78,0.43,1.46
33.258,-0.94,0.95,0.35,1.38
33.268,-0.82,1.12,0.24,1.41
33.278,-0.88,1.34,0.11,1.6
33.288,-0.96,1.52,0.08,1.8
33.298,-1.03,1.7,0.14,1.99
33.308,-1.08,1.83,0.29,2.14
33.318,-0.99,1.87,0.5,2.18
33.328,-0.87,1.93,0.67,2.22
33.338,-0.73,1.95,0.81,2.24
33.348,-0.56,1.91,0.92,2.19
33.358,-0.43,1.86,0.96,2.14
33.368,-0.29,1.79,0.96,2.05
33.378,-0.11,1.77,1.02,2.05
33.388,0.06,1.91,1.22,2.27
33.398,0.28,2.04,1.4,2.49
33.408,0.43,2.1,1.43,2.58
33.418,0.47,2.25,1.45,2.72
33.428,0.58,2.36,1.49,2.85
33.438,0.73,2.47,1.53,3
33.448,0.76,2.6,1.54,3.12
33.458,0.81,2.7,1.57,3.23
33.468,0.84,2.8,1.58,3.32
33.478,0.84,2.91,1.62,3.43
33.488,0.8,3.01,1.68,3.54
33.498,0.75,3.1,1.73,3.63
33.508,0.74,3.11,1.74,3.64
33.518,0.77,3.12,1.76,3.66
33.528,0.77,3.18,1.8,3.74
33.538,0.74,3.25,1.85,3.81
33.548,0.74,3.33,1.88,3.9
33.558,0.67,3.44,1.86,3.97
33.568,0.59,3.55,1.85,4.05
33.578,0.56,3.63,1.83,4.1
33.588,0.48,3.71,1.79,4.15
33.598,0.45,3.75,1.7,4.14
33.608,0.45,3.72,1.55,4.05
33.618,0.49,3.68,1.45,3.98
33.628,0.47,3.65,1.31,3.91
33.638,0.45,3.65,1.23,3.88
33.648,0.41,3.62,1.11,3.81
33.658,0.41,3.55,0.98,3.71
33.668,0.45,3.43,0.82,3.56
33.678,0.56,3.31,0.64,3.42
33.688,0.72,3.18,0.48,3.29
33.698,0.88,3.05,0.29,3.19
33.708,1.09,2.9,0.1,3.1
33.718,1.22,2.74,-0.11,3
33.728,1.26,2.64,-0.3,2.94
33.737,1.22,2.57,-0.42,2.88
33.747,1.02,2.59,-0.52,2.84
33.758,0.56,2.83,-0.63,2.95
33.767,0.01,3.11,-0.6,3.17
33.777,-0.4,3.31,-0.47,3.37
33.787,-0.66,3.39,-0.38,3.48
33.797,-0.92,3.42,-0.4,3.56
33.807,-1.08,3.37,-0.4,3.56
33.817,-1.12,3.29,-0.34,3.49
33.827,-1,3.1,-0.26,3.27
33.837,-0.81,2.81,-0.21,2.93
33.847,-0.54,2.45,-0.13,2.52
33.857,-0.22,2.08,-0.05,2.09
33.867,0.16,1.64,0.01,1.65
33.877,0.45,1.29,0,1.36
33.887,0.6,1.04,-0.03,1.2
33.897,0.59,0.87,-0.13,1.06
33.907,0.51,0.82,-0.17,0.98
33.917,0.35,0.79,-0.2,0.88
33.927,0.03,0.8,-0.31,0.86
33.937,-0.35,0.86,-0.42,1.02
33.947,-0.68,0.87,-0.54,1.23
33.957,-1.01,0.87,-0.67,1.49
33.967,-1.25,0.79,-0.68,1.62
33.977,-1.43,0.74,-0.57,1.7
33.987,-1.56,0.67,-0.4,1.74
33.997,-1.6,0.54,-0.27,1.71
34.007,-1.53,0.33,-0.14,1.57
34.017,-1.38,0.07,0.01,1.38
34.027,-1.16,-0.26,0.19,1.2
34.037,-0.93,-0.58,0.37,1.15
34.047,-0.79,-0.81,0.49,1.23
34.057,-0.68,-1.03,0.54,1.35
34.067,-0.66,-1.17,0.55,1.45
34.077,-0.66,-1.27,0.59,1.55
34.087,-0.62,-1.35,0.56,1.59
34.097,-0.61,-1.36,0.56,1.59
34.107,-0.61,-1.37,0.55,1.6
34.117,-0.67,-1.38,0.48,1.61
34.127,-0.73,-1.41,0.46,1.65
34.137,-0.79,-1.43,0.43,1.69
34.147,-0.82,-1.44,0.45,1.72
34.157,-0.86,-1.47,0.55,1.79
34.167,-0.87,-1.5,0.61,1.84
34.177,-0.9,-1.53,0.67,1.9
34.187,-0.94,-1.6,0.76,2.01
34.197,-0.94,-1.66,0.87,2.1
34.207,-1.03,-1.68,0.94,2.19
34.217,-1.1,-1.75,1,2.29
34.227,-1.11,-1.84,1.01,2.37
34.237,-1.14,-1.9,0.99,2.43
34.247,-1.17,-1.98,0.97,2.5
34.257,-1.27,-2.05,0.9,2.58
34.267,-1.34,-2.18,0.85,2.7
34.277,-1.35,-2.31,0.8,2.8
34.287,-1.43,-2.43,0.73,2.91
34.297,-1.48,-2.57,0.64,3.03
34.307,-1.52,-2.7,0.55,3.15
34.317,-1.54,-2.86,0.41,3.27
34.327,-1.48,-2.99,0.33,3.35
34.337,-1.44,-3.14,0.22,3.46
34.346,-1.45,-3.23,0.1,3.54
34.357,-1.43,-3.34,0,3.63
34.366,-1.4,-3.41,-0.07,3.69
34.377,-1.39,-3.45,-0.15,3.72
34.387,-1.39,-3.53,-0.26,3.8
34.397,-1.44,-3.58,-0.4,3.88
34.407,-1.42,-3.62,-0.49,3.92
34.416,-1.42,-3.66,-0.55,3.96
34.427,-1.52,-3.65,-0.64,4
34.436,-1.59,-3.61,-0.76,4.02
34.446,-1.64,-3.6,-0.86,4.05
34.456,-1.65,-3.58,-0.94,4.05
34.466,-1.64,-3.55,-1,4.04
34.476,-1.66,-3.51,-1.04,4.02
34.486,-1.66,-3.5,-1.1,4.02
34.496,-1.61,-3.49,-1.08,3.99
34.506,-1.55,-3.45,-1.06,3.93
34.516,-1.52,-3.38,-1.02,3.84
34.526,-1.49,-3.31,-0.99,3.76
34.536,-1.56,-3.17,-1.04,3.68
34.546,-1.72,-3.01,-1.13,3.65
34.556,-1.82,-2.94,-1.14,3.63
34.566,-1.97,-2.8,-1.1,3.6
34.576,-2.19,-2.67,-1.09,3.62
34.586,-2.41,-2.5,-1.12,3.65
34.596,-2.54,-2.42,-1.11,3.68
34.606,-2.64,-2.34,-1.01,3.67
34.616,-2.68,-2.28,-0.84,3.62
34.626,-2.68,-2.28,-0.64,3.57
34.636,-2.55,-2.29,-0.46,3.46
34.646,-2.34,-2.32,-0.29,3.31
34.656,-2.06,-2.33,-0.16,3.12
34.666,-1.79,-2.27,-0.01,2.89
34.676,-1.47,-2.14,0.15,2.6
34.686,-1.09,-2.03,0.25,2.32
34.696,-0.81,-1.92,0.29,2.1
34.706,-0.61,-1.75,0.26,1.87
34.716,-0.5,-1.53,0.25,1.63
34.726,-0.48,-1.24,0.27,1.36
34.736,-0.54,-0.86,0.29,1.05
34.746,-0.65,-0.47,0.27,0.85
34.756,-0.85,-0.04,0.18,0.87
34.766,-1.09,0.42,0.14,1.18
34.776,-1.29,0.87,0.16,1.56
34.786,-1.49,1.33,0.22,2.01
34.796,-1.71,1.77,0.31,2.48
34.806,-1.85,2.13,0.43,2.86
34.816,-1.92,2.4,0.55,3.12
34.826,-2.01,2.63,0.67,3.37
34.836,-2.08,2.77,0.82,3.56
34.846,-2.01,2.84,1.02,3.63
34.856,-1.88,2.87,1.21,3.64
34.866,-1.68,2.84,1.36,3.57
34.876,-1.44,2.78,1.48,3.47
34.886,-1.16,2.73,1.66,3.39
34.896,-0.87,2.71,1.81,3.37
34.906,-0.58,2.75,1.9,3.39
34.916,-0.28,2.77,1.97,3.41
34.926,-0.02,2.79,2,3.43
34.936,0.21,2.8,1.98,3.43
34.946,0.39,2.86,1.94,3.48
34.956,0.56,2.92,1.87,3.51
34.966,0.68,3,1.83,3.58
34.976,0.75,3.1,1.81,3.67
34.986,0.83,3.22,1.82,3.79
34.995,0.91,3.33,1.78,3.88
35.006,0.96,3.42,1.7,3.94
35.016,1.01,3.48,1.68,4
35.026,1.08,3.53,1.67,4.05
35.036,1.2,3.47,1.63,4.02
35.045,1.25,3.38,1.55,3.92
35.055,1.29,3.28,1.48,3.83
35.065,1.26,3.15,1.41,3.68
35.075,1.14,3.09,1.34,3.56
35.085,1.05,3.05,1.27,3.47
35.096,1.02,2.99,1.17,3.37
35.106,1.01,2.91,1.05,3.25
35.115,0.98,2.87,0.95,3.17
35.125,0.96,2.79,0.85,3.07
35.135,0.98,2.73,0.76,2.99
35.145,1,2.63,0.61,2.88
35.155,1.03,2.53,0.43,2.76
35.165,1.08,2.41,0.26,2.65
35.175,1.17,2.26,0.08,2.54
35.185,1.3,2.1,-0.11,2.47
35.195,1.39,1.98,-0.27,2.43
35.205,1.44,1.89,-0.41,2.41
35.215,1.47,1.81,-0.57,2.4
35.225,1.48,1.7,-0.75,2.37
35.235,1.43,1.62,-0.98,2.37
35.245,1.33,1.55,-1.23,2.39
35.255,1.17,1.54,-1.48,2.43
35.265,1.02,1.51,-1.58,2.41
35.275,0.82,1.53,-1.66,2.4
35.285,0.56,1.59,-1.66,2.37
35.295,0.32,1.59,-1.67,2.32
35.305,0.09,1.57,-1.74,2.34
35.315,-0.08,1.56,-1.72,2.32
35.325,-0.18,1.46,-1.63,2.19
35.335,-0.34,1.37,-1.59,2.13
35.345,-0.54,1.32,-1.57,2.13
35.355,-0.83,1.33,-1.6,2.24
35.365,-1.24,1.43,-1.57,2.46
35.375,-1.71,1.57,-1.46,2.74
35.385,-1.99,1.63,-1.25,2.85
35.395,-2.09,1.58,-1.06,2.82
35.405,-1.96,1.44,-0.87,2.59
35.415,-1.65,1.2,-0.8,2.19
35.425,-1.22,0.86,-0.88,1.74
35.435,-0.78,0.58,-0.86,1.3
35.445,-0.37,0.29,-0.74,0.88
35.455,0.02,-0.02,-0.59,0.59
35.465,0.34,-0.36,-0.53,0.73
35.475,0.63,-0.64,-0.42,0.99
35.485,0.86,-0.88,-0.23,1.25
35.495,1.1,-1.09,0.01,1.55
35.505,1.41,-1.29,0.22,1.92
35.515,1.5,-1.4,0.19,2.06
35.525,1.39,-1.38,0.02,1.96
35.535,1.02,-1.17,-0.29,1.58
35.545,0.47,-0.85,-0.55,1.12
35.555,-0.25,-0.43,-0.74,0.89
35.565,-1.09,0.03,-0.89,1.41
35.575,-1.83,0.38,-0.95,2.09
35.585,-2.39,0.63,-1,2.67
35.595,-2.75,0.61,-1.05,3.01
35.605,-2.9,0.41,-1.03,3.11
35.615,-2.84,0.13,-0.97,3.01
35.625,-2.7,-0.22,-0.93,2.87
35.635,-2.48,-0.66,-0.83,2.7
35.645,-2.2,-1.1,-0.7,2.56
35.655,-1.9,-1.59,-0.51,2.52
35.665,-1.67,-1.99,-0.36,2.62
35.675,-1.41,-2.36,-0.2,2.75
35.685,-1.21,-2.65,-0.05,2.92
35.694,-1.04,-2.92,0.07,3.1
35.705,-0.95,-3.08,0.2,3.24
35.715,-0.96,-3.16,0.28,3.31
35.724,-0.97,-3.25,0.36,3.41
35.734,-1.16,-3.19,0.33,3.42
35.744,-1.48,-3.09,0.3,3.44
35.755,-1.71,-3.03,0.31,3.49
35.765,-1.94,-3.06,0.25,3.63
35.774,-2.3,-2.98,0.2,3.77
35.784,-2.37,-3.09,0.34,3.91
35.794,-2.31,-3.24,0.54,4.02
35.804,-2.31,-3.26,0.8,4.08
35.814,-2.28,-3.29,1.06,4.14
35.824,-2.24,-3.31,1.22,4.17
35.834,-2.2,-3.31,1.36,4.2
35.844,-2.15,-3.34,1.41,4.22
35.854,-2.03,-3.43,1.42,4.23
35.864,-1.96,-3.48,1.4,4.23
35.874,-1.92,-3.51,1.39,4.24
35.884,-1.86,-3.54,1.43,4.25
35.894,-1.88,-3.48,1.45,4.21
35.904,-1.94,-3.42,1.5,4.21
35.914,-1.94,-3.39,1.55,4.2
35.924,-1.97,-3.31,1.59,4.17
35.934,-1.97,-3.22,1.65,4.13
35.944,-1.99,-3.13,1.69,4.08
35.954,-2.07,-2.99,1.66,3.99
35.964,-2.11,-2.87,1.63,3.92
35.974,-2.11,-2.78,1.64,3.85
35.984,-2.09,-2.66,1.69,3.78
35.994,-2.05,-2.55,1.81,3.74
36.004,-2.05,-2.43,1.9,3.7
36.014,-2.12,-2.31,2.01,3.72
36.024,-2.16,-2.24,2.12,3.76
36.034,-2.21,-2.22,2.2,3.83
36.044,-2.3,-2.17,2.27,3.89
36.054,-2.51,-2.03,2.32,3.98
36.064,-2.66,-1.97,2.35,4.06
36.074,-2.74,-1.93,2.38,4.11
36.084,-2.84,-1.89,2.39,4.16
36.094,-2.9,-1.83,2.44,4.21
36.104,-2.89,-1.79,2.55,4.25
36.114,-2.84,-1.72,2.66,4.25
36.124,-2.75,-1.67,2.76,4.24
36.134,-2.62,-1.65,2.75,4.14
36.144,-2.46,-1.63,2.7,4
36.154,-2.32,-1.63,2.59,3.84
36.164,-2.28,-1.57,2.53,3.75
36.174,-2.27,-1.56,2.5,3.72
36.184,-2.28,-1.52,2.52,3.72
36.194,-2.39,-1.43,2.57,3.79
36.204,-2.52,-1.29,2.68,3.9
36.214,-2.68,-1.14,2.81,4.05
36.224,-2.85,-0.95,2.95,4.22
36.234,-2.93,-0.83,3.03,4.29
36.244,-3.07,-0.6,2.98,4.32
36.254,-3.46,-0.17,2.83,4.47
36.264,-3.9,0.24,2.66,4.73
36.274,-4.08,0.49,2.6,4.86
36.284,-4.14,0.64,2.63,4.94
36.294,-4.17,0.7,2.68,5.01
36.304,-4.15,0.72,2.73,5.02
36.314,-3.97,0.61,2.86,4.93
36.324,-3.62,0.41,3.04,4.75
36.334,-3.13,0.17,3.24,4.5
36.343,-2.65,-0.06,3.38,4.29
36.354,-2.2,-0.21,3.45,4.1
36.364,-1.72,-0.39,3.47,3.89
36.374,-1.3,-0.57,3.42,3.71
36.384,-0.89,-0.68,3.39,3.57
36.393,-0.62,-0.68,3.32,3.45
36.404,-0.52,-0.63,3.25,3.35
36.413,-0.55,-0.43,3.28,3.36
36.423,-0.68,-0.19,3.33,3.41
36.433,-1.01,0.16,3.29,3.44
36.443,-1.36,0.68,3.37,3.7
36.453,-1.84,1.24,3.36,4.03
36.463,-2.26,1.69,3.32,4.36
36.473,-2.63,2.09,3.21,4.65
36.483,-2.91,2.34,3.13,4.87
36.493,-3.08,2.52,3.01,4.99
36.503,-3.17,2.56,2.94,5.02
36.513,-3.19,2.53,2.92,5.01
36.523,-3.14,2.4,2.92,4.91
36.533,-2.92,2.24,2.96,4.73
36.543,-2.61,2,3.02,4.47
36.553,-2.22,1.73,3.08,4.17
36.563,-1.8,1.48,3.08,3.86
36.573,-1.46,1.33,3.14,3.71
36.583,-1.15,1.21,3.24,3.64
36.593,-0.85,1.13,3.32,3.61
36.603,-0.61,1.16,3.34,3.59
36.613,-0.46,1.31,3.26,3.55
36.623,-0.22,1.47,3.2,3.53
36.633,-0.07,1.57,3.06,3.43
36.643,-0.03,1.73,2.88,3.36
36.653,-0.07,1.98,2.77,3.4
36.663,-0.06,2.19,2.68,3.47
36.673,-0.02,2.35,2.6,3.5
36.683,-0.06,2.53,2.44,3.51
36.693,-0.13,2.74,2.4,3.65
36.703,-0.09,2.88,2.38,3.73
36.713,-0.03,2.95,2.31,3.75
36.723,-0.07,3.08,2.25,3.81
36.733,-0.05,3.15,2.24,3.86
36.743,0.02,3.16,2.21,3.86
36.753,0.05,3.16,2.17,3.83
36.763,0.09,3.16,2.14,3.81
36.773,0.2,3.13,2.11,3.78
36.783,0.27,3.12,2.05,3.74
36.793,0.36,3.07,1.99,3.68
36.803,0.42,3.04,1.97,3.65
36.813,0.55,2.98,1.95,3.6
36.823,0.63,2.92,1.93,3.56
36.833,0.69,2.87,1.9,3.51
36.843,0.76,2.8,1.85,3.44
36.853,0.82,2.73,1.79,3.36
36.863,0.86,2.66,1.7,3.27
36.873,0.88,2.62,1.58,3.19
36.883,0.91,2.6,1.46,3.12
36.893,0.91,2.63,1.33,3.08
36.903,0.86,2.66,1.21,3.04
36.913,0.79,2.69,1.11,3.01
36.923,0.64,2.74,1,2.99
36.933,0.51,2.75,0.88,2.93
36.943,0.41,2.71,0.74,2.84
36.953,0.31,2.64,0.59,2.72
36.962,0.3,2.5,0.47,2.56
36.973,0.26,2.38,0.37,2.42
36.983,0,2.39,0.26,2.41
36.993,-0.41,2.5,0.25,2.54
37.003,-0.81,2.6,0.29,2.73
37.012,-1.16,2.62,0.27,2.87
37.022,-1.42,2.56,0.17,2.93
37.033,-1.57,2.34,0.04,2.82
37.042,-1.74,2.2,-0.16,2.81
37.053,-1.91,2.09,-0.39,2.86
37.062,-1.86,1.79,-0.47,2.62
37.072,-1.76,1.53,-0.56,2.4
37.082,-1.6,1.22,-0.62,2.11
37.092,-1.43,0.93,-0.59,1.8
37.102,-1.22,0.65,-0.56,1.49
37.112,-0.94,0.3,-0.49,1.1
37.122,-0.64,0,-0.47,0.8
37.132,-0.34,-0.27,-0.46,0.63
37.142,-0.08,-0.52,-0.5,0.72
37.152,0.09,-0.67,-0.54,0.86
37.162,0.21,-0.74,-0.54,0.94
37.172,0.32,-0.81,-0.54,1.02
37.182,0.25,-0.77,-0.58,0.99
37.192,0.1,-0.73,-0.63,0.97
37.202,-0.11,-0.61,-0.69,0.92
37.212,-0.41,-0.36,-0.79,0.97
37.222,-0.75,-0.15,-0.86,1.15
37.232,-1.05,-0.05,-0.94,1.41
37.242,-1.22,-0.16,-1.07,1.63
37.252,-1.33,-0.29,-1.23,1.83
37.262,-1.52,-0.36,-1.4,2.1
37.272,-1.58,-0.49,-1.42,2.18
37.282,-1.51,-0.73,-1.4,2.19
37.292,-1.39,-0.99,-1.32,2.16
37.302,-1.21,-1.29,-1.27,2.18
37.312,-1.01,-1.6,-1.25,2.26
37.322,-0.78,-1.86,-1.23,2.36
37.332,-0.65,-1.98,-1.3,2.46
37.342,-0.45,-2.14,-1.25,2.52
37.352,-0.31,-2.31,-1.2,2.62
37.362,-0.25,-2.43,-1.22,2.73
37.372,-0.19,-2.55,-1.18,2.81
37.382,-0.12,-2.62,-1.16,2.86
37.392,-0.05,-2.66,-1.07,2.87
37.402,-0.02,-2.71,-0.98,2.88
37.412,-0.05,-2.7,-0.89,2.84
37.422,-0.11,-2.69,-0.78,2.8
37.432,-0.16,-2.68,-0.68,2.77
37.442,-0.25,-2.66,-0.62,2.74
37.452,-0.35,-2.63,-0.54,2.71
37.462,-0.43,-2.65,-0.45,2.72
37.472,-0.53,-2.67,-0.36,2.75
37.482,-0.65,-2.71,-0.31,2.8
37.492,-0.74,-2.76,-0.25,2.87
37.502,-0.82,-2.78,-0.2,2.9
37.512,-0.96,-2.77,-0.19,2.94
37.522,-1.07,-2.83,-0.19,3.03
37.532,-1.11,-2.92,-0.22,3.13
37.542,-1.21,-2.94,-0.24,3.19
37.552,-1.27,-2.99,-0.23,3.25
37.562,-1.27,-3.06,-0.18,3.32
37.572,-1.28,-3.13,-0.15,3.39
37.582,-1.28,-3.18,-0.11,3.43
37.592,-1.3,-3.21,-0.07,3.46
37.602,-1.3,-3.21,-0.01,3.47
37.612,-1.31,-3.2,0.03,3.46
37.622,-1.31,-3.19,0.06,3.45
37.632,-1.35,-3.13,0.06,3.41
37.642,-1.46,-3.08,0.04,3.41
37.652,-1.57,-3.01,0.05,3.4
37.661,-1.71,-2.91,0.08,3.37
37.672,-1.85,-2.8,0.12,3.36
37.682,-2.03,-2.66,0.19,3.35
37.691,-2.2,-2.51,0.28,3.35
37.701,-2.32,-2.39,0.37,3.35
37.711,-2.4,-2.28,0.42,3.34
37.722,-2.46,-2.16,0.5,3.31
37.732,-2.48,-2.08,0.55,3.29
37.741,-2.5,-1.99,0.58,3.25
37.751,-2.55,-1.87,0.63,3.22
37.761,-2.55,-1.8,0.69,3.19
37.771,-2.53,-1.69,0.77,3.14
37.781,-2.51,-1.57,0.84,3.08
37.791,-2.51,-1.45,0.85,3.01
37.801,-2.51,-1.28,0.8,2.93
37.811,-2.53,-1.13,0.74,2.87
37.821,-2.59,-0.98,0.69,2.85
37.831,-2.72,-0.78,0.61,2.89
37.841,-2.9,-0.58,0.54,3
37.851,-3.03,-0.43,0.46,3.1
37.861,-3.1,-0.31,0.43,3.14
37.871,-3.04,-0.28,0.45,3.08
37.881,-2.77,-0.37,0.57,2.85
37.891,-2.35,-0.55,0.74,2.52
37.901,-1.81,-0.75,0.98,2.19
37.911,-1.19,-0.91,1.18,1.91
37.921,-0.61,-1.04,1.32,1.78
37.931,-0.18,-1.13,1.36,1.78
37.941,0.04,-1.04,1.36,1.72
37.951,0.18,-0.89,1.38,1.65
37.961,0.22,-0.69,1.38,1.56
37.971,0.14,-0.43,1.33,1.41
37.981,-0.11,-0.04,1.26,1.27
37.991,-0.44,0.38,1.26,1.39
38.001,-0.86,0.88,1.33,1.81
38.011,-1.31,1.37,1.46,2.4
38.021,-1.69,1.8,1.68,2.99
38.031,-1.96,2.13,1.89,3.46
38.041,-2.21,2.28,2.02,3.76
38.051,-2.38,2.39,2.1,3.97
38.061,-2.38,2.46,2.2,4.07
38.071,-2.31,2.5,2.35,4.14
38.081,-2.16,2.47,2.5,4.12
38.091,-1.92,2.37,2.65,4.04
38.101,-1.66,2.28,2.76,3.94
38.111,-1.44,2.21,2.86,3.89
38.121,-1.22,2.15,2.97,3.86
38.131,-1.04,2.1,3.08,3.87
38.141,-0.85,2.08,3.19,3.9
38.151,-0.62,2.04,3.23,3.87
38.161,-0.39,2.04,3.21,3.83
38.171,-0.12,2.06,3.15,3.77
38.181,0.13,2.06,3.05,3.68
38.191,0.32,2.12,2.95,3.65
38.201,0.45,2.24,2.87,3.67
38.211,0.49,2.44,2.8,3.74
38.221,0.61,2.57,2.7,3.78
38.231,0.7,2.72,2.58,3.81
38.241,0.69,2.95,2.46,3.9
38.251,0.71,3.1,2.43,4
38.261,0.77,3.24,2.35,4.07
38.271,0.81,3.34,2.25,4.11
38.281,0.87,3.4,2.13,4.1
38.291,0.97,3.43,2,4.09
38.301,1.06,3.45,1.89,4.07
38.31,1.09,3.49,1.78,4.06
38.321,1.13,3.52,1.72,4.07
38.33,1.2,3.52,1.64,4.07
38.34,1.19,3.54,1.53,4.04
38.351,1.21,3.56,1.39,4.01
38.36,1.19,3.53,1.2,3.92
38.371,1.1,3.56,0.98,3.85
38.381,1.02,3.58,0.83,3.82
38.39,0.97,3.59,0.71,3.79
38.4,0.91,3.62,0.57,3.77
38.41,0.87,3.62,0.39,3.75
38.42,0.91,3.55,0.17,3.66
38.43,0.88,3.47,-0.08,3.58
38.44,0.8,3.4,-0.29,3.51
38.45,0.67,3.31,-0.38,3.39
38.46,0.53,3.24,-0.43,3.31
38.47,0.34,3.21,-0.45,3.26
38.48,0.14,3.14,-0.5,3.18
38.49,-0.07,3.1,-0.48,3.14
38.5,-0.34,3.12,-0.42,3.17
38.51,-0.81,3.29,-0.3,3.4
38.52,-1.44,3.57,-0.14,3.85
38.53,-2,3.82,-0.03,4.32
38.54,-2.28,3.86,0.1,4.48
38.55,-2.45,3.79,0.12,4.51
38.56,-2.49,3.63,0.11,4.4
38.57,-2.36,3.41,0.1,4.15
38.58,-1.83,2.87,0.18,3.41
38.59,-1.16,2.24,0.21,2.54
38.6,-0.59,1.6,0.13,1.71
38.61,-0.09,1.03,0.15,1.04
38.62,0.38,0.56,0.22,0.71
38.63,0.72,0.21,0.31,0.81
38.64,0.91,-0.05,0.25,0.94
38.65,1.03,-0.25,0.07,1.06
38.66,1.06,-0.35,-0.04,1.12
38.67,0.92,-0.37,-0.11,1
38.68,0.68,-0.3,-0.14,0.76
38.69,0.25,-0.13,-0.23,0.36
38.7,-0.21,0.1,-0.26,0.35
38.71,-0.74,0.38,-0.24,0.87
38.72,-1.38,0.66,-0.13,1.53
38.73,-1.84,0.74,0,1.98
38.74,-2.1,0.76,0.04,2.24
38.75,-2.28,0.71,0.05,2.39
38.76,-2.3,0.44,0.07,2.35
38.77,-2.28,0.14,0.13,2.29
38.78,-2.18,-0.17,0.27,2.2
38.79,-1.94,-0.56,0.51,2.08
38.8,-1.63,-0.99,0.67,2.02
38.81,-1.42,-1.32,0.68,2.05
38.82,-1.19,-1.65,0.69,2.15
38.83,-1.03,-1.94,0.62,2.28
38.84,-1,-2.09,0.53,2.38
38.85,-0.99,-2.23,0.5,2.49
38.86,-0.92,-2.37,0.46,2.58
38.87,-0.82,-2.45,0.39,2.61
38.88,-0.76,-2.48,0.35,2.61
38.89,-0.7,-2.49,0.3,2.6
38.9,-0.66,-2.55,0.23,2.65
38.91,-0.64,-2.65,0.15,2.73
38.92,-0.67,-2.68,0.11,2.77
38.93,-0.75,-2.77,0.14,2.87
38.94,-0.9,-2.77,0.18,2.92
38.95,-1.03,-2.75,0.25,2.95
38.96,-1.14,-2.79,0.27,3.03
38.97,-1.22,-2.85,0.25,3.11
38.979,-1.33,-2.91,0.2,3.2
38.99,-1.48,-2.95,0.14,3.31
39,-1.55,-3.06,0.12,3.44
39.01,-1.73,-3.13,-0.04,3.58
39.02,-1.77,-3.28,-0.04,3.73
39.03,-1.78,-3.41,-0.05,3.84
39.039,-1.86,-3.47,-0.07,3.94
39.049,-1.91,-3.56,-0.11,4.04
39.059,-1.92,-3.66,-0.16,4.14
39.069,-1.97,-3.71,-0.26,4.21
39.079,-2.03,-3.76,-0.33,4.29
39.089,-2.04,-3.72,-0.39,4.26
39.099,-2.01,-3.63,-0.4,4.17
39.109,-1.98,-3.53,-0.43,4.07
39.119,-1.97,-3.45,-0.46,4
39.129,-1.95,-3.4,-0.49,3.94
39.139,-1.96,-3.3,-0.49,3.88
39.149,-1.97,-3.2,-0.45,3.79
39.159,-1.92,-3.11,-0.38,3.67
39.169,-1.81,-3.01,-0.31,3.53
39.179,-1.73,-2.91,-0.26,3.39
39.189,-1.66,-2.8,-0.21,3.26
39.199,-1.6,-2.65,-0.18,3.09
39.209,-1.69,-2.39,-0.26,2.94
39.219,-1.79,-2.18,-0.34,2.84
39.229,-1.84,-1.99,-0.35,2.73
39.239,-2.05,-1.75,-0.43,2.73
39.249,-2.33,-1.44,-0.48,2.78
39.259,-2.56,-1.25,-0.41,2.88
39.269,-2.75,-1.14,-0.32,3
39.279,-2.85,-1.06,-0.23,3.04
39.289,-2.73,-1.09,-0.08,2.95
39.299,-2.46,-1.19,0.12,2.74
39.309,-2.04,-1.39,0.36,2.49
39.319,-1.6,-1.54,0.61,2.3
39.329,-1.26,-1.57,0.8,2.16
39.339,-0.93,-1.4,0.96,1.93
39.349,-0.72,-1.25,0.99,1.75
39.359,-0.72,-1.01,0.86,1.51
39.369,-0.75,-0.68,0.82,1.3
39.379,-0.77,-0.31,0.86,1.19
39.389,-0.83,0.13,0.87,1.21
39.399,-0.93,0.57,0.88,1.4
39.409,-1.03,0.95,0.83,1.63
39.419,-1.15,1.28,0.72,1.87
39.429,-1.31,1.59,0.61,2.14
39.439,-1.54,1.88,0.51,2.48
39.449,-1.78,2.09,0.49,2.79
39.459,-1.96,2.25,0.59,3.05
39.469,-1.99,2.43,0.78,3.24
39.479,-1.71,2.47,1.13,3.21
39.489,-1.4,2.47,1.4,3.16
39.499,-1.05,2.41,1.63,3.09
39.509,-0.72,2.33,1.71,2.98
39.519,-0.46,2.31,1.69,2.9
39.529,-0.11,2.21,1.76,2.83
39.539,0.12,2.2,1.78,2.83
39.549,0.24,2.26,1.8,2.9
39.559,0.29,2.34,1.84,2.99
39.569,0.35,2.43,1.86,3.08
39.579,0.34,2.53,1.83,3.14
39.589,0.33,2.69,1.85,3.28
39.599,0.38,2.81,1.87,3.39
39.609,0.43,2.88,1.87,3.46
39.619,0.5,2.98,1.83,3.53
39.628,0.62,3.02,1.78,3.56
39.639,0.73,3.07,1.75,3.61
39.649,0.86,3.09,1.7,3.63
39.658,1.03,3.11,1.63,3.66
39.668,1.13,3.15,1.53,3.68
39.679,1.14,3.22,1.47,3.72
39.689,1.2,3.27,1.4,3.76
39.699,1.24,3.32,1.29,3.77
39.709,1.25,3.38,1.19,3.79
39.718,1.21,3.44,1.11,3.81
39.728,1.21,3.45,1.06,3.81
39.738,1.11,3.45,0.97,3.76
39.748,0.98,3.49,0.86,3.73
39.758,0.87,3.52,0.72,3.7
39.768,0.77,3.53,0.59,3.67
39.778,0.68,3.53,0.5,3.63
39.788,0.68,3.49,0.42,3.58
39.798,0.74,3.39,0.32,3.49
39.808,0.78,3.33,0.23,3.43
39.818,0.86,3.29,0.15,3.4
39.828,0.97,3.28,0.08,3.42
39.838,1.09,3.21,-0.07,3.39
39.848,1.16,3.13,-0.26,3.35
39.858,1.23,3.07,-0.4,3.33
39.868,1.25,3.03,-0.53,3.32
39.878,1.16,2.99,-0.66,3.27
39.888,0.98,2.98,-0.76,3.23
39.898,0.66,3.05,-0.82,3.23
39.908,0.13,3.26,-0.87,3.37
39.918,-0.52,3.52,-0.8,3.65
39.928,-0.95,3.67,-0.6,3.84
39.938,-1.12,3.69,-0.37,3.87
39.948,-1.15,3.61,-0.22,3.8
39.958,-1.17,3.62,-0.1,3.8
39.968,-1.22,3.58,0.02,3.78
39.978,-1.19,3.38,0.13,3.58
39.988,-1.05,3.03,0.25,3.21
39.998,-0.77,2.58,0.22,2.7
40.008,-0.44,2.08,0.08,2.13
40.018,-0.06,1.51,-0.04,1.51
40.028,0.38,1.05,0.11,1.12
40.038,0.69,0.67,0.3,1.01
40.048,0.88,0.36,0.4,1.03
40.058,1.04,0.02,0.46,1.13
40.068,0.94,-0.11,0.3,0.99
40.078,0.74,-0.15,0.19,0.78
40.088,0.36,-0.04,-0.02,0.37
40.098,-0.02,0.11,-0.2,0.23
40.108,-0.53,0.35,-0.29,0.69
40.118,-0.89,0.51,-0.32,1.07
40.128,-1.16,0.63,-0.36,1.37
40.138,-1.4,0.75,-0.39,1.63
40.148,-1.55,0.79,-0.37,1.78
40.158,-1.71,0.86,-0.28,1.93
40.168,-1.89,0.84,-0.08,2.07
40.178,-1.89,0.72,0.2,2.04
40.188,-1.81,0.52,0.45,1.93
40.198,-1.68,0.22,0.58,1.79
40.208,-1.42,-0.15,0.72,1.6
40.218,-1.11,-0.54,0.76,1.45
40.228,-0.87,-0.87,0.79,1.46
40.238,-0.71,-1.12,0.83,1.57
40.248,-0.61,-1.34,0.87,1.71
40.258,-0.53,-1.53,0.83,1.82
40.268,-0.47,-1.69,0.76,1.91
40.278,-0.43,-1.81,0.61,1.96
40.288,-0.36,-1.91,0.47,2
40.297,-0.25,-2.03,0.4,2.09
40.307,-0.22,-2.07,0.41,2.13
40.317,-0.33,-2.07,0.39,2.13
40.328,-0.51,-2.01,0.3,2.1
40.337,-0.66,-1.92,0.27,2.05
40.348,-0.79,-1.88,0.33,2.06
40.357,-0.99,-1.84,0.38,2.12
40.367,-1.2,-1.85,0.35,2.24
40.377,-1.42,-1.9,0.28,2.39
40.388,-1.57,-1.98,0.23,2.54
40.397,-1.69,-2.08,0.15,2.68
40.407,-1.81,-2.17,0.03,2.82
40.417,-1.82,-2.32,-0.09,2.95
40.427,-1.79,-2.58,-0.24,3.14
40.437,-1.8,-2.78,-0.38,3.33
40.447,-1.76,-2.97,-0.37,3.47
40.457,-1.77,-3.11,-0.37,3.6
40.467,-1.79,-3.24,-0.41,3.72
40.477,-1.79,-3.35,-0.46,3.82
40.487,-1.78,-3.42,-0.56,3.89
40.497,-1.74,-3.43,-0.62,3.89
40.507,-1.62,-3.43,-0.62,3.85
40.517,-1.6,-3.43,-0.67,3.84
40.527,-1.63,-3.41,-0.71,3.85
40.537,-1.72,-3.35,-0.74,3.84
40.547,-1.82,-3.29,-0.75,3.84
40.557,-2,-3.18,-0.71,3.83
40.567,-2.09,-3.13,-0.67,3.82
40.577,-2.13,-3.12,-0.63,3.83
40.587,-2.25,-3,-0.63,3.81
40.597,-2.48,-2.84,-0.67,3.83
40.607,-2.68,-2.69,-0.72,3.87
40.617,-2.81,-2.59,-0.68,3.88
40.627,-2.89,-2.49,-0.66,3.87
40.637,-2.93,-2.41,-0.6,3.84
40.647,-2.88,-2.35,-0.51,3.75
40.657,-2.74,-2.26,-0.43,3.58
40.667,-2.53,-2.2,-0.29,3.37
40.677,-2.21,-2.23,-0.18,3.14
40.687,-1.82,-2.29,-0.11,2.93
40.697,-1.44,-2.35,-0.04,2.76
40.707,-1.08,-2.41,0.02,2.64
40.717,-0.71,-2.4,0.14,2.5
40.727,-0.38,-2.38,0.31,2.43
40.737,-0.15,-2.27,0.43,2.32
40.747,-0.07,-2.1,0.47,2.15
40.757,-0.12,-1.87,0.45,1.93
40.767,-0.29,-1.5,0.44,1.59
40.777,-0.51,-1.1,0.43,1.29
40.787,-0.76,-0.7,0.44,1.12
40.797,-1.09,-0.16,0.48,1.2
40.807,-1.37,0.33,0.54,1.52
40.817,-1.55,0.78,0.58,1.83
40.827,-1.69,1.16,0.57,2.13
40.837,-1.82,1.5,0.62,2.44
40.847,-1.93,1.68,0.68,2.65
40.857,-2.11,1.82,0.7,2.87
40.867,-2.19,2.02,0.83,3.09
40.877,-2.11,2.06,0.98,3.1
40.887,-1.87,2.04,1.22,3.02
40.897,-1.6,1.98,1.44,2.93
40.907,-1.31,1.9,1.62,2.82
40.917,-0.99,1.78,1.77,2.7
40.927,-0.63,1.64,1.86,2.56
40.936,-0.33,1.55,1.88,2.46
40.947,-0.11,1.49,1.86,2.38
40.957,0.1,1.5,1.84,2.37
40.966,0.3,1.58,1.85,2.46
40.977,0.49,1.69,1.89,2.58
40.986,0.59,1.78,1.86,2.65
40.996,0.65,1.94,1.83,2.74
41.006,0.71,2.1,1.83,2.87
41.016,0.72,2.3,1.81,3.01
41.026,0.72,2.52,1.83,3.2
41.036,0.69,2.74,1.83,3.36
41.046,0.69,2.92,1.83,3.52
41.056,0.65,3.14,1.91,3.73
41.066,0.52,3.33,1.88,3.86
41.076,0.61,3.42,1.94,3.98
41.086,0.61,3.47,1.92,4.02
41.096,0.57,3.5,1.88,4.01
41.106,0.54,3.48,1.85,3.98
41.116,0.51,3.5,1.83,3.98
41.126,0.47,3.56,1.84,4.04
41.136,0.4,3.62,1.85,4.08
41.146,0.38,3.63,1.84,4.08
41.156,0.4,3.63,1.8,4.07
41.166,0.41,3.62,1.68,4.02
41.176,0.39,3.65,1.56,3.99
41.186,0.38,3.7,1.47,4
41.196,0.38,3.78,1.39,4.04
41.206,0.46,3.81,1.32,4.06
41.216,0.52,3.8,1.24,4.03
41.226,0.65,3.79,1.18,4.02
41.236,0.86,3.64,1.04,3.88
41.246,1.01,3.55,0.81,3.78
41.256,1.16,3.42,0.57,3.65
41.266,1.31,3.35,0.39,3.62
41.276,1.42,3.26,0.2,3.56
41.286,1.37,3.21,-0.03,3.49
41.296,1.02,3.32,-0.2,3.48
41.306,0.42,3.53,-0.24,3.57
41.316,-0.22,3.75,-0.18,3.76
41.326,-0.5,3.82,0.04,3.85
41.336,-0.67,3.84,0.17,3.9
41.346,-0.83,3.83,0.16,3.92
41.356,-0.98,3.76,0.08,3.88
41.366,-0.93,3.59,0.05,3.71
41.376,-0.68,3.34,0.08,3.41
41.386,-0.29,3.01,0.16,3.03
41.396,0.14,2.59,0.21,2.6
41.406,0.53,2.14,0.23,2.22
41.416,0.88,1.73,0.21,1.95
41.426,1.18,1.32,0.19,1.78
41.436,1.29,1.1,0.16,1.7
41.446,1.29,0.93,0.11,1.6
41.456,1.13,0.85,0.02,1.42
41.466,0.78,0.88,-0.1,1.18
41.476,0.37,0.91,-0.24,1.01
41.486,-0.08,0.94,-0.43,1.04
41.496,-0.5,0.98,-0.57,1.24
41.506,-0.88,0.99,-0.67,1.49
41.516,-1.25,1.05,-0.73,1.79
41.526,-1.51,1.09,-0.75,2.01
41.536,-1.68,1.12,-0.76,2.16
41.546,-1.83,1.09,-0.73,2.25
41.556,-1.82,0.94,-0.65,2.15
41.566,-1.7,0.72,-0.5,1.92
41.576,-1.49,0.4,-0.37,1.58
41.586,-1.21,0.02,-0.24,1.23
41.596,-1,-0.34,-0.15,1.07
41.606,-0.83,-0.67,-0.06,1.07
41.616,-0.68,-0.96,0.03,1.18
41.626,-0.6,-1.24,0.06,1.37
41.635,-0.56,-1.45,0.04,1.55
41.646,-0.57,-1.58,0.02,1.68
41.656,-0.52,-1.69,0.01,1.77
41.665,-0.51,-1.68,-0.01,1.75
41.675,-0.5,-1.72,-0.12,1.8
41.685,-0.5,-1.81,-0.25,1.89
41.695,-0.6,-1.81,-0.36,1.94
41.705,-0.73,-1.81,-0.41,1.99
41.715,-0.84,-1.78,-0.41,2.01
41.725,-0.94,-1.78,-0.41,2.06
41.735,-1,-1.81,-0.4,2.11
41.745,-1.07,-1.88,-0.42,2.21
41.755,-1.19,-1.99,-0.47,2.37
41.765,-1.28,-2.09,-0.49,2.5
41.775,-1.3,-2.19,-0.45,2.59
41.785,-1.34,-2.27,-0.43,2.67
41.795,-1.32,-2.42,-0.42,2.79
41.805,-1.28,-2.61,-0.44,2.94
41.815,-1.27,-2.76,-0.49,3.08
41.825,-1.34,-2.88,-0.57,3.22
41.835,-1.43,-2.98,-0.6,3.36
41.845,-1.47,-3.08,-0.59,3.46
41.855,-1.47,-3.2,-0.56,3.56
41.865,-1.46,-3.31,-0.57,3.66
41.875,-1.46,-3.4,-0.62,3.75
41.885,-1.44,-3.47,-0.66,3.81
41.895,-1.4,-3.51,-0.67,3.84
41.905,-1.49,-3.46,-0.69,3.83
41.915,-1.57,-3.42,-0.71,3.83
41.925,-1.61,-3.4,-0.7,3.83
41.935,-1.66,-3.4,-0.69,3.84
41.945,-1.76,-3.35,-0.68,3.84
41.955,-1.89,-3.3,-0.6,3.85
41.965,-1.96,-3.28,-0.51,3.86
41.975,-2.01,-3.23,-0.46,3.83
41.985,-2.07,-3.19,-0.46,3.83
41.995,-2.08,-3.14,-0.44,3.79
42.005,-2.14,-2.98,-0.46,3.7
42.015,-2.35,-2.73,-0.51,3.64
42.025,-2.55,-2.57,-0.54,3.66
42.035,-2.62,-2.53,-0.53,3.68
42.045,-2.66,-2.46,-0.44,3.65
42.055,-2.73,-2.33,-0.37,3.61
42.065,-2.75,-2.26,-0.35,3.58
42.075,-2.76,-2.24,-0.35,3.57
42.085,-2.75,-2.21,-0.32,3.54
42.095,-2.7,-2.21,-0.23,3.49
42.105,-2.55,-2.2,-0.12,3.37
42.115,-2.4,-2.2,-0.02,3.25
42.125,-2.14,-2.23,0.14,3.1
42.135,-1.76,-2.3,0.33,2.92
42.145,-1.34,-2.28,0.55,2.7
42.155,-0.96,-2.23,0.68,2.52
42.165,-0.62,-2.14,0.82,2.37
42.175,-0.36,-1.99,0.93,2.22
42.185,-0.21,-1.77,0.96,2.02
42.195,-0.13,-1.52,0.94,1.79
42.205,-0.27,-1.11,0.83,1.41
42.215,-0.41,-0.81,0.8,1.21
42.225,-0.7,-0.4,0.67,1.05
42.235,-1.11,0.03,0.55,1.24
42.245,-1.58,0.4,0.59,1.74
42.255,-2.12,0.72,0.67,2.33
42.265,-2.55,1.04,0.82,2.87
42.275,-2.84,1.33,1.06,3.31
42.285,-3,1.44,1.31,3.57
42.294,-3.1,1.54,1.55,3.8
42.305,-3.21,1.61,1.76,4
42.315,-3.28,1.7,2.04,4.22
42.325,-3.19,1.78,2.34,4.34
42.334,-3,1.77,2.61,4.35
42.344,-2.71,1.74,2.92,4.34
42.355,-2.46,1.72,3.16,4.36
42.364,-2.17,1.79,3.34,4.37
42.374,-1.8,1.81,3.51,4.34
42.384,-1.53,1.84,3.62,4.34
42.394,-1.29,1.89,3.69,4.34
42.404,-1.11,1.98,3.75,4.39
42.414,-1.04,2.1,3.81,4.48
42.424,-0.98,2.2,3.91,4.59
42.434,-0.92,2.31,3.96,4.67
42.444,-0.79,2.35,3.99,4.7
42.454,-0.66,2.43,3.93,4.67
42.464,-0.6,2.55,3.87,4.67
42.474,-0.6,2.63,3.85,4.7
42.484,-0.68,2.8,3.94,4.88
42.494,-0.78,2.9,4.04,5.03
42.504,-0.82,2.97,4.19,5.2
42.514,-0.81,2.98,4.23,5.24
42.524,-0.79,2.88,4.15,5.12
42.534,-0.69,2.81,4,4.94
42.544,-0.66,2.72,3.66,4.61
42.554,-0.61,2.59,3.39,4.31
42.564,-0.48,2.41,3.2,4.03
42.574,-0.48,2.34,2.95,3.8
42.584,-0.41,2.22,2.92,3.69
42.594,-0.33,2.11,2.88,3.58
42.604,-0.28,1.98,2.71,3.37
42.614,-0.28,2,2.47,3.2
42.624,-0.32,2.07,2.26,3.08
42.634,-0.47,2.17,2.13,3.08
42.644,-0.62,2.27,1.94,3.05
42.654,-0.67,2.25,1.65,2.87
42.664,-0.48,2.01,1.45,2.52
42.674,-0.42,1.78,1.17,2.17
42.684,-0.35,1.64,0.98,1.94
42.694,-0.23,1.47,0.76,1.67
42.704,-0.21,1.25,0.48,1.36
42.714,-0.25,1.09,0.21,1.14
42.724,-0.43,1.1,-0.09,1.18
42.734,-0.92,1.26,-0.44,1.62
42.744,-1.37,1.36,-0.68,2.04
42.754,-1.55,1.36,-0.68,2.17
42.764,-1.59,1.2,-0.63,2.09
42.774,-1.47,0.95,-0.52,1.83
42.784,-1.33,0.76,-0.59,1.64
42.794,-1.14,0.5,-0.71,1.44
42.804,-1.01,0.17,-0.75,1.27
42.814,-0.89,-0.18,-0.68,1.13
42.824,-0.78,-0.43,-0.68,1.12
42.834,-0.59,-0.62,-0.72,1.12
42.844,-0.28,-0.74,-0.93,1.22
42.854,-0.13,-0.74,-1.07,1.31
42.864,0,-0.84,-0.95,1.27
42.874,0.19,-0.91,-0.72,1.18
42.884,0.29,-0.96,-0.57,1.15
42.894,0.32,-0.96,-0.49,1.13
42.904,0.35,-0.93,-0.46,1.1
42.914,0.44,-0.93,-0.49,1.14
42.924,0.46,-0.98,-0.56,1.22
42.933,0.35,-0.9,-0.63,1.15
42.944,0.15,-0.87,-0.57,1.05
42.954,0.28,-0.36,-0.72,0.86
42.963,-0.04,-0.36,-0.22,0.43
42.974,-0.99,-0.49,-0.06,1.1
42.984,-1.19,0.09,0.12,1.2
42.993,-1.49,0.3,0.6,1.63
43.004,-1.64,0.53,0.95,1.97
43.014,-1.66,0.7,1.03,2.07
43.023,-1.62,0.76,0.97,2.04
43.033,-1.48,0.75,0.94,1.91
43.043,-1.4,0.73,0.9,1.82
43.053,-1.4,0.71,0.84,1.78
43.063,-1.35,0.64,0.78,1.68
43.073,-1.31,0.56,0.81,1.64
43.083,-1.08,0.5,0.75,1.41
43.093,-0.76,0.47,0.59,1.07
43.103,-0.51,0.42,0.39,0.77
43.113,-0.37,0.46,0.11,0.6
43.123,-0.29,0.53,-0.14,0.62
43.133,-0.19,0.66,-0.43,0.81
43.143,0.02,0.81,-0.65,1.03
43.153,0.26,0.92,-0.68,1.18
43.163,0.37,1.1,-0.75,1.38
43.173,0.34,1.13,-0.73,1.38
43.183,0.35,1.34,-0.73,1.56
43.193,0.4,1.43,-0.67,1.62
