time,ax,ay,az,aT
0.0270,1.7180,0.0210,-0.2170,1.732
0.0270,1.5810,0.0100,-0.0970,1.584
0.0270,1.4110,0.0930,0.2800,1.442
0.0340,1.2900,0.1900,0.3890,1.361
0.0420,0.9920,0.0980,0.5260,1.127
0.0550,0.8890,-0.1020,0.4450,0.999
0.0700,0.4960,-0.1890,0.3200,0.620
0.0730,0.0890,-0.2750,0.0630,0.296
0.0820,-0.3210,-0.4700,0.0800,0.575
0.0920,-0.6140,-1.1840,0.4060,1.394
0.1030,-1.3930,-1.5130,0.6790,2.166
0.1170,-1.0740,-1.5720,0.2490,1.920
0.1230,-1.3010,-1.2500,-0.4230,1.853
0.1330,-1.7480,-1.0300,-0.9450,2.238
0.1650,-1.9740,-1.4600,-0.4310,2.493
0.1660,-1.4590,-0.7370,-0.0650,1.636
0.1660,-1.4030,-0.3280,0.0980,1.444
0.1840,-1.4970,-0.3040,0.3650,1.571
0.1850,-1.3630,-0.6540,-0.1340,1.518
0.2020,-1.2010,-0.8550,-0.3700,1.520
0.2050,-0.8270,-0.9160,-0.1500,1.243
0.2220,-0.6400,-1.3900,0.0730,1.532
0.2230,-1.0070,-0.9730,-0.4100,1.459
0.2670,-1.2730,-0.6410,-0.7370,1.605
0.2680,-1.1520,-0.8600,-0.5160,1.527
0.2690,-0.8710,-1.2790,-0.5050,1.628
0.2690,-0.8490,-1.2170,-0.5310,1.576
0.2800,-1.0740,-0.8610,-0.9600,1.678
0.2820,-1.6110,-0.2010,-2.1410,2.687
0.3080,-2.4550,0.3340,-2.4100,3.456
0.3090,-1.0630,0.9250,-0.3870,1.461
0.3140,-0.3560,1.8150,1.1130,2.159
0.3290,-0.2530,2.5090,0.6600,2.607
0.3340,-0.3420,3.0050,-0.2590,3.035
0.3510,-0.5890,2.3190,-1.2380,2.694
0.3540,-0.5750,1.4160,-1.9820,2.503
0.3630,0.0310,0.7380,-1.6620,1.819
0.3880,0.1730,0.4210,-0.7490,0.876
0.3880,-0.0140,0.5170,-0.3570,0.628
0.3940,0.0490,0.5750,-0.4960,0.761
0.4040,0.2410,0.3180,-0.7250,0.828
0.4160,0.1270,0.1270,-0.9880,1.004
0.4530,0.0100,0.1150,-1.0160,1.023
0.4530,0.1110,0.1390,-0.8080,0.827
0.4530,0.2720,0.0800,-1.0840,1.120
0.4540,0.5260,0.5290,-1.2980,1.497
0.4630,-0.6270,0.4580,0.5180,0.933
0.4730,0.4910,0.0150,0.0970,0.501
0.4820,-0.0620,0.2210,0.6490,0.688
0.4950,0.2270,0.7280,0.7640,1.079
0.5040,0.3160,0.9690,0.6940,1.233
0.5150,0.5500,0.8980,0.2950,1.094
0.5240,0.7430,0.8440,-0.5390,1.247
0.5320,0.7610,0.8400,-1.0480,1.544
0.5680,1.0540,0.7440,-0.9770,1.618
0.5680,1.1100,0.6440,-0.5710,1.405
0.5680,1.0920,0.2860,-0.1680,1.141
0.5770,1.0190,-0.2350,-0.3230,1.094
0.5820,0.7360,-0.4880,-0.5690,1.051
0.6030,0.5940,-0.5290,-0.3290,0.861
0.6190,0.6090,-0.5330,-0.0320,0.810
0.6200,0.6470,-0.5720,-0.0210,0.864
0.6400,1.0600,-0.7580,-0.0540,1.304
0.6410,1.1550,-1.1140,0.1900,1.616
0.6430,0.0580,-0.7560,0.5750,0.952
0.6540,0.2970,-0.9080,0.3310,1.011
0.6730,0.7750,-1.2630,0.1810,1.493
0.6730,0.8380,-1.6830,-0.0200,1.880
0.6830,0.5760,-1.9990,-0.2940,2.101
0.6930,0.5780,-2.1250,-0.2540,2.217
0.7040,-0.5730,-1.2550,0.4920,1.465
0.7160,-1.2780,-0.1950,1.4800,1.965
0.7230,-0.1060,-0.0150,1.4970,1.501
0.7330,0.3440,-0.3210,1.0910,1.188
0.7460,-0.5780,-0.4740,1.0630,1.300
0.7510,-0.8180,-0.8210,0.9010,1.468
0.7620,0.7740,-1.4910,-0.1640,1.688
0.7720,1.7500,-1.5820,-1.4450,2.766
0.7820,0.7750,-1.6510,-1.3560,2.273
0.7960,1.1970,-2.3530,-0.6660,2.723
0.8030,0.9280,-3.7800,0.7990,3.973
0.8160,0.4730,-4.8260,1.9880,5.241
0.8220,1.6840,-4.3460,0.9000,4.747
0.8320,1.9310,-3.8020,-0.9600,4.371
0.8440,1.5170,-3.4940,-2.4080,4.506
0.8520,1.0360,-3.3970,-3.3770,4.901
0.8620,0.7300,-3.1960,-3.9750,5.152
0.8720,0.4130,-3.4050,-3.7700,5.097
0.8820,0.1960,-4.2050,-2.7790,5.044
0.8930,0.0850,-5.3340,-1.6920,5.597
0.9080,0.0130,-5.8670,-0.9000,5.936
0.9120,0.2390,-5.4490,-0.1050,5.455
0.9330,1.0070,-4.5740,0.6520,4.729
0.9340,2.0950,-3.9500,1.0790,4.600
0.9420,2.2110,-4.0790,1.1360,4.777
0.9530,1.0710,-4.5030,0.9740,4.730
0.9640,-0.7490,-4.3540,0.5140,4.448
0.9740,-1.7340,-4.0850,-0.6500,4.485
0.9830,-2.3850,-2.8400,-2.7590,4.622
0.9920,-1.0390,-2.5140,-4.1600,4.970
1.0050,-0.7910,-1.5940,-4.2540,4.611
1.0130,-0.2530,-1.5450,-2.1010,2.620
1.0230,0.0310,-1.2110,0.9970,1.569
1.0390,0.7730,-0.8850,2.8650,3.097
1.0410,1.2980,-0.1320,3.5100,3.745
1.0510,1.2610,1.2180,3.1860,3.637
1.0620,1.0270,2.3370,2.0480,3.273
1.0750,0.8010,2.6960,1.0430,3.000
1.0820,0.0030,3.0760,1.0600,3.254
1.0920,-0.4450,2.9640,1.2300,3.240
1.1040,-3.5120,2.2990,1.1740,4.359
1.1120,-5.6380,1.8530,1.0020,6.019
1.1220,-6.1030,1.8440,1.5290,6.556
1.1320,-4.6790,1.6350,1.8460,5.289
1.1420,-1.7340,2.1710,2.0200,3.435
1.1530,2.0330,1.3350,0.6820,2.526
1.1620,2.7690,0.3570,-2.0350,3.455
1.1720,-1.4540,4.3160,-0.7280,4.612
1.1810,-4.9150,8.9370,1.0440,10.253
1.1920,-4.1970,10.5210,2.8270,11.675
1.2020,-2.0290,10.6290,4.3760,11.672
1.2120,0.6010,9.7940,5.7940,11.395
1.2240,1.1260,8.3500,9.4150,12.635
1.2320,3.3650,7.5490,9.2600,12.412
1.2470,4.8010,8.3240,10.4450,14.193
1.2540,7.2620,10.3590,12.9470,18.102
1.2620,9.1260,11.4330,14.8070,20.815
1.2720,8.9680,10.7850,16.3170,21.517
1.2820,7.0520,10.2870,18.1380,22.012
1.2920,4.8560,10.4510,20.2660,23.313
1.3020,4.0220,10.3620,22.1730,24.803
1.3120,4.9120,9.3410,23.3250,25.602
1.3280,6.5760,7.1910,24.1700,26.060
1.3320,7.1200,4.3130,24.9260,26.279
1.3480,6.4720,1.1770,25.9610,26.781
1.3530,6.4820,-0.8570,26.9210,27.704
1.3640,7.3150,-3.1160,26.8020,27.957
1.3730,6.8320,-6.6940,24.1370,25.963
1.3810,5.3650,-8.8500,20.7330,23.172
1.3990,3.2740,-10.6090,17.0430,20.340
1.4200,0.6090,-12.7310,13.3130,18.431
1.4200,-1.3470,-13.9870,10.1530,17.336
1.4970,-2.5440,-14.5480,6.3120,16.061
1.5040,-3.9910,-14.8240,1.9580,15.476
1.5050,-5.0580,-14.0220,-0.1940,14.908
1.5050,-5.6980,-13.0180,-1.3410,14.274
1.5050,-6.5000,-12.4570,-3.0060,14.369
1.5060,-7.4610,-12.4950,-5.3300,15.498
1.5080,-8.9640,-12.8040,-7.1730,17.197
1.5090,-10.3040,-13.5970,-8.3980,19.015
1.5100,-11.1080,-15.0300,-9.2180,20.839
1.5380,-11.4790,-17.0520,-9.5160,22.652
1.5380,-11.0920,-19.6140,-9.4230,24.424
1.5390,-9.5410,-22.3270,-8.0420,25.577
1.5430,-9.5990,-24.3470,-6.8290,27.047
1.5520,-9.2530,-26.2100,-5.9400,28.423
1.5730,-10.2930,-26.9170,-4.6830,29.196
1.5750,-11.6520,-26.1780,-2.6840,28.780
1.5810,-11.7540,-24.9040,-1.7640,27.595
1.5910,-11.4870,-23.9570,-0.8730,26.583
1.6020,-8.9780,-23.1820,-0.6740,24.869
1.6110,-6.5900,-22.4410,-1.3610,23.428
1.6210,-4.3250,-21.9100,-2.6970,22.495
1.6310,-2.7400,-21.4230,-4.1610,21.995
1.6410,-1.3700,-20.4900,-5.3970,21.233
1.6510,0.5540,-19.5550,-6.4220,20.590
1.6610,3.2120,-18.7220,-7.0910,20.276
1.6710,6.7320,-17.6520,-6.8390,20.092
1.6810,11.6590,-16.5530,-5.5420,20.992
1.6910,18.4990,-15.2860,-3.9940,24.327
1.7010,26.3380,-13.9360,-3.0580,29.954
1.7110,31.4710,-12.0230,-3.2070,33.842
1.7220,32.7760,-8.5040,-4.9510,34.221
1.7520,29.9600,-5.1750,-6.6490,31.122
1.7530,27.3480,-1.9850,-8.1900,28.617
1.7540,26.3950,-0.0200,-8.9910,27.884
1.7650,26.4590,1.2030,-8.6540,27.864
1.7740,26.3850,2.7490,-6.7930,27.384
1.7830,26.2470,4.5170,-3.8290,26.907
1.7910,26.0520,6.0700,-0.6670,26.758
1.8020,24.4800,7.1800,1.8000,25.575
1.8120,20.8830,8.0890,3.4850,22.664
1.8290,16.2810,8.8850,4.2340,19.025
1.8340,11.9320,9.3530,4.5510,15.829
1.8440,7.8860,9.5400,4.4840,13.165
1.8550,4.1920,9.5590,4.1280,11.224
1.8670,0.9900,9.4170,3.6830,10.160
1.8740,-1.7600,9.1360,3.3060,9.874
1.8820,-4.1470,8.6690,3.0730,10.089
1.8980,-6.3220,8.2250,2.8640,10.762
1.9030,-8.3200,7.9900,2.8550,11.883
1.9140,-10.0050,8.0240,3.0910,13.192
1.9230,-11.3460,8.3720,3.6050,14.554
1.9640,-12.2620,8.9580,4.5830,15.862
1.9660,-12.8580,9.7720,5.9590,17.214
1.9710,-13.1970,10.7170,7.6070,18.625
1.9760,-13.7140,11.4630,9.2820,20.140
1.9780,-13.8070,11.7210,10.8060,21.090
1.9840,-12.9170,11.4700,12.4750,21.308
1.9950,-11.4630,10.8940,14.6600,21.564
2.0010,-9.3560,9.7530,17.9600,22.477
2.0150,-6.1860,8.5570,22.0850,24.479
2.0240,-1.7990,7.5480,25.8300,26.970
2.0330,3.2510,6.8150,28.5780,29.559
2.0410,8.1070,6.6120,30.0730,31.841
2.0510,12.7910,6.3400,30.0900,33.305
2.0610,16.1200,4.7990,28.3390,32.954
2.0710,17.9560,2.4010,25.2080,31.042
2.0810,20.6770,-0.3790,21.9960,30.191
2.0910,25.0360,-2.2270,19.0650,31.547
2.1010,28.0790,-3.4070,15.7630,32.381
2.1100,28.3110,-4.1730,11.8370,30.968
2.1210,25.3310,-5.8610,8.6520,27.402
2.1310,22.4220,-8.2770,5.8930,24.617
2.1420,20.2910,-9.2970,3.6980,22.624
2.1510,20.2250,-7.5900,2.4810,21.744
2.1630,20.6900,-6.4650,1.5060,21.729
2.1710,20.9860,-7.6480,-0.5210,22.342
2.1810,18.3940,-9.9660,-1.4800,20.973
2.1910,12.4660,-11.8160,-2.8350,17.409
2.2010,5.2360,-13.4070,-3.7190,14.866
2.2110,1.0200,-15.2240,-4.1060,15.801
2.2210,-4.6450,-17.6830,-5.0210,18.960
2.2310,-10.0370,-19.2960,-5.8790,22.531
2.2410,-11.9430,-21.1210,-5.5180,24.883
2.2510,-10.4800,-22.5260,-4.6780,25.281
2.2610,-8.0600,-23.7900,-4.2890,25.482
2.2710,-7.1770,-25.0430,-4.1250,26.376
2.2820,-7.3860,-25.8210,-4.2390,27.189
2.2920,-8.2020,-26.0650,-5.2250,27.820
2.3020,-9.7090,-26.0710,-6.9950,28.686
2.3110,-11.1720,-25.2000,-9.6060,29.191
2.3210,-11.8880,-24.3450,-11.6560,29.493
2.3320,-11.5730,-23.6260,-12.8880,29.295
2.3420,-9.4160,-22.7250,-13.7160,28.164
2.3510,-6.3620,-22.1900,-13.5660,26.775
2.3610,-2.6370,-22.0090,-12.8480,25.621
2.3720,2.0030,-21.2140,-11.5360,24.231
2.3810,7.4520,-19.6340,-9.0930,22.885
2.3910,12.9740,-17.4310,-6.0990,22.569
2.4020,17.8210,-14.7050,-3.8400,23.422
2.4120,21.2960,-12.0820,-2.4520,24.607
2.4220,23.5560,-9.9230,-1.8180,25.625
2.4310,24.4230,-8.6160,-1.3790,25.935
2.4410,24.0260,-6.5000,-0.0980,24.890
2.4510,23.8710,-2.4770,1.4370,24.042
2.4600,26.1120,1.5630,2.1180,26.244
2.4730,27.2970,1.7120,2.0200,27.425
2.4810,29.0180,2.1520,0.5680,29.103
2.4920,30.1230,5.0980,-0.2140,30.552
2.5020,30.0030,7.6690,-0.7260,30.976
2.5130,28.2200,9.0290,-0.4290,29.632
2.5230,24.1500,9.6460,-0.1760,26.006
2.5330,18.8500,10.0150,0.2050,21.346
2.5430,13.2030,10.1700,0.7610,16.683
2.5510,8.4710,9.8640,1.3510,13.072
2.5620,4.8520,8.8360,1.8030,10.240
2.5710,2.0640,7.4440,2.1490,8.018
2.5810,-0.3730,6.0010,2.4860,6.506
2.5920,-2.8280,4.7450,2.8250,6.204
2.6030,-5.2510,3.8300,3.2170,7.252
2.6120,-7.6860,3.2880,3.5280,9.074
2.6210,-9.9240,3.1200,3.6510,11.025
2.6330,-11.6250,3.0280,3.6970,12.569
2.6430,-12.9790,3.7240,3.9520,14.069
2.6520,-14.6720,4.6880,4.3240,15.998
2.6620,-15.7910,6.0240,4.9000,17.597
2.6720,-16.4690,7.9280,5.2880,19.027
2.6810,-17.0420,10.1970,5.5810,20.629
2.6920,-16.6390,12.1210,5.5390,21.318
2.7020,-14.8130,13.4520,5.5050,20.753
2.7130,-11.9270,14.2310,6.1900,19.573
2.7230,-8.4490,14.9220,7.9980,18.921
2.7310,-4.7910,15.4010,10.5910,19.295
2.7420,-1.0760,15.1030,14.0770,20.674
2.7510,2.4380,13.4890,17.9230,22.564
2.7620,4.3390,11.0780,21.0590,24.187
2.7720,4.7930,7.9930,22.7630,24.597
2.7830,7.6950,6.0210,22.7080,24.721
2.7910,10.8920,5.5320,23.2540,26.268
2.8030,13.7120,5.3790,24.3200,28.433
2.8110,17.2120,4.9950,25.2500,30.964
2.8210,20.9140,3.3200,24.6410,32.490
2.8320,23.5000,0.9770,21.9850,32.195
2.8430,22.6840,-1.9860,17.8350,28.924
2.8510,19.8120,-5.8400,14.1830,25.056
2.8620,16.4030,-8.0700,11.2440,21.462
2.8710,14.4320,-7.9430,8.7650,18.660
2.8810,15.5560,-7.1460,5.7130,18.047
2.8910,17.4320,-7.5670,2.3890,19.153
2.9010,17.0290,-9.1510,-0.8090,19.349
2.9110,13.4510,-10.7570,-3.1470,17.508
2.9210,7.7550,-11.7990,-4.2270,14.739
2.9330,1.6390,-12.3480,-4.2370,13.157
2.9410,-3.3160,-13.1250,-3.6750,14.027
2.9520,-5.8750,-14.3230,-3.0710,15.783
2.9610,-6.9970,-16.0370,-1.7560,17.585
2.9710,-6.5060,-17.6510,-1.1340,18.846
2.9820,-5.6060,-19.4370,-1.0600,20.257
2.9910,-5.4830,-20.9870,-0.9450,21.712
3.0020,-5.6360,-22.0260,-1.0820,22.761
3.0110,-6.5820,-22.4940,-1.7360,23.501
3.0210,-7.6310,-22.8490,-2.6080,24.230
3.0310,-8.4170,-23.2870,-3.6480,25.029
3.0410,-8.4650,-23.7130,-4.8890,25.649
3.0510,-7.5240,-23.8500,-6.2800,25.785
3.0610,-6.0850,-23.4520,-7.8220,25.460
3.0730,-4.3300,-22.1740,-9.3150,24.438
3.0830,-4.2400,-21.5680,-10.0390,24.165
3.0920,-4.1270,-20.4630,-9.7240,23.029
3.1020,-2.8890,-19.4890,-8.9380,21.635
3.1130,-0.2440,-18.7320,-7.9080,20.334
3.1210,2.9290,-17.9680,-6.4830,19.325
3.1300,6.4130,-16.9550,-4.4100,18.656
3.1410,9.4750,-15.1200,-2.1800,17.976
3.1520,11.8650,-13.3510,0.6950,17.875
3.1630,15.7380,-11.5990,3.9440,19.944
3.1730,21.2830,-7.8570,6.4740,23.593
3.1820,27.2110,-1.8230,7.7760,28.359
3.1920,32.3180,3.1130,7.8400,33.401
3.2020,36.5770,4.2770,6.4270,37.383
3.2120,39.2690,4.2370,3.8880,39.688
3.2210,38.9280,6.1470,1.7160,39.448
3.2300,35.0010,8.3180,0.9990,35.990
3.2420,28.4130,9.3580,0.8730,29.927
3.2530,21.1800,9.6600,0.7190,23.290
3.2620,14.7180,9.6560,0.4050,17.607
3.2730,9.6680,9.0890,0.1500,13.270
3.2820,5.7520,8.2610,0.0390,10.066
3.2930,2.4860,7.4510,0.0190,7.855
3.3020,-0.1790,6.7300,0.1170,6.733
3.3120,-2.2950,5.9320,0.3220,6.369
3.3210,-3.8810,5.1360,0.5360,6.460
3.3310,-5.7070,4.1600,0.5130,7.081
3.3410,-3.8650,6.5280,-0.1990,7.589
3.3520,-9.5830,2.8350,-0.5510,10.009
3.3620,-12.6210,1.7770,-0.3830,12.751
3.3720,-14.2320,3.0340,0.3550,14.556
3.3810,-15.9060,3.9930,1.5910,16.477
3.3920,-16.3620,5.0500,2.7910,17.350
3.4030,-16.4670,6.1750,3.8650,18.006
3.4120,-16.3260,7.5990,4.9390,18.673
3.4220,-15.9880,9.0300,5.9000,19.286
3.4320,-15.1330,10.0160,6.8060,19.382
3.4410,-13.3290,10.5170,7.9410,18.744
3.4510,-10.5730,10.5230,9.6180,17.749
3.4610,-6.9700,10.3950,12.0780,17.393
3.4720,-3.4400,9.9120,15.0410,18.339
3.4820,-0.3070,9.3620,18.1990,20.468
3.4920,2.9010,8.6550,20.4690,22.412
3.5020,6.9170,7.7940,21.3680,23.774
3.5110,11.7080,6.9900,21.0740,25.101
3.5220,16.8270,6.3310,20.4510,27.230
3.5320,19.9920,5.0640,19.9490,28.693
3.5420,21.4040,2.8830,18.5020,28.439
3.5530,22.6980,1.7490,15.4620,27.520
3.5600,20.0690,-0.3520,12.8780,23.848
3.5710,16.4740,-2.3440,10.8070,19.841
3.5820,13.3240,-4.2200,8.9610,16.602
3.5900,11.0600,-4.8700,6.9070,13.919
3.6010,11.4150,-3.4630,4.7430,12.837
3.6100,13.7140,-3.0150,2.4820,14.259
3.6220,14.9400,-4.6620,0.1350,15.651
3.6320,13.4350,-6.9080,-1.7590,15.209
3.6410,9.5570,-8.6060,-2.6720,13.135
3.6510,4.4610,-10.0300,-2.8010,11.329
3.6610,-0.5620,-11.4290,-2.6350,11.742
3.6720,-4.6740,-12.6710,-2.3410,13.707
3.6820,-8.0100,-13.8400,-1.8710,16.100
3.6920,-9.2800,-15.0550,-0.6750,17.698
3.7000,-9.6580,-16.6900,-0.4390,19.288
3.7110,-9.1290,-18.7540,0.2130,20.859
3.7210,-7.7290,-20.6730,0.3540,22.073
3.7310,-6.6780,-22.2370,0.3470,23.221
3.7420,-6.6890,-23.2920,-0.2390,24.235
3.7510,-7.8060,-23.5580,-1.3910,24.857
3.7620,-9.5540,-23.0880,-3.0570,25.173
3.7710,-11.4510,-22.6990,-4.7800,25.869
3.7800,-12.7710,-22.0250,-6.5300,26.284
3.7900,-12.4400,-21.1360,-8.4330,25.935
3.8020,-10.3080,-20.2990,-10.1200,24.914
3.8110,-6.9460,-19.3890,-11.2930,23.489
3.8220,-3.0260,-18.3350,-11.1460,21.669
3.8320,1.8420,-16.6790,-9.4670,19.267
3.8420,7.3030,-14.7030,-7.1520,17.907
3.8540,12.5360,-12.9700,-5.0770,18.739
3.8600,15.8340,-11.5270,-3.7980,19.950
3.8700,17.1370,-10.0590,-3.5050,20.178
3.8800,17.3810,-8.7140,-4.0170,19.854
3.8900,17.9800,-6.6070,-3.9140,19.551
3.9000,19.8550,-2.7940,-2.9180,20.262
3.9140,23.1630,1.0940,-1.5920,23.243
3.9200,26.2090,2.5100,0.9320,26.345
3.9300,28.3910,1.8270,2.5030,28.560
3.9400,30.8710,2.3210,2.4310,31.053
3.9500,32.0300,4.7490,2.7450,32.496
3.9600,29.8470,6.6770,3.2360,30.755
12.6670,24.8010,7.4280,2.7780,26.038
12.6700,18.6630,7.7750,1.5020,20.273
12.6720,12.3720,7.9130,0.0400,14.686
12.6730,6.9470,7.6610,-1.2000,10.411
12.6750,2.5860,7.0200,-2.1250,7.777
12.6760,-13.8540,-18.9540,-4.9850,24.001
12.6780,-13.0820,-17.8430,-6.6210,23.094
12.6800,-11.3740,-17.0450,-8.5190,22.192
12.6830,-8.4370,-16.2770,-9.9380,20.854
12.6930,-4.8400,-14.9800,-10.2640,18.793
12.7030,-0.9860,-13.6670,-9.5270,16.689
12.7130,3.0210,-12.8680,-7.8750,15.386
12.7250,6.9900,-13.0060,-5.3900,15.718
12.7330,9.8730,-14.6360,-2.9560,17.900
12.7450,11.3490,-16.3930,0.2040,19.939
12.7550,13.3400,-15.5080,4.5060,20.947
12.7640,16.5440,-11.8810,7.9250,21.856
12.7740,21.5010,-7.7180,10.2620,25.043
12.7830,27.5410,-4.9160,12.0130,30.446
12.7950,32.8570,-4.2940,11.6080,35.111
12.8070,34.5180,-4.8190,9.3810,36.093
12.8150,32.3850,-3.0680,7.1790,33.313
12.8250,29.0100,-0.0420,6.3020,29.687
12.8330,26.3350,1.8240,5.1570,26.897
12.8450,22.9950,2.6770,3.4370,23.404
12.8550,18.1800,2.8070,1.2730,18.439
12.8670,12.5310,2.5050,-0.5370,12.790
12.8730,7.0110,2.1380,-1.7420,7.534
12.8830,2.2990,1.9380,-2.3490,3.816
12.8950,-1.0810,1.6640,-2.4960,3.189
12.9040,-3.1990,1.0340,-2.2340,4.037
12.9150,-4.4600,0.0800,-1.6700,4.763
12.9330,-5.2780,-0.9370,-0.9290,5.440
12.9350,-5.9730,-1.7660,-0.0960,6.229
12.9440,-6.7670,-2.3060,0.6510,7.179
12.9590,-7.6210,-2.4290,1.2860,8.101
12.9650,-8.5190,-2.2330,1.8870,9.007
12.9730,-9.3680,-1.8940,2.5370,9.889
12.9850,-9.9700,-1.5110,3.1830,10.574
12.9950,-10.2040,-1.0620,3.7960,10.939
13.0060,-10.2880,-0.4190,4.5250,11.247
13.0150,-10.3930,0.6360,5.3820,11.721
13.0250,-10.4590,2.2510,6.1180,12.324
13.0340,-10.3150,4.1370,6.6920,12.973
13.0440,-9.9300,5.8610,7.3710,13.685
13.0530,-9.4920,6.9040,8.6190,14.562
13.0640,-8.9030,7.2420,10.6840,15.680
13.0730,-7.7540,7.0520,13.3390,16.964
13.0850,-5.8290,6.6150,15.9140,18.193
13.0950,-3.4270,6.0450,18.1570,19.441
13.1060,-0.3740,5.5380,19.3030,20.085
13.1150,2.6270,5.2880,19.7860,20.648
13.1290,6.3930,6.0380,20.4170,22.230
13.1330,11.2730,7.3180,21.5900,25.432
13.1450,16.8810,7.6100,22.6020,29.219
13.1560,22.1890,6.4550,22.6890,32.385
13.1650,26.1620,4.5120,20.7230,33.679
13.1730,27.4710,1.9720,17.2030,32.473
13.1850,26.1570,-1.3110,13.2930,29.370
13.1930,24.2520,-4.5360,10.1150,26.665
13.2050,22.7560,-5.9060,7.2650,24.607
13.2160,21.6610,-6.1030,4.2810,22.908
13.2230,20.9410,-6.8980,1.0280,22.072
13.2350,19.0170,-9.2710,-1.6650,21.222
13.2440,15.2110,-11.4530,-3.4390,19.349
13.2530,9.8920,-12.5390,-4.1710,16.507
13.2630,3.9870,-12.8500,-3.9820,14.031
13.2750,-1.3900,-12.8590,-3.0450,13.288
13.2870,-4.9630,-13.0700,-1.5090,14.062
13.2960,-6.8940,-14.0400,0.4780,15.649
13.3060,-7.8190,-15.5050,1.2960,17.413
13.3160,-6.9260,-17.3690,3.9690,19.116
13.3270,-6.6660,-18.5110,2.8040,19.873
13.3350,-6.3490,-19.9720,2.7190,21.133
13.3450,-6.3190,-21.0450,2.5080,22.116
13.3560,-7.4770,-21.5120,1.8920,22.853
13.3650,-9.2760,-21.4640,0.8140,23.397
13.3750,-11.1650,-21.1130,-0.3090,23.885
13.3840,-12.9060,-20.7110,-1.3760,24.442
13.3950,-14.1230,-20.2020,-2.4330,24.769
13.4020,-14.4760,-19.6140,-3.5640,24.637
13.4150,-13.9860,-18.9460,-4.5890,23.992
13.4240,-12.5320,-18.2180,-5.4200,22.767
13.4340,-9.6460,-17.5620,-5.9880,20.912
13.4450,-5.2900,-16.8290,-5.9390,18.614
13.4530,-0.0640,-15.8860,-5.2920,16.744
13.4650,5.6500,-14.7880,-3.9570,16.318
13.4730,10.5410,-13.7600,-1.7780,17.424
13.4850,13.6400,-13.1430,0.4790,18.948
13.4940,15.2740,-12.8650,2.3220,20.105
13.5050,15.7930,-12.3120,3.5560,20.338
13.5130,17.5480,-9.8030,3.7000,20.438
13.5250,20.8780,-5.5390,3.5550,21.891
13.5330,24.5070,-2.3400,3.1970,24.825
13.5430,27.6410,-2.0930,2.4260,27.826
13.5540,29.3240,-2.5730,1.1200,29.458
13.5650,28.2630,-0.9350,1.4480,28.316
13.5730,28.3030,0.9650,2.1150,28.398
13.5830,27.0010,2.7360,3.0000,27.305
13.5930,22.8360,3.4590,1.8830,23.173
13.6070,17.7250,3.8190,0.1820,18.133
13.6130,11.9570,4.0740,-1.0840,12.678
13.6230,6.2480,4.0410,-1.8840,7.676
13.6350,1.9690,4.0380,-2.3660,5.077
13.6440,-0.6010,3.7180,-2.5520,4.549
13.6530,-1.9290,3.0250,-2.5100,4.379
13.6640,-2.7040,2.0700,-2.2760,4.096
13.6730,-3.4320,1.1410,-1.9760,4.121
13.6910,-4.3030,0.3390,-1.5340,4.581
13.6950,-5.2680,-0.2290,-1.0720,5.381
13.7030,-6.3280,-0.4880,-0.6130,6.376
13.7150,-7.5580,-0.4860,0.0440,7.574
13.7240,-8.8850,-0.2340,0.9270,8.936
13.7340,-10.1710,0.3600,1.9030,10.354
13.7450,-11.2750,1.3000,3.1520,11.779
13.7530,-12.1330,2.3560,4.3840,13.114
13.7650,-12.9150,3.6060,5.5210,14.501
13.7760,-13.5290,5.2270,6.6310,15.948
13.7840,-13.5710,6.9790,7.5180,17.012
13.7950,-12.3020,8.5230,8.5200,17.221
13.8020,-9.6480,9.3740,9.4140,16.419
13.8140,-6.3890,9.1190,10.5190,15.317
13.8230,-3.3330,8.3980,11.3370,14.497
13.8350,-0.9780,7.5760,12.1310,14.336
13.8430,1.0620,6.6680,13.5660,15.153
13.8520,3.3780,5.2440,15.4790,16.689
13.8620,6.3050,3.8090,17.5660,19.048
13.8720,9.1860,3.0290,18.8510,21.188
13.8890,11.6600,2.8560,19.8500,23.198
13.8930,14.9080,2.4070,21.0620,25.916
13.9060,19.4290,0.8580,21.2200,28.784
13.9140,22.6930,-1.3350,20.0580,30.316
13.9270,22.2790,-4.2970,16.9360,28.313
13.9350,19.2420,-7.6770,12.9180,24.414
13.9450,16.6340,-8.9100,8.4260,20.666
13.9520,15.3050,-8.7380,5.5210,18.468
22.2690,15.7110,-9.2090,3.3670,18.520
22.2810,16.1310,-9.8260,1.3200,18.934
22.2840,14.7110,-10.4680,-0.0010,18.055
22.2860,11.3020,-11.0380,-0.0040,15.798
22.2870,6.1570,-10.9540,0.5000,12.576
22.2890,-4.8000,-14.6110,2.8670,15.644
22.2900,-5.4040,-15.3600,4.5560,16.908
22.2910,-5.3870,-16.1450,5.2970,17.825
22.2920,-5.3540,-17.0560,5.5960,18.732
22.2930,-4.9720,-18.0240,5.4260,19.469
22.2960,-4.6630,-19.1220,4.7070,20.237
22.2970,-4.8770,-19.9160,3.8940,20.871
22.2990,-5.9330,-20.1450,3.2900,21.257
22.3060,-7.4260,-19.9930,2.7780,21.508
22.3170,-8.8580,-19.7550,2.2050,21.762
22.3260,-10.3920,-19.4210,1.3480,22.068
22.3370,-11.9880,-18.7580,0.2580,22.263
22.3500,-12.9510,-17.9810,-0.9490,22.180
22.3560,-12.5290,-17.4160,-2.2640,21.574
22.3660,-10.4680,-17.0140,-3.5280,20.286
22.3760,-6.6760,-16.5360,-4.4020,18.368
22.3860,-2.1760,-15.8170,-4.5280,16.596
22.3980,2.3600,-15.1900,-3.7590,15.825
22.4070,6.4450,-14.9650,-3.7140,16.712
22.4170,9.6500,-15.3480,-2.8210,18.348
22.4280,12.2510,-15.9910,-1.3480,20.190
22.4400,15.6260,-15.2310,0.7020,21.832
22.4460,20.7270,-12.2020,2.4370,24.175
22.4600,26.7570,-8.8670,3.1110,28.359
22.4680,32.5890,-7.3240,2.3990,33.488
22.4770,35.9810,-7.3350,0.9850,36.734
22.4880,35.2860,-6.6770,0.4920,35.916
22.4970,33.2020,-4.0170,1.4860,33.477
22.5090,30.8630,-1.1200,3.8040,31.117
22.5200,27.5210,0.4490,4.7150,27.926
22.5310,23.4490,1.3180,3.7380,23.782
22.5360,19.1030,1.8400,1.9850,19.294
22.5500,13.9490,2.0340,0.4680,14.104
22.5590,8.7090,2.1600,-0.5770,8.991
22.5660,4.1090,2.2470,-1.0580,4.801
22.5780,0.5620,1.9840,-1.2040,2.388
22.5880,-1.8410,1.3680,-1.1250,2.555
22.6000,-3.5780,0.6710,-1.0160,3.779
22.6110,-4.7740,0.0490,-0.6810,4.823
22.6200,-5.6560,-0.4610,-0.3110,5.683
22.6260,-6.5610,-0.7220,0.1620,6.603
22.6360,-7.6580,-0.6320,0.7880,7.724
22.6560,-8.8110,-0.3000,1.4390,8.933
22.6590,-9.6790,0.2890,2.1680,9.923
22.6670,-10.2150,1.2340,2.9460,10.703
22.6770,-10.6500,2.5380,3.6140,11.529
22.6860,-10.8820,4.3270,4.2010,12.441
22.6960,-11.0770,6.1110,5.1930,13.675
22.7060,-10.7770,7.1080,6.5100,14.458
22.7160,-9.4530,7.4340,8.1220,14.512
22.7280,-6.9000,7.6470,9.7900,14.210
22.7360,-3.6660,8.0030,11.4080,14.409
22.7460,-0.4410,8.1270,13.1680,15.480
22.7550,2.9640,7.5570,14.2720,16.419
22.7660,6.0870,6.9310,14.3130,17.028
22.7750,8.0730,5.9240,13.2810,16.633
22.7860,8.3350,4.6560,11.5420,14.979
22.7970,7.6550,3.6830,10.5250,13.525
22.8050,6.9870,3.4330,10.8520,13.356
22.8150,8.8980,4.2610,12.2560,15.733
22.8260,15.1440,5.5080,14.1150,21.422
22.8360,22.7080,5.6200,14.7150,27.636
22.8450,27.5290,3.2020,13.2540,30.721
22.8560,29.2450,-0.4360,10.4660,31.064
22.8650,29.3960,-3.1010,6.7790,30.326
22.8750,29.3420,-5.0800,2.4670,29.881
22.8860,28.8330,-6.6260,-0.5150,29.589
22.8950,26.6250,-7.8860,-1.8140,27.828
22.9050,22.2820,-9.7450,-2.2880,24.427
22.9160,16.6070,-10.7800,-1.2730,19.840
22.9260,10.8270,-11.8490,-0.2550,16.053
22.9370,6.2080,-13.1380,0.6810,14.547
22.9470,4.5710,-14.8020,2.0550,15.627
22.9560,-0.0910,-15.6980,3.0210,15.986
22.9650,-1.2670,-16.1730,4.5190,16.840
22.9960,-1.9960,-16.9030,5.1240,17.775
22.9970,-1.7570,-18.0280,5.4370,18.912
22.9990,-1.4410,-19.3450,5.0580,20.047
23.0060,-1.1370,-20.2810,4.0460,20.712
23.0160,-1.0210,-20.7200,2.4790,20.893
23.0260,-1.3050,-21.0660,0.6950,21.118
23.0350,-2.3620,-21.3230,-1.4720,21.504
23.0450,-5.0070,-21.2230,-3.4440,22.076
23.0550,-8.5280,-20.8270,-4.6410,22.979
23.0650,-11.2150,-19.8070,-5.6810,23.460
23.0750,-12.8170,-18.5360,-6.3230,23.406
23.0860,-13.1510,-16.9880,-6.9700,22.586
23.0950,-11.9430,-15.8970,-7.3170,21.187
23.1080,-8.6000,-15.0670,-7.5810,18.933
23.1200,-3.6940,-14.5270,-7.8300,16.911
23.1280,1.7000,-14.1960,-6.9880,15.914
23.1390,4.9860,-14.0450,-5.3890,15.848
23.1480,6.5020,-13.9380,-3.5340,15.781
23.1600,6.7580,-14.1420,-1.0100,15.706
23.1680,7.2150,-14.2020,1.7510,16.026
23.1800,10.2540,-13.4410,4.4480,17.481
23.1910,15.7310,-11.4590,6.3940,20.486
23.1950,22.8620,-8.9100,7.0740,25.536
23.2110,28.5160,-6.5950,6.5820,30.000
23.2150,32.3650,-5.6120,4.2420,33.121
23.2270,34.2800,-5.9710,1.8800,34.847
23.2360,33.6450,-3.8140,0.9640,33.874
23.2510,31.6150,-0.6400,1.5550,31.660
23.2560,28.5940,1.2450,1.9460,28.687
23.2690,24.9090,1.9580,0.5940,24.993
23.2760,19.6110,2.0820,-1.0980,19.752
23.2860,13.9170,1.8050,-1.9830,14.173
23.2960,8.0350,1.5580,-1.7430,8.368
23.3070,4.2640,1.0600,-1.5820,4.670
23.3170,1.5530,0.0570,-1.3010,2.027
23.3250,-0.2550,-1.1360,-0.7840,1.404
23.3350,-1.7180,-2.2120,-0.1900,2.807
23.3460,-2.8110,-3.0290,-0.1150,4.134
23.3550,-2.4180,-3.5510,0.2290,4.302
23.3710,-2.2690,-3.3810,1.2760,4.267
23.3760,-3.5520,-2.8920,1.6090,4.855
23.3860,-5.0590,-2.1220,2.2010,5.911
23.3970,-6.4110,-1.2150,2.6340,7.037
23.4080,-7.5590,-0.0200,3.2920,8.245
23.4160,-8.4250,1.5290,4.2570,9.562
23.4280,-8.6510,3.5870,5.2430,10.733
23.4350,-8.2340,5.3610,6.1510,11.592
23.4480,-7.4290,7.1890,7.2140,12.606
23.4550,-6.4710,8.5740,8.6520,13.793
23.4670,-4.5150,9.8320,10.3030,14.940
23.4790,-1.8130,10.7740,11.9280,16.175
23.4850,1.0960,11.0260,13.5610,17.512
23.4960,3.9000,10.6840,14.7280,18.608
23.5080,6.7010,10.0900,15.3390,19.545
23.5170,9.4610,9.1410,15.2860,20.168
23.5270,11.5020,7.5470,14.3250,19.861
23.5370,12.1420,5.4780,12.8720,18.524
23.5470,11.9170,3.6220,12.2760,17.488
23.5560,12.3260,2.5100,12.9870,18.080
23.5660,14.2720,1.8260,14.5890,20.491
23.5770,17.4410,0.8020,15.6300,23.433
23.5870,20.9370,-0.7250,15.2300,25.901
23.5960,22.4240,-3.7990,13.5220,26.460
23.6080,22.5700,-7.7360,11.6550,26.554
23.6150,22.2190,-10.5110,8.8040,26.109
23.6250,22.1040,-10.9930,5.0350,25.195
23.6350,22.6820,-10.3630,1.3890,24.976
23.6460,22.2680,-10.2840,-1.2060,24.558
23.6550,20.1390,-10.6270,-2.7780,22.940
23.6670,16.7210,-11.1280,-3.7120,20.426
23.6770,12.5560,-11.3340,-3.5860,17.291
23.6870,8.1930,-11.6310,-2.5330,14.451
23.6970,4.1460,-12.1110,-0.9990,12.840
23.7060,0.8370,-12.5340,1.1980,12.619
23.7180,-2.3250,-13.3090,2.7220,13.782
23.7250,-5.2300,-14.3160,4.1990,15.809
23.7350,-5.9890,-15.0030,6.4210,17.384
23.7470,-5.6070,-15.5150,7.2190,18.007
23.7550,-5.9190,-16.3310,7.8070,19.044
23.7660,-5.6040,-17.5060,7.8720,19.996
23.7780,-5.2850,-18.8060,7.2990,20.854
23.7860,-5.9850,-19.8520,6.2080,21.644
23.7960,-7.5320,-20.4870,4.7570,22.340
23.8050,-9.4810,-20.6890,3.0330,22.959
23.8170,-11.2310,-20.5780,0.9880,23.464
23.8260,-12.4900,-20.2430,-1.3120,23.822
23.8370,-12.8980,-19.5040,-3.8250,23.694
23.8460,-12.4920,-18.2800,-5.9370,22.923
23.8540,-10.8160,-16.8880,-6.8620,21.196
23.8650,-7.7280,-15.6250,-6.2860,18.530
23.8760,-3.5260,-14.7990,-4.8520,15.968
23.8870,1.1870,-14.4900,-2.8120,14.808
23.8970,6.2260,-14.7640,-1.9910,16.146
23.9050,9.9510,-15.7090,-0.2030,18.597
23.9160,11.7920,-17.1300,2.0900,20.901
23.9240,13.6260,-16.3100,5.5390,21.963
23.9380,17.4670,-12.4170,8.6680,23.117
23.9460,23.5200,-8.2980,10.3580,27.006
23.9570,29.5690,-6.2500,10.6300,32.037
23.9670,33.7050,-6.2050,9.2380,35.495
23.9750,33.7060,-6.1780,7.5980,35.100
28.7120,31.0340,-4.1690,7.0350,32.093
28.7130,28.2030,-1.6530,6.9510,29.094
28.7140,25.4400,-0.0780,6.3240,26.214
28.7160,22.7030,0.9220,4.5410,23.171
28.7170,19.4300,1.4460,2.4870,19.642
28.7190,-9.4700,5.0930,6.2100,12.417
28.7200,-8.7020,6.4860,6.2070,12.503
28.7220,-7.9380,8.0560,6.1920,12.894
28.7240,-6.9400,9.7010,6.7520,13.706
28.7260,-5.3680,10.8750,8.0220,14.541
28.7280,-2.6530,11.3240,9.5770,15.066
28.7290,1.3910,11.0410,11.1720,15.769
28.7310,5.8920,10.2870,12.5270,17.247
28.7330,9.3270,8.6130,13.0680,18.219
28.7350,11.6070,6.3570,12.4900,18.197
28.7360,12.0390,4.4130,11.9700,17.541
28.7380,10.6390,3.1890,11.9360,16.304
28.7400,9.8080,2.8990,13.1010,16.620
28.7420,11.7490,2.8210,15.8540,19.934
28.7520,17.1910,2.3080,18.4550,25.327
28.7610,23.1560,0.7840,19.9400,30.568
28.7740,26.8340,-2.1230,18.7250,32.790
28.7830,27.7790,-6.0470,15.4680,32.365
28.7910,26.4970,-9.5670,11.1400,30.294
28.8030,24.4570,-11.3980,6.1730,27.680
28.8140,23.8630,-11.2120,0.9790,26.384
28.8220,22.9160,-10.3780,-2.7070,25.302
28.8310,20.9690,-9.7090,-5.2370,23.694
28.8410,17.2090,-9.3800,-5.5400,20.367
28.8540,12.2380,-9.5260,-4.0480,16.028
28.8640,7.0960,-10.1310,-1.4520,12.454
28.8730,2.3280,-11.3820,1.4650,11.710
28.8830,-1.7070,-12.9770,3.7590,13.618
28.8980,-4.2350,-13.8230,6.5400,15.868
28.9020,-7.3390,-14.3960,8.8200,18.409
28.9140,-9.3470,-14.5290,10.6370,20.288
28.9210,-8.8030,-14.5200,12.7020,21.205
28.9340,-9.4280,-14.7620,11.9450,21.201
28.9460,-9.3030,-14.7990,10.9640,20.634
28.9520,-8.3490,-15.6150,9.7530,20.215
28.9660,-8.3080,-16.2660,7.9740,19.930
28.9710,-8.8660,-16.3840,5.8440,19.524
28.9840,-9.9420,-15.9880,3.7340,19.194
28.9910,-11.4010,-15.3700,1.3910,19.187
29.0030,-12.4750,-14.4870,-1.0510,19.147
29.0120,-13.2110,-13.3860,-3.2100,19.079
29.0220,-13.2880,-12.2540,-4.8080,18.704
29.0320,-11.8140,-11.5030,-5.5000,17.382
29.0410,-8.5330,-11.2140,-4.9960,14.951
29.0520,-4.4680,-11.4350,-3.6180,12.799
29.0610,0.2200,-11.9880,-1.9110,12.141
29.0720,4.6040,-12.8740,0.0670,13.673
29.0810,7.2890,-14.4220,2.4250,16.340
29.0910,9.5770,-15.6880,6.2490,19.413
29.1050,13.9690,-14.8000,9.0280,22.264
29.1110,19.5680,-12.2240,12.0930,26.049
29.1260,26.0380,-9.4860,13.8970,31.001
29.1350,31.4500,-7.8200,14.1090,35.346
29.1410,34.5770,-7.5280,12.6030,37.564
29.1540,34.5260,-7.0100,10.3990,36.733
29.1650,30.6350,-5.9120,7.5180,32.093
29.1710,25.5600,-3.8470,6.0420,26.545
29.1810,24.0240,-2.1200,4.0730,24.459
29.1930,22.3640,-0.5300,1.8920,22.450
29.2020,19.4210,0.7440,-1.1490,19.469
29.2160,15.4660,1.6180,-4.2930,16.132
29.2230,11.3180,2.3730,-6.0980,13.073
29.2340,7.3770,2.7040,-6.6420,10.288
29.2410,3.8190,2.3590,-7.1600,8.451
29.2520,1.3220,1.7870,-8.5130,8.798
29.2640,0.0840,0.8550,-8.0590,8.105
29.2710,-0.6440,-0.3420,-6.3850,6.427
29.2810,-1.2230,-1.4860,-3.4760,3.973
29.2920,-2.4780,-2.5310,0.2800,3.553
29.3010,-4.3950,-2.8500,3.3500,6.218
29.3160,-6.3170,-2.3390,5.7830,8.878
29.3210,-8.3270,-1.1740,6.7030,10.754
29.3310,-9.7140,0.3070,7.2120,12.102
29.3420,-10.4650,2.0530,7.5260,13.053
29.3510,-10.6250,4.0160,7.7750,13.765
29.3610,-10.2820,6.0580,8.0190,14.378
29.3710,-9.1870,7.9510,8.4250,14.785
29.3810,-7.2380,9.4220,9.1960,15.024
29.3910,-5.0810,10.1950,10.2770,15.342
29.4020,-2.8550,10.1190,11.4430,15.540
29.4110,-0.1610,9.6410,12.9180,16.120
29.4210,2.6550,8.6170,13.6100,16.326
29.4330,5.3420,7.1870,13.7480,16.407
29.4410,7.4580,5.2640,13.4350,16.243
29.4550,8.6980,3.3770,12.7440,15.795
29.4610,9.5360,2.3910,12.6130,15.992
29.4730,10.3340,2.4810,13.4010,17.104
29.4840,12.3790,2.6950,15.1140,19.721
29.4910,15.9880,2.1620,17.2120,23.591
29.5010,19.9240,1.0040,18.6660,27.320
29.5120,22.2460,-1.1060,17.9340,28.596
29.5260,22.2450,-3.8440,15.1020,27.160
29.5330,20.5350,-6.0960,11.5580,24.340
29.5420,18.7870,-6.8190,7.5470,21.364
29.5550,18.3570,-6.0800,4.1700,19.782
29.5610,19.1590,-5.9900,1.5920,20.137
29.5740,19.2140,-6.5260,-0.2630,20.294
29.5850,17.8210,-6.9970,-0.7770,19.161
29.5950,14.5120,-7.2300,-0.7030,16.229
29.6010,10.1860,-7.4350,0.0000,12.611
29.6130,5.6390,-7.8870,1.2220,9.772
29.6220,1.4700,-8.7060,2.7150,9.237
29.6340,-1.3060,-9.4670,4.9590,10.767
29.6410,-4.1190,-10.3650,6.5570,12.938
29.6530,-5.4990,-11.3770,8.2350,15.083
29.6650,-6.1240,-12.8020,9.6870,17.182
29.6710,-5.6970,-14.3190,10.9350,18.896
29.6810,-6.1390,-15.2700,10.6380,19.597
29.6910,-6.0890,-15.9900,10.4900,20.070
29.7050,-6.9080,-16.4840,10.3200,20.638
29.7130,-8.4590,-17.0100,9.2250,21.119
29.7210,-9.7060,-17.2360,7.6090,21.194
29.7380,-11.0850,-16.9920,5.9550,21.144
29.7420,-12.1570,-16.3000,4.2530,20.774
29.7530,-12.3860,-15.5520,2.4870,20.037
29.7650,-11.4630,-14.9370,0.8440,18.847
29.7730,-9.0410,-14.2460,-0.1710,16.874
29.7850,-5.0570,-13.5370,-0.6450,14.465
29.7920,-0.1120,-12.6420,-0.3200,12.647
29.8050,4.5050,-11.8140,0.8410,12.672
29.8150,8.7770,-11.5170,2.0600,14.626
29.8210,12.0150,-12.0330,3.3320,17.328
29.8330,13.8630,-12.5270,4.3600,19.186
29.8400,14.8410,-11.3490,5.6100,19.507
29.8530,16.9560,-8.6260,6.8980,20.236
29.8620,20.9650,-5.4790,7.6800,22.990
29.8740,25.5510,-3.5090,7.7640,26.934
29.8800,29.1630,-3.2010,6.7630,30.108
29.8950,30.6060,-3.4950,5.0020,31.208
29.9040,30.1970,-2.5050,3.8360,30.543
29.9120,28.8780,-0.8480,3.4420,29.095
29.9220,27.1070,0.6080,2.9140,27.270
29.9330,25.1340,1.0460,1.1420,25.182
29.9440,22.5170,1.2980,-1.0580,22.579
29.9540,18.1290,1.1890,-2.3380,18.318
29.9640,12.9210,1.0410,-2.8900,13.281
29.9750,7.9500,1.0760,-2.3250,8.353
29.9850,3.6430,0.8510,-1.3090,3.963
29.9940,0.6740,0.3820,-0.3590,0.854
30.0040,-0.9220,-0.3690,0.5340,1.128
30.0130,-1.7700,-1.1900,1.3170,2.507
30.0250,-2.2870,-1.9550,1.9700,3.596
30.0330,-2.7990,-2.4640,2.5260,4.504
30.0490,-3.5650,-2.5330,3.0050,5.306
30.0570,-4.7320,-2.5660,3.4250,6.380
30.0610,-6.1380,-2.1330,3.9830,7.622
30.0700,-7.4100,-1.5300,4.7150,8.915
30.0810,-8.3180,-0.7480,5.5310,10.017
30.0900,-8.8510,0.3220,6.2310,10.829
30.1020,-9.3060,1.7360,6.8170,11.666
30.1100,-9.5270,3.5700,7.3530,12.553
30.1190,-9.5640,5.8010,7.7340,13.599
30.1300,-9.0620,8.3620,8.2810,14.853
30.1400,-7.9740,10.4850,9.3760,16.169
30.1500,-6.1170,11.4400,10.8330,16.901
30.1600,-3.4220,11.3320,12.3590,17.113
30.1710,-0.0470,10.4290,13.6720,17.196
30.1800,3.8320,9.5960,15.0340,18.242
30.1900,7.5130,8.5320,16.1530,19.752
30.2040,10.6570,7.2880,16.0980,20.636
30.2130,13.1720,6.4390,15.3760,21.246
30.2200,15.1730,6.2420,14.5270,21.914
41.2410,17.6060,6.3560,14.2230,23.509
41.2450,21.1230,6.1490,13.7930,25.966
41.2480,24.5030,5.6300,12.5340,28.093
41.2490,26.3150,4.2630,11.1650,28.902
41.2500,26.7260,1.8840,8.9350,28.243
41.2500,25.3840,-1.0110,6.3880,26.195
41.2510,-9.6590,4.6450,3.8900,11.402
41.2520,-10.1760,6.1730,4.8090,12.837
41.2530,-9.1210,7.4680,6.2770,13.355
41.2540,-7.2850,8.1270,8.1760,13.637
41.2630,-4.8670,8.5620,10.5140,14.406
41.2710,-2.0970,8.7250,12.9520,15.757
41.2840,0.2330,8.4140,15.7830,17.887
41.2920,1.9950,7.8150,19.1090,20.741
41.3020,3.8220,7.0800,22.1590,23.574
41.3120,5.4690,6.1330,24.1790,25.537
41.3230,7.6690,4.9670,24.8890,26.513
41.3330,10.5190,3.4270,24.1580,26.571
41.3440,13.0490,1.7510,22.3470,25.937
41.3510,14.8010,0.0300,20.3600,25.171
41.3630,16.1360,-1.3580,18.6200,24.676
41.3710,17.7260,-2.2570,16.6900,24.451
41.4000,19.4740,-2.9010,14.1300,24.234
41.4010,20.5780,-3.4480,10.8810,23.532
41.4090,20.1650,-3.5300,7.7820,21.901
41.4110,18.4600,-3.0950,5.8270,19.604
41.4230,15.9260,-3.2070,4.5060,16.859
41.4320,14.3800,-2.6990,3.6170,15.072
41.4410,15.5610,-1.3790,3.3060,15.968
41.4510,18.8550,-1.1840,2.8660,19.108
41.4610,20.7840,-2.6650,2.6030,21.115
41.4710,19.5450,-4.5510,2.7610,20.257
41.4830,15.1370,-6.3650,3.1490,16.720
41.4930,8.6750,-7.9140,3.6200,12.288
41.5030,2.2650,-9.0930,4.1990,10.269
41.5110,-3.2870,-10.2050,5.3620,11.987
41.5230,-7.1730,-11.2870,6.9080,15.052
41.5310,-10.0950,-11.6780,7.2790,17.067
41.5430,-10.1840,-12.5840,7.9560,18.038
41.5510,-9.5650,-13.8030,8.4840,18.815
41.5610,-8.5100,-14.7570,8.6740,19.116
41.5710,-8.3510,-15.6560,8.6550,19.742
41.5820,-9.1440,-16.3470,8.3250,20.497
41.5910,-10.2670,-16.8520,7.7100,21.186
41.6020,-11.6140,-17.1460,6.6870,21.762
41.6110,-12.5210,-17.1410,5.4170,21.907
41.6210,-13.3840,-16.8290,3.5980,21.801
41.6330,-13.6700,-16.1840,1.9210,21.272
41.6410,-13.2330,-15.4850,0.0900,20.369
41.6530,-11.9830,-14.7670,-1.4240,19.071
41.6610,-9.1530,-13.8670,-2.5150,16.805
41.6710,-4.5460,-12.8570,-2.7010,13.902
41.6850,1.1830,-11.9020,-1.4880,12.053
41.6920,7.9120,-11.1040,-0.7470,13.655
41.7020,13.3160,-10.4620,0.4810,16.941
41.7130,17.0510,-10.2420,1.3630,19.937
41.7210,19.8120,-9.8890,1.5750,22.199
41.7320,22.3240,-7.5590,1.3010,23.605
41.7410,25.1360,-3.5380,1.2230,25.413
41.7510,28.4880,-1.0330,1.7560,28.561
41.7650,31.4540,-1.3020,1.5310,31.518
41.7700,32.0950,-1.9470,1.2940,32.180
41.7820,30.7020,-0.9940,1.7440,30.768
41.7900,28.4600,1.1080,3.3820,28.682
41.8030,25.9730,2.6310,4.0250,26.414
41.8100,23.9690,3.5540,3.0250,24.419
41.8230,21.2340,4.4030,1.3090,21.725
41.8330,17.2700,4.8530,-0.9220,17.963
41.8430,12.3690,4.9690,-2.7830,13.617
41.8510,7.4830,4.7930,-4.0780,9.777
41.8630,3.7060,4.4540,-4.6640,7.438
41.8700,1.4920,3.6900,-4.3040,5.862
41.8810,0.6160,2.4510,-3.1540,4.042
41.8910,0.1810,0.9850,-1.6070,1.894
41.9020,-0.5670,-0.2560,0.0680,0.626
41.9120,-1.7850,-1.0680,1.8200,2.764
41.9280,-3.4480,-1.5500,3.6080,5.226
41.9310,-5.2690,-1.6730,5.5380,7.825
41.9410,-6.8520,-1.4870,7.5590,10.310
41.9520,-7.8340,-0.7370,9.8900,12.638
41.9630,-8.2110,0.7180,12.5300,14.998
41.9710,-8.2090,2.5890,14.9840,17.280
41.9830,-8.1890,4.3060,17.0390,19.389
41.9970,-7.7570,5.8530,18.2870,20.709
42.0000,-6.6060,7.0010,18.7770,21.100
42.0120,-4.9160,7.3960,18.8330,20.822
42.0230,-3.1510,7.2790,18.8350,20.437
42.0320,-1.1940,7.1610,18.8160,20.168
42.0430,2.0380,7.3810,18.7720,20.274
42.0520,6.6430,7.4550,18.2240,20.780
42.0640,11.4880,6.7840,16.9800,21.594
42.0710,15.8650,5.2030,15.3470,22.678
42.0800,18.6260,3.1030,13.7240,23.343
42.0900,19.9450,1.8460,13.0870,23.927
42.1030,20.8880,1.6540,13.5910,24.975
42.1120,21.8480,1.1100,13.8190,25.875
42.1200,22.4700,-0.0380,13.1030,26.011
42.1300,21.9670,-1.1490,12.2270,25.167
42.1420,20.0000,-2.1100,11.6190,23.226
42.1500,16.7120,-3.4480,10.9530,20.277
42.1630,14.4140,-4.2300,9.8700,17.974
42.1700,14.7830,-3.8270,8.1240,17.297
42.1820,16.7350,-3.2240,6.1940,18.133
42.1920,18.8000,-4.4050,3.8160,19.683
42.2020,18.6560,-6.3900,1.7400,19.797
42.2100,15.2090,-7.7290,1.8290,17.158
42.2200,9.3950,-8.4190,2.8540,12.934
42.2300,2.3410,-9.1720,4.0800,10.308
42.2410,-3.4790,-9.9530,5.3100,11.805
42.2500,-6.4480,-10.6280,7.5410,14.540
42.2610,-7.5500,-11.7250,11.4290,18.031
42.2700,-9.1040,-12.7840,9.4040,18.296
42.2860,-9.1780,-13.0340,9.0950,18.353
42.2930,-8.2560,-13.5960,9.5050,18.530
42.3010,-8.0190,-14.4430,9.1360,18.878
42.3110,-8.6910,-15.1620,8.4090,19.394
42.3220,-10.2280,-15.1460,7.1990,19.643
42.3310,-12.0720,-14.6920,5.7500,19.866
42.3420,-13.9150,-14.0240,4.1170,20.180
42.3500,-15.1780,-13.1540,2.5730,20.249
42.3620,-15.9050,-12.0430,1.0340,19.977
42.3710,-16.0420,-10.7270,-0.3930,19.302
42.3820,-15.0010,-9.4730,-1.5620,17.810
42.3920,-12.3340,-8.3490,-2.5890,15.117
42.4040,-8.0240,-7.3020,-3.5750,11.423
42.4110,-3.1560,-6.2570,-4.2270,8.184
42.4230,2.1060,-5.4430,-3.9490,7.047
42.4330,7.1830,-5.4950,-2.6700,9.430
42.4440,11.3690,-6.3670,-0.8250,13.057
42.4520,14.6930,-7.4440,0.8950,16.495
42.4620,17.0430,-8.0330,3.3210,19.132
42.4750,20.4300,-7.1980,2.9480,21.861
42.4830,23.2700,-4.5910,3.3200,23.950
42.4920,27.2430,-2.4280,3.1740,27.535
42.5040,31.7270,-2.7030,1.9340,31.901
42.5120,33.9810,-3.8290,0.2290,34.197
42.5240,32.6400,-3.3930,-0.1940,32.816
42.5320,28.4220,-1.6580,0.4510,28.474
42.5410,23.8650,-0.1170,1.2610,23.899
42.5520,20.6460,0.2540,0.9210,20.668
42.5630,18.1800,0.8890,1.2790,18.247
42.5720,14.2940,1.4130,1.9600,14.497
42.5840,10.3040,1.3350,2.4930,10.685
42.5900,6.9210,1.1100,2.6230,7.484
42.6000,4.4810,1.1590,2.5090,5.265
42.6100,2.6520,1.2340,2.1000,3.601
42.6220,1.4940,1.0670,1.6760,2.486
42.6320,0.6300,0.4490,1.5850,1.764
42.6460,-0.1160,-0.2860,1.8120,1.838
42.6510,-1.0030,-0.8660,1.9960,2.396
42.6630,-2.1610,-1.1010,2.2900,3.336
42.6720,-3.5780,-0.8500,2.9460,4.712
42.6820,-4.7790,-0.1670,3.9460,6.200
42.6920,-5.7060,0.7810,5.2330,7.782
42.7020,-5.9750,2.1680,6.9740,9.436
42.7120,-5.3860,3.7460,9.6010,11.628
42.7210,-3.9890,5.3690,13.0550,14.669
42.7320,-2.1160,7.0000,16.7300,18.258
42.7430,-0.3690,8.5610,19.8060,21.580
42.7510,0.8740,9.6160,22.2030,24.212
42.7600,2.3720,10.3040,23.5960,25.857
42.7700,4.2630,10.4040,23.7100,26.241
42.7800,6.6310,10.1690,23.4580,26.413
42.7910,9.4030,9.3600,22.8740,26.443
42.8030,12.5860,8.0550,22.1820,26.746
42.8100,15.4460,6.3570,21.2950,27.064
42.8220,17.7180,4.5020,20.6030,27.544
42.8300,19.1310,2.9660,19.6610,27.593
42.8430,20.5130,1.8510,17.9130,27.296
42.8510,21.1300,0.5340,15.2490,26.063
42.8620,20.5260,-0.5490,11.9690,23.767
42.8700,18.9120,-0.8430,8.9720,20.949
42.8810,17.0880,-0.3150,6.9520,18.451
42.8920,15.8500,-0.0590,6.0100,16.951
42.9020,15.6270,-0.7520,6.4220,16.912
42.9120,16.4080,-1.9320,7.1510,18.003
42.9220,17.2890,-2.7290,7.4890,19.038
42.9320,17.5880,-3.7770,6.9280,19.277
42.9430,16.8570,-5.2120,5.6680,18.532
42.9520,14.5820,-6.2310,4.4700,16.475
42.9610,10.5430,-6.9200,3.8240,13.178
42.9720,5.2830,-7.3500,3.7570,9.800
42.9830,0.2120,-7.5980,4.3200,8.743
42.9930,-3.0320,-8.2480,6.1450,10.723
43.0010,-7.1620,-8.9590,6.6970,13.282
43.0120,-9.4020,-9.5630,6.7210,15.001
43.0210,-9.7370,-10.3500,7.3970,16.020
43.0300,-9.0460,-10.8620,7.7200,16.106
43.0400,-8.7380,-11.4720,7.8570,16.422
43.0520,-9.2620,-12.0890,7.5450,16.996
43.0600,-10.9460,-12.0260,6.0940,17.366
43.0710,-12.9340,-11.3400,4.3610,17.745
43.0800,-14.3270,-10.5860,2.3650,17.970
43.0910,-14.6760,-10.0840,0.3480,17.810
43.1030,-13.7050,-9.5940,-1.4540,16.792
43.1130,-11.7820,-9.1000,-2.5190,15.099
43.1220,-9.7870,-8.8600,-3.3460,13.619
43.1310,-8.1430,-9.1710,-3.3400,12.711
43.1410,-5.6670,-10.0320,-3.0640,11.922
43.1510,-2.6160,-11.3680,-1.9100,11.820
43.1610,1.3780,-12.8920,-0.1320,12.966
43.1710,5.7560,-14.2870,2.0290,15.536
43.1800,9.8810,-16.0000,4.1970,19.268
43.1910,14.0090,-17.0560,6.5000,23.009
43.2010,18.0290,-15.1540,8.9700,25.202
43.2110,21.8390,-11.5290,10.7250,26.924
43.2230,26.9030,-9.1190,11.4470,30.626
43.2310,32.7000,-8.7250,11.3360,35.692
43.2400,36.8460,-8.0320,10.3170,39.097
43.2530,36.9850,-5.3900,9.5960,38.588
43.2600,33.3290,-1.6110,9.7790,34.771
43.2720,28.6470,1.4850,9.6160,30.254
43.2830,24.5620,3.4990,8.3140,26.166
43.2910,21.4960,4.6530,5.7260,22.727
43.3030,18.9170,5.4220,2.7120,19.865
43.3090,15.9000,5.9840,0.5810,16.999
43.3210,12.3380,6.1350,-0.5010,13.788
43.3330,8.6210,6.0310,-0.2270,10.524
43.3410,4.7670,5.5390,0.4970,7.325
43.3500,1.3690,4.6930,1.2200,5.039
43.3600,-1.1730,3.7470,1.9760,4.396
43.3700,-2.9810,2.7870,2.6960,4.891
43.3800,-4.2320,1.9430,3.2940,5.704
43.3910,-5.3550,1.3140,3.9650,6.791
43.4050,-6.6370,1.0740,4.6710,8.187
43.4100,-7.9590,1.2150,5.5170,9.760
43.4200,-9.1930,1.7740,6.5010,11.398
43.4310,-9.5860,2.7340,7.8150,12.667
43.4420,-8.7130,3.8320,9.3630,13.352
43.4530,-6.8680,5.0060,11.0280,13.923
43.4610,-4.8700,6.2980,12.9540,15.205
43.4710,-3.8250,7.8430,14.8080,17.188
43.4810,-3.2780,9.7140,16.1220,19.106
43.4910,-2.8000,11.1120,16.5240,20.109
43.5010,-1.4410,11.4280,15.8910,19.627
43.5120,0.4010,11.0880,14.9930,18.652
43.5200,2.0940,10.5310,14.7350,18.232
43.5290,4.1460,10.2240,15.8600,19.320
43.5410,7.4730,10.3010,17.3050,21.481
43.5510,10.7950,10.0350,17.8170,23.123
43.5610,13.0370,9.1130,17.0160,23.293
43.5730,14.6120,8.0730,15.6610,22.890
43.5790,15.1280,7.1730,14.1810,21.941
43.5910,15.3350,6.6930,12.8220,21.080
43.6000,15.8740,6.6320,11.7800,20.850
43.6120,16.5030,6.4340,10.7600,20.725
43.6220,17.5430,5.8540,9.1990,20.655
43.6310,18.0060,5.0220,6.9600,19.947
43.6400,18.1350,4.2300,4.7260,19.212
43.6500,18.8310,3.2020,3.8270,19.481
43.6620,19.5780,1.7380,4.3480,20.130
43.6690,18.8440,-0.3930,4.9650,19.491
43.6800,16.4650,-2.7190,5.3560,17.526
43.6920,12.4700,-4.6690,5.7680,14.511
43.7010,7.3030,-6.6420,6.1460,11.629
43.7110,2.2440,-8.5200,6.5430,10.974
43.7200,-1.5570,-10.2200,7.6490,12.860
43.7310,-3.9350,-12.1710,9.9850,16.227
43.7390,-6.0580,-13.1850,10.5500,17.940
43.7510,-6.7820,-14.3840,11.4090,19.572
43.7590,-6.0280,-15.8340,13.0340,21.376
43.7690,-6.0320,-16.3780,14.1570,22.473
43.7810,-7.4340,-16.5380,13.9220,22.860
43.7910,-9.0800,-16.5910,12.2100,22.512
43.8010,-10.7090,-16.6340,9.5230,21.956
43.8130,-12.6590,-16.1900,6.4120,21.529
43.8190,-14.0410,-15.1730,3.3220,20.938
44.3400,-14.6130,-13.9040,0.5980,20.180
44.3420,-14.0430,-12.4980,-1.7400,18.879
44.3440,-12.5980,-10.9510,-3.6960,17.097
44.3470,-10.5660,-9.1930,-5.2270,14.949
44.3490,-7.8480,-7.4520,-6.6480,12.701
44.3510,0.3020,6.5120,20.5940,21.601
44.3520,3.6240,6.7390,22.1070,23.394
44.3540,7.0450,6.6350,22.6070,24.591
44.3560,10.1230,5.8460,22.1630,25.057
44.3580,12.6730,4.8500,21.8410,25.713
44.3600,15.2820,4.2120,22.1400,27.230
44.3620,18.4030,4.0450,22.4440,29.305
44.3640,21.0020,3.7790,21.7210,30.449
44.3650,22.9240,3.4920,19.9490,30.589
44.3670,23.3550,2.9860,17.2750,29.203
44.3690,22.4570,2.1250,13.9360,26.515
44.3700,21.2240,0.7090,10.3440,23.621
44.3710,20.6100,-0.8060,7.3080,21.882
44.3810,20.3960,-1.1220,5.0230,21.035
44.3890,20.2460,-0.6190,2.8430,20.454
44.3990,20.0480,-0.4920,1.1250,20.086
44.4110,18.7100,-1.7790,-0.0810,18.795
44.4190,15.9680,-3.4030,-0.1190,16.327
44.4360,11.9370,-5.2190,0.3150,13.032
44.4390,6.6570,-6.9370,1.4330,9.721
44.4510,1.2660,-8.3460,3.0750,8.984
44.4620,-3.6610,-9.6470,5.6370,11.758
44.4690,-8.1500,-10.7570,7.8540,15.615
44.4790,-11.4210,-11.5100,9.3060,18.695
44.4910,-12.5250,-11.6070,10.0980,19.839
44.5010,-11.5760,-12.5180,10.2940,19.917
44.5110,-9.1950,-14.2080,10.3320,19.828
44.5210,-7.1710,-15.9950,9.5670,19.970
44.5300,-6.7500,-16.7930,8.3260,19.922
44.5390,-7.9520,-16.5200,7.3090,19.737
44.5500,-9.6160,-15.9190,5.8900,19.508
44.5590,-11.3260,-15.4950,4.3710,19.684
44.5700,-12.6390,-14.9440,2.6780,19.754
44.5790,-13.3550,-14.2250,0.6620,19.523
44.5890,-13.2410,-13.2780,-1.4200,18.805
44.5990,-12.3490,-12.2270,-3.0660,17.646
44.6090,-10.2510,-11.3280,-4.2650,15.862
44.6210,-6.7240,-10.4590,-4.6280,13.267
44.6290,-2.9840,-9.8660,-3.9660,11.044
44.6460,0.8850,-9.7180,-3.1590,10.257
44.6490,4.2340,-9.9060,-2.1710,10.989
44.6610,6.6020,-10.2850,-0.1190,12.222
44.6700,9.7550,-11.2140,2.5970,15.088
44.6790,14.3200,-10.9120,5.9040,18.947
44.6920,20.0940,-8.3050,8.4650,23.332
44.7010,27.5610,-4.4910,9.2190,29.407
44.7090,36.8160,-1.6450,8.6270,37.849
44.7210,42.9010,-0.9420,6.7320,43.436
44.7310,42.7750,-0.7270,4.2980,42.997
44.7410,37.2780,1.0220,2.8550,37.401
44.7500,31.0790,3.1850,2.4310,31.336
44.7590,26.4000,5.1000,2.1640,26.975
44.7710,22.0170,6.4950,2.2310,23.063
44.7790,18.2200,7.0320,1.4960,19.587
44.7890,15.0780,6.9590,1.1420,16.646
44.8000,12.2730,6.5480,0.8860,13.939
44.8090,9.5930,6.0150,0.9710,11.364
44.8190,6.9870,5.4730,1.2000,8.956
44.8280,4.4670,4.8060,1.5500,6.742
44.8400,2.1640,3.9980,1.9790,4.958
44.8580,0.2000,3.0990,2.2830,3.854
44.8600,-1.4180,2.1820,2.5070,3.613
44.8690,-2.7960,1.3160,2.7540,4.139
44.8810,-3.9560,0.5530,3.1820,5.107
44.8900,-4.9670,0.0030,3.7950,6.251
44.9010,-6.0790,-0.2150,4.6360,7.648
44.9100,-7.2250,0.0220,5.6900,9.197
44.9230,-8.2730,0.9340,7.0170,10.888
44.9290,-9.2180,2.3210,8.5630,12.794
44.9410,-9.5850,3.9750,9.9560,14.380
44.9490,-9.0100,5.6460,11.3060,15.520
44.9610,-7.3970,7.4070,13.1000,16.769
44.9690,-5.2860,8.9430,15.5590,18.708
44.9790,-1.8710,10.0350,18.8980,21.479
44.9880,2.5430,10.3380,22.7630,25.130
45.0010,7.1470,9.7420,25.7710,28.463
45.0100,10.7230,8.1730,26.7370,29.944
45.0190,12.9380,6.2810,25.4710,29.251
45.0320,14.3780,5.3610,23.3200,27.916
45.0400,16.4000,5.3080,21.5250,27.576
45.0510,19.5840,5.4530,20.1830,28.646
45.0580,23.1550,4.9020,19.1460,30.443
45.0710,25.7170,3.4400,17.4330,31.259
45.0800,26.4390,1.4860,14.7820,30.327
45.0900,25.4820,-1.6070,12.1840,28.291
45.1000,23.4710,-5.6660,10.1490,26.191
45.1100,20.9470,-8.3290,8.2190,23.994
45.1190,18.9550,-7.7710,6.6420,21.536
45.1310,18.0170,-5.1780,5.5160,19.541
45.1390,18.3020,-3.5870,4.9230,19.289
45.1510,18.0010,-4.0040,4.7090,19.033
45.1600,16.3580,-5.4010,5.2730,18.016
45.1700,12.9020,-6.5590,6.4570,15.848
45.1790,8.6850,-7.4360,7.5080,13.678
45.1880,4.4430,-8.1750,8.9680,12.923
45.2000,0.3360,-9.0190,9.4750,13.086
45.2090,-3.6480,-9.9910,12.3170,16.274
45.2200,-7.2530,-10.5920,9.5630,16.008
45.2290,-8.0100,-10.2190,9.9220,16.341
45.2400,-9.2660,-10.0410,9.7350,16.776
45.2510,-9.1060,-10.5950,9.2920,16.778
45.2600,-8.3810,-11.3720,8.0490,16.259
45.2690,-8.0710,-11.7440,6.5310,15.675
45.2810,-8.0910,-11.7400,4.8960,15.075
45.2920,-8.5680,-11.4780,3.2830,14.695
45.3000,-9.2510,-11.0150,1.6250,14.476
45.3110,-9.8130,-10.4940,-0.1180,14.368
45.3200,-10.5070,-9.8440,-1.9290,14.527
45.3300,-11.2790,-9.2180,-3.7500,15.042
45.3400,-11.8270,-8.6150,-5.2980,15.562
45.3490,-11.6200,-8.4200,-6.1680,15.619
45.3580,-9.8450,-8.9290,-6.2680,14.695
45.3700,-6.0730,-10.0490,-5.6240,13.019
45.3790,-1.4420,-11.5260,-4.1580,12.338
45.3900,3.2740,-12.9040,-2.0180,13.465
45.3990,7.0080,-14.0830,0.9500,15.759
45.4110,10.3020,-14.8990,2.4690,18.281
45.4200,13.2940,-13.8310,5.8750,20.063
45.4300,17.5080,-11.0380,9.1900,22.646
45.4400,22.6980,-8.1770,11.3680,26.670
45.4500,27.8910,-6.6680,12.1520,31.145
45.4610,31.4250,-5.6370,11.4340,33.912
45.4710,31.7860,-3.9250,10.4190,33.680
45.4790,29.6620,-1.3930,9.2600,31.105
45.4910,28.4030,1.5660,8.0340,29.559
45.5000,28.0700,3.8430,6.2900,29.022
45.5090,27.6100,5.6660,4.1430,28.488
45.5180,24.9980,6.9110,1.8100,25.999
45.5280,20.6930,7.4940,-0.1400,22.009
45.5380,15.6350,7.5990,-1.0960,17.418
45.5490,10.6220,7.2690,-0.8240,12.897
45.5590,6.5920,6.6840,0.0500,9.388
45.5700,3.6670,5.8190,1.2870,6.997
45.5780,1.6760,4.7330,2.6390,5.672
45.5890,0.3610,3.6860,3.8190,5.320
45.5980,-0.6110,2.9470,4.8480,5.706
45.6130,-1.5830,2.6070,5.6250,6.399
45.6180,-2.6660,2.5940,6.3240,7.337
45.6280,-3.6540,2.9110,7.0550,8.462
45.6380,-4.3180,3.6920,7.9120,9.740
45.6490,-4.6510,4.8300,8.7460,11.021
45.6580,-4.8220,6.1700,9.5780,12.372
45.6700,-4.9600,7.7160,10.4340,13.893
45.6800,-4.7730,9.4130,11.2530,15.428
45.6910,-4.1710,10.9640,12.0000,16.781
45.7000,-3.2470,12.1110,12.9470,18.023
45.7110,-1.5940,12.4120,14.4010,19.078
45.7190,1.2460,12.1790,15.9220,20.085
45.7290,4.8310,11.7270,17.8140,21.868
45.7380,8.4770,10.6750,19.5570,23.839
45.7490,11.7170,8.7990,20.4340,25.145
45.7600,13.6480,6.2370,20.1680,25.138
45.7700,13.8940,3.9510,18.9930,23.862
45.7790,13.2740,2.4920,18.0160,22.516
45.7900,12.9780,2.0340,18.0650,22.336
45.8000,13.6640,1.8970,18.5400,23.109
45.8100,15.5050,1.6430,18.5780,24.254
45.8200,17.8830,1.2210,18.6040,25.834
45.8300,19.4530,-0.4340,18.3910,26.774
45.8410,19.8180,-3.2040,17.7860,26.821
45.8480,19.2080,-5.5250,16.6460,26.011
45.8600,18.9120,-6.5050,15.5040,25.305
45.8700,19.2980,-6.7560,14.2920,24.946
45.8800,19.8840,-7.4190,12.8340,24.802
45.8890,19.8290,-8.2870,10.5490,23.940
45.9010,17.6130,-8.9720,8.7430,21.614
45.9100,13.8430,-9.5150,7.3060,18.318
45.9200,8.7800,-9.9680,6.1080,14.620
45.9300,2.9410,-10.5450,5.3620,12.190
45.9410,-1.4250,-10.7070,6.5460,12.630
45.9500,-5.8770,-11.6540,7.8700,15.241
45.9590,-9.3280,-12.4620,5.6750,16.569
45.9690,-10.9390,-12.3840,5.5570,17.433
45.9790,-10.7050,-12.4080,6.3820,17.587
45.9900,-10.4510,-12.8030,6.2180,17.658
46.0000,-9.9100,-13.4520,5.3620,17.548
46.0090,-9.4550,-13.9720,4.1340,17.370
46.0210,-9.7560,-14.0500,2.7540,17.325
46.0300,-10.5530,-13.6550,1.1780,17.298
46.0400,-11.6310,-13.0920,-0.2980,17.515
46.0510,-12.5300,-12.3090,-1.6130,17.638
46.0580,-12.4800,-11.3280,-2.6450,17.061
46.0710,-11.5690,-10.3130,-3.4720,15.883
46.0780,-9.8440,-9.3780,-3.9550,14.160
46.0910,-7.3070,-8.7540,-3.9310,12.061
46.0980,-4.0810,-8.3860,-3.4020,9.927
46.1110,-0.0480,-8.4900,-2.0320,8.730
46.1180,4.6670,-8.8930,0.0980,10.044
46.1310,9.6640,-9.0310,2.2480,13.417
46.1390,14.3390,-8.7710,4.4020,17.376
46.1510,19.5150,-7.9820,6.2250,21.984
46.1590,24.4830,-5.7800,7.3640,26.212
46.1690,28.7740,-2.7670,8.1730,30.040
46.1800,31.9600,-1.0780,8.0400,32.973
46.1910,33.4010,-0.9920,6.5780,34.057
46.2000,31.8760,-0.9520,4.8090,32.251
46.2100,28.2060,0.1840,3.8380,28.467
46.2210,24.5700,1.7760,4.2060,24.991
46.2290,22.3870,3.1190,5.1130,23.174
46.2400,20.4030,3.9300,5.5040,21.495
46.2480,18.4640,4.3060,5.0420,19.618
46.2590,15.8840,4.5050,4.4710,17.105
46.2700,12.7140,4.4710,3.7830,13.998
46.2780,9.5020,4.3540,3.4610,11.010
46.2890,6.6790,4.1740,3.3960,8.577
46.3010,4.4940,3.9280,3.5620,6.951
46.3100,4.4030,4.5150,3.4880,7.207
46.3190,4.2300,4.8500,1.8260,6.690
46.3300,1.0760,2.8620,0.9570,3.204
46.3390,-3.7720,0.3320,2.0900,4.325
46.3490,-5.8720,0.1060,3.5240,6.849
46.3600,-6.4510,0.5430,4.4450,7.853
46.3740,-6.7390,0.6860,5.3110,8.608
46.3790,-6.6760,0.8380,6.1310,9.103
46.3880,-6.8410,1.4430,7.1170,9.977
46.3990,-7.4400,2.5140,8.2020,11.355
46.4080,-8.0730,4.0120,9.3610,12.996
46.4190,-8.2870,5.4570,10.8470,14.701
46.4280,-7.8740,6.4850,12.6540,16.254
46.4390,-6.6940,7.1720,14.7700,17.731
46.4480,-4.8490,7.4890,17.6940,19.816
46.4590,-2.4140,7.4480,20.9420,22.358
46.4690,0.5250,7.1650,23.6810,24.747
46.4810,3.4100,6.6480,25.5310,26.602
46.4870,6.3780,5.9320,26.1090,27.524
46.4980,9.2850,4.7990,25.2290,27.308
46.5090,11.1000,3.5510,23.3800,26.124
46.5200,12.0800,2.7720,22.0100,25.260
46.5290,13.0020,2.5800,21.8750,25.578
46.5400,14.9160,2.5480,22.1140,26.796
46.5490,17.6910,2.2250,21.4740,27.912
46.5590,19.7970,1.4280,19.9850,28.167
46.5680,20.2120,-0.2720,17.8990,27.000
46.5770,19.3880,-2.5660,15.5830,25.006
46.5870,18.6330,-4.0300,13.2710,23.228
46.5970,18.7920,-3.9990,10.8990,22.089
46.6090,20.4450,-3.5420,8.1800,22.304
46.6200,22.2910,-3.9280,4.9640,23.172
46.6290,21.6750,-5.0030,2.2620,22.360
46.6400,18.2210,-5.8460,0.4440,19.141
46.6490,12.6860,-6.0670,-0.0530,14.062
46.6590,6.6130,-5.8610,0.4180,8.846
46.6700,1.4430,-6.2920,1.2820,6.581
46.6770,-1.0010,-7.3220,3.6480,8.241
52.2050,-4.0630,-9.2370,5.8140,11.646
52.2060,-7.9870,-10.0250,5.9010,14.111
52.2070,-9.6410,-10.6630,6.5060,15.779
52.2080,-10.1370,-11.0980,7.5040,16.800
52.2090,-2.6740,-6.0390,0.9550,6.673
52.2100,-2.6120,-6.1530,2.0490,6.991
52.2110,-2.8680,-6.1640,3.1250,7.482
52.2120,-3.3330,-6.3500,3.1890,7.849
52.2130,-3.7030,-5.9530,2.1310,7.327
52.2170,-4.5160,-4.6360,0.3460,6.481
52.2230,-6.4370,-3.1800,-1.5110,7.337
52.2330,-6.7620,-4.1320,-3.1580,8.531
52.2480,-5.4700,-5.2150,-3.4230,8.297
52.2560,-4.0320,-4.2480,-2.7630,6.476
52.2620,-3.5530,-3.1160,-1.9370,5.107
52.2770,-3.1610,-1.9830,-1.1720,3.911
52.3100,-3.0860,-1.5180,-1.6270,3.805
52.3120,-4.0350,-1.0430,-1.8670,4.567
52.3130,-5.5520,-0.4810,-1.5680,5.789
52.3320,-6.4360,0.0910,-1.3620,6.579
52.3340,-6.2760,0.3860,-1.4970,6.464
52.3360,-5.2180,0.3500,-1.6090,5.472
52.3450,-3.1870,0.0740,-1.2580,3.427
52.3560,-0.9820,-0.5770,-0.7380,1.357
52.3680,0.0250,-1.3420,-0.2140,1.359
52.3770,-0.1470,-2.6530,1.6290,3.117
52.3880,-2.9480,-2.0010,2.3770,4.283
52.3930,-5.5030,-0.2740,2.7520,6.159
52.4100,-7.0450,0.3800,1.8380,7.291
52.4140,-6.9780,-0.1330,1.3960,7.118
52.4370,-5.7170,-0.8790,1.7800,6.052
52.4420,-3.6220,-1.3720,2.9030,4.840
52.4470,-2.5930,-1.0450,4.8900,5.633
52.4550,-3.3680,-1.1730,6.5390,7.448
52.4660,-2.8690,-2.0800,6.2840,7.214
52.4750,-2.4920,-2.1150,6.6020,7.367
52.4840,-2.6370,-2.0760,7.7160,8.414
52.4950,-2.3540,-3.0960,7.4370,8.393
52.5020,-2.5770,-3.3620,6.6890,7.917
52.5130,-3.0250,-2.9060,6.4230,7.671
52.5300,-3.1580,-2.2520,6.2270,7.336
52.5380,-3.6790,-1.6420,6.2770,7.459
52.5510,-4.9820,-0.5640,5.7940,7.662
52.5530,-5.1390,-0.2980,4.6650,6.947
52.5640,-5.0590,-0.2450,4.4430,6.737
52.5910,-5.6790,-0.6470,5.1300,7.680
52.5930,-7.0660,-1.4940,3.8560,8.187
52.5950,-7.0920,-1.5260,3.7370,8.160
52.6020,-7.0000,-1.5860,3.8070,8.125
52.6150,-6.9680,-0.9620,4.6080,8.409
52.6280,-6.2630,-0.6420,5.8290,8.580
52.6320,-5.4050,-0.7490,7.0160,8.888
52.6440,-4.6820,-0.8440,7.7960,9.133
52.6650,-4.4510,-1.0760,7.8390,9.078
52.6660,-4.4810,-1.2910,7.0830,8.480
52.6710,-4.6260,-1.3840,6.1260,7.800
52.6820,-4.7530,-1.1700,5.4970,7.360
52.6930,-4.7610,-0.8140,5.1190,7.038
52.7100,-5.1060,-0.1780,4.8360,7.035
52.7220,-5.6540,0.1480,4.5010,7.228
52.7230,-6.0130,-0.1600,3.9920,7.219
52.7470,-6.2770,-0.6960,3.1740,7.068
52.7560,-6.6790,-0.8470,2.6140,7.222
52.7570,-7.1920,-0.7820,2.6520,7.705
52.7630,-7.5900,-1.1040,3.1110,8.277
52.7740,-7.4300,-1.8400,3.4040,8.377
52.7940,-7.0650,-2.4060,3.5930,8.283
52.7980,-6.8760,-2.6440,3.6240,8.210
52.8020,-6.6550,-2.5740,3.4610,7.931
52.8110,-6.3380,-2.3090,2.9760,7.373
52.8230,-6.0720,-2.0510,2.6930,6.952
52.8330,-5.8700,-1.8560,2.6600,6.707
52.8430,-5.7520,-1.7870,2.7860,6.636
52.8510,-5.6990,-1.9000,2.6990,6.586
52.8620,-5.6930,-2.0390,2.4970,6.542
52.8730,-5.4890,-2.0720,2.2900,6.298
52.8830,-5.7050,-2.0490,2.1310,6.425
52.8920,-5.7320,-2.0900,1.4970,6.282
52.9010,-5.7610,-2.1340,0.9190,6.212
52.9110,-5.5190,-2.0800,0.6160,5.930
52.9220,-5.2220,-1.9750,0.4460,5.601
52.9320,-5.0060,-1.8880,0.3060,5.359
52.9440,-4.9780,-1.8610,0.1750,5.317
52.9670,-5.0880,-1.7570,0.2110,5.387
52.9680,-5.1680,-1.5990,0.3070,5.418
52.9710,-5.2160,-1.5300,0.2970,5.444
52.9820,-5.0780,-1.3960,0.2150,5.271
52.9920,-4.9900,-1.2720,0.1320,5.151
53.0020,-4.9340,-1.0880,0.1690,5.055
53.0110,-4.8360,-0.9660,0.1270,4.933
53.0220,-4.8040,-0.8110,-0.0840,4.873
53.0320,-4.8250,-0.5880,-0.2600,4.868
53.0420,-4.7980,-0.2680,-0.2030,4.810
53.0520,-4.9940,-0.1450,-0.0400,4.996
53.0620,-5.2800,-0.2940,0.1290,5.290
53.0800,-5.3590,-0.3880,0.2960,5.381
53.0820,-5.2650,-0.2940,0.4980,5.297
53.0910,-5.0110,-0.1650,0.6500,5.056
53.1010,-4.6550,-0.1300,0.8120,4.727
53.1110,-4.2380,-0.0120,0.9170,4.336
53.1230,-3.9550,0.0640,0.9650,4.072
53.1320,-3.8130,0.1860,1.0080,3.948
53.1420,-3.8200,0.3350,1.2970,4.048
53.1510,-4.0220,0.4580,1.5780,4.345
53.1620,-4.1860,0.5310,1.8540,4.609
53.1710,-4.1100,0.5740,2.1270,4.663
53.1810,-3.8450,0.3990,2.3060,4.501
53.1910,-3.4070,0.0850,2.5830,4.276
53.2010,-3.1200,-0.0950,3.0680,4.377
53.2110,-3.2390,-0.1770,3.3270,4.647
53.2210,-3.4400,-0.0500,3.1300,4.651
53.2310,-3.5960,0.2380,2.6030,4.446
53.2430,-3.8830,0.6020,1.8810,4.356
53.2510,-4.2010,0.9450,1.2970,4.497
53.2610,-4.1960,1.0640,1.4030,4.550
53.2710,-4.3600,1.9810,1.0850,4.910
53.2830,-5.2700,1.5200,0.8630,5.552
53.2920,-5.2050,-0.3040,0.8800,5.288
53.3020,-5.2650,-1.3210,0.7830,5.484
53.3230,-5.3820,-1.0520,1.4410,5.670
53.3320,-4.7930,-0.8130,1.7310,5.160
53.3420,-4.1560,-0.9850,1.7530,4.617
53.3530,-3.5960,-1.5090,1.6230,4.224
53.3620,-3.2420,-1.5500,1.4190,3.863
53.3720,-3.2580,-0.7500,0.7650,3.430
53.3820,-3.1230,-0.3100,0.0860,3.140
53.3930,-2.9070,-0.6580,-0.4250,3.011
53.4020,-2.7110,-1.1080,-0.6710,3.005
53.4160,-2.6380,-1.3660,-0.7170,3.056
53.4220,-2.7050,-1.3970,-0.6920,3.122
53.5030,-3.2640,-1.4410,-0.0840,3.569
53.5040,-3.4020,-1.4320,0.0140,3.691
53.5040,-3.4140,-1.2600,0.0620,3.640
53.5040,-3.3050,-1.1910,0.0020,3.513
53.5050,-3.3340,-1.1950,0.0590,3.542
53.5070,-3.4480,-1.1060,0.2640,3.631
53.5110,-3.6000,-0.8880,0.5000,3.741
53.5240,-3.7590,-0.5820,0.4910,3.835
53.5310,-3.9480,-0.2700,0.1770,3.961
53.5700,-4.0690,-0.0150,-0.2430,4.076
53.5940,-4.0740,0.2480,-0.5390,4.117
53.5980,-3.8750,0.3120,-0.8370,3.977
53.5990,-3.6330,0.2750,-1.0640,3.796
53.6020,-3.4980,0.3030,-1.2980,3.743
53.6030,-3.3920,0.4440,-1.5700,3.764
53.6040,-3.4650,0.5800,-1.8590,3.975
53.6110,-3.6840,0.8510,-1.7550,4.168
53.6240,-3.9370,1.1320,-1.2330,4.278
53.6310,-4.2030,1.2540,-0.5160,4.416
53.6490,-4.4420,1.1350,0.2680,4.593
53.6520,-4.7270,0.8660,0.9510,4.899
53.6610,-5.0610,0.6290,1.7950,5.407
53.6710,-5.1080,0.4920,2.4980,5.707
53.6810,-4.5170,0.4780,2.8980,5.388
53.6920,-3.4380,0.1370,3.3660,4.813
53.7020,-2.9140,-0.2540,3.8520,4.837
53.7110,-2.5890,-0.5710,4.1730,4.944
53.7210,-2.4790,-0.7390,4.3050,5.022
53.7310,-2.3410,-0.9940,4.7150,5.357
53.7410,-2.4680,-1.0960,5.2610,5.914
53.7520,-2.9810,-1.2920,5.6450,6.513
53.7610,-3.7760,-1.5070,5.8450,7.120
53.7710,-4.6470,-1.5040,5.9110,7.668
53.7810,-5.3350,-1.4440,5.7340,7.964
53.7920,-5.5230,-1.6190,5.1180,7.702
53.8010,-5.2780,-2.0480,4.2000,7.049
53.8110,-4.7240,-2.3150,3.2890,6.204
53.8220,-4.0830,-2.3300,2.5590,5.352
53.8310,-3.4370,-1.9860,2.1580,4.518
53.8410,-3.0180,-1.5290,2.0800,3.971
53.8510,-2.6150,-1.2010,2.1480,3.591
53.8610,-2.2050,-1.1140,2.3810,3.431
53.8710,-1.7020,-1.3250,2.4320,3.251
53.8800,-1.4990,-1.6280,2.2520,3.157
53.8920,-1.5590,-1.9830,1.9330,3.178
53.9010,-1.8810,-2.1650,1.5650,3.267
53.9110,-2.3960,-2.1330,1.1950,3.423
53.9220,-2.8810,-2.0200,0.6700,3.582
53.9310,-3.2440,-1.9160,0.0480,3.768
53.9410,-3.3920,-1.7730,-0.5460,3.866
53.9530,-3.3880,-1.5460,-1.0020,3.857
53.9610,-3.3090,-1.3090,-1.3240,3.797
53.9720,-3.1500,-1.2220,-1.5450,3.715
53.9810,-2.8410,-1.0200,-1.6790,3.454
53.9920,-2.5240,-0.8980,-1.8190,3.238
54.0010,-2.1790,-0.9890,-1.9710,3.100
54.0110,-1.9650,-1.0430,-1.9740,2.974
54.0220,-2.0200,-1.0230,-1.8100,2.899
54.0330,-2.1520,-1.0350,-1.5190,2.830
54.0410,-2.4350,-1.1540,-1.2440,2.968
54.0510,-2.7380,-1.2990,-1.1170,3.230
54.0610,-3.1180,-1.3450,-0.9670,3.531
54.0720,-3.4500,-1.2400,-0.6690,3.727
54.0810,-3.5110,-1.0290,-0.3100,3.672
54.0910,-3.2230,-0.8860,0.0210,3.343
54.1010,-2.8000,-0.9480,0.2640,2.968
54.1110,-2.1930,-1.0810,0.4650,2.489
54.1220,-1.7030,-1.0800,0.6620,2.122
54.1310,-1.4760,-0.9730,0.7380,1.916
54.1420,-1.4180,-0.8940,0.6240,1.789
54.1520,-1.5440,-0.8230,0.3910,1.793
54.1610,-1.7240,-0.7800,0.2810,1.913
54.1710,-2.0890,-0.7420,0.2270,2.228
54.1810,-2.1560,-1.0540,0.1920,2.408
54.1980,-2.2300,-0.7500,0.4530,2.396
54.2010,-2.3740,-0.6900,0.7480,2.583
54.2110,-2.2520,-0.6740,0.7280,2.461
54.2210,-2.3170,-0.6320,1.7690,2.983
54.2320,-2.4370,-0.0360,2.1730,3.265
54.2410,-2.3490,0.2050,1.4740,2.781
54.2500,-2.3040,0.4440,0.1370,2.350
54.2610,-2.2070,0.5550,-0.3440,2.302
54.2720,-1.9350,0.1930,-0.0310,1.945
54.2820,-1.7210,-0.3850,0.5400,1.844
