time,ax,ay,az,aT
0.0270,0.8300,0.3510,0.2230,0.928
0.0270,0.9250,0.0890,-0.1780,0.946
0.0280,0.9020,-0.0500,-0.3270,0.961
0.0280,0.9540,-0.1630,-0.4330,1.060
0.0370,1.0230,-0.2980,-0.4150,1.143
0.0500,1.0720,-0.4410,-0.2930,1.196
0.0570,1.1010,-0.3920,-0.0660,1.171
0.0670,1.2190,-0.2430,0.1110,1.248
0.0860,1.4090,-0.4120,-0.2530,1.490
0.0870,1.5370,-0.7560,-0.4830,1.780
0.0960,1.3800,-0.9990,-0.3050,1.731
0.1080,1.0130,-1.1080,0.2260,1.518
0.1170,0.5610,-0.9490,0.9390,1.448
0.1260,0.5500,-0.5830,1.2910,1.520
0.1390,0.3790,-0.0610,1.5450,1.592
0.1510,0.0720,0.4880,1.8220,1.888
0.1580,-0.0940,0.5770,2.1090,2.189
0.1670,-0.4450,0.3290,2.1300,2.201
0.1780,-0.9990,-0.1500,2.0190,2.258
0.1860,-1.5120,-0.5820,1.7800,2.407
0.1970,-1.5320,-0.9910,1.2140,2.192
0.2090,-1.3190,-1.3330,0.5910,1.966
0.2170,-1.2380,-1.5270,0.0960,1.968
0.2260,-1.0600,-1.7150,-0.1660,2.023
0.2360,-0.8100,-1.9270,-0.5430,2.160
0.2500,-0.8010,-2.0910,-0.9080,2.416
0.2580,-0.9060,-1.9960,-1.1050,2.455
0.2670,-0.8150,-2.0060,-1.0030,2.386
0.2840,-0.8700,-1.5560,-0.5290,1.860
0.2880,-1.0690,-1.1340,-0.0260,1.559
0.2960,-0.8360,-0.8630,0.0540,1.203
0.3090,-0.5990,-0.8390,-0.1290,1.039
0.3160,-0.7580,-0.7290,-0.2700,1.086
0.3270,-0.8770,-0.7920,-0.4290,1.257
0.3370,-1.0300,-0.8790,-0.6460,1.500
0.3460,-1.1640,-0.6590,-0.8800,1.601
0.3560,-1.3040,-0.2590,-0.7840,1.543
0.3730,-1.2470,0.0010,-0.4630,1.330
0.3760,-1.1150,-0.0240,-0.0980,1.120
0.3880,-1.1710,-0.2880,0.0780,1.208
0.4000,-1.2820,-0.3640,-0.1480,1.341
0.4070,-1.3300,-0.4920,-0.6250,1.550
0.4260,-1.2210,-0.6150,-0.9840,1.684
0.4270,-0.8770,-0.5950,-1.0710,1.507
0.4650,-0.6320,-0.5870,-0.6050,1.054
0.4650,-0.4800,-0.4400,-0.3540,0.741
0.4660,-0.3120,-0.3010,-0.2170,0.485
0.4660,-0.1090,-0.2290,0.0010,0.254
0.4810,0.1580,-0.3350,0.1760,0.410
0.4870,0.3710,-0.4750,0.1670,0.625
0.5050,0.3820,-0.4430,0.2220,0.626
0.5060,0.2760,-0.3060,0.1890,0.453
0.5220,0.0930,0.0100,-0.0890,0.129
0.5330,0.0200,0.2110,-0.3150,0.380
0.5360,0.0670,0.1900,-0.3710,0.422
0.5680,0.1170,0.2290,-0.5200,0.580
0.5680,0.1010,0.2270,-0.6490,0.695
0.5680,0.1970,0.2870,-0.6060,0.699
0.5800,0.4420,0.2740,-0.4590,0.694
0.5880,0.6180,0.3030,-0.5740,0.896
0.6060,0.6400,0.7470,-0.5800,1.142
0.6060,0.7900,0.8550,-0.5450,1.285
0.6160,0.5310,0.9530,0.0220,1.091
0.6260,0.9940,0.0630,-0.8110,1.284
0.6370,0.4050,0.0410,-0.9710,1.053
0.6470,0.5090,-0.8340,-0.5750,1.134
0.6670,0.3920,-0.0760,-0.4230,0.582
0.6670,0.4400,0.3420,-0.5170,0.760
0.6820,1.0190,-1.4320,0.0380,1.758
0.6880,0.9500,-1.9340,0.2690,2.171
0.6960,0.0890,-0.4500,-0.4400,0.636
0.7060,-0.1250,-0.3970,-0.0080,0.416
0.7150,-0.2700,-0.3460,0.8370,0.945
0.7250,-0.4340,0.4230,1.2390,1.379
0.7350,0.1080,1.3970,0.5270,1.497
0.7460,0.6820,2.2410,-0.0310,2.343
0.7560,-0.6790,2.3660,0.8310,2.598
0.7650,-0.9150,1.7930,0.5140,2.078
0.7780,-0.2690,1.4620,-0.6730,1.632
0.7860,-1.7240,2.7810,-1.1100,3.455
0.7960,-5.7010,5.1750,2.0280,7.962
0.8080,-5.1840,3.1810,0.1410,6.084
0.8150,-8.2630,5.2900,-2.9650,10.250
0.8250,-4.8700,5.9580,-2.8760,8.215
0.8350,0.6620,5.3520,-3.0540,6.198
0.8450,2.5490,4.8900,-3.8790,6.742
0.8570,3.7440,4.0100,-4.5570,7.132
0.8660,4.5570,3.1290,-2.4190,6.034
0.8770,3.4250,1.7550,-0.4620,3.876
0.8880,4.1500,-0.0720,-1.6930,4.483
0.8960,2.2650,0.0080,0.8690,2.426
0.9060,-1.0510,0.6980,3.5860,3.801
0.9160,-2.7700,0.3580,3.4880,4.468
0.9250,-3.5260,-1.5210,1.4420,4.102
0.9370,-3.3550,-1.8710,-0.1250,3.843
0.9460,-0.4720,-0.6380,1.6850,1.863
0.9640,-0.0450,-0.6750,-0.1850,0.701
0.9650,0.7570,-0.3530,-1.1070,1.387
0.9770,1.3270,-0.1050,-1.2640,1.836
0.9860,1.7450,0.4290,-1.3340,2.238
0.9960,1.9980,0.9310,-1.1620,2.492
1.0070,1.8730,1.2500,-1.2340,2.568
1.0160,1.4370,1.2850,-1.5440,2.470
1.0260,0.8510,0.8800,-1.8480,2.217
1.0360,-0.0450,0.2560,-2.0320,2.049
1.0460,-0.8730,-0.2970,-1.8650,2.081
1.0700,-1.2820,-0.5100,-1.5460,2.072
1.0700,-1.2630,-0.4200,-1.1570,1.764
1.0760,-0.9040,-0.3290,-1.0850,1.450
1.0850,-0.4700,-0.2720,-1.3300,1.437
1.0960,-0.1240,-0.2940,-1.6980,1.728
1.1070,0.0580,-0.3110,-2.2180,2.240
1.1160,0.0310,-0.2730,-2.7270,2.741
1.1260,-0.2700,-0.3190,-3.1580,3.186
1.1350,-0.5650,-0.4230,-3.4570,3.528
1.1450,-0.5990,-0.5720,-3.6880,3.780
1.1640,-0.4800,-0.8320,-3.7960,3.916
1.1650,-0.2920,-1.0760,-3.6890,3.854
1.1760,-0.1280,-1.2840,-3.5750,3.801
1.1850,-0.0880,-1.3650,-3.5960,3.847
1.1960,0.0120,-1.3290,-3.6960,3.928
1.2060,-0.0470,-1.4430,-3.9270,4.184
1.2160,-0.3260,-1.8140,-4.2080,4.594
1.2250,-0.6950,-2.3640,-4.5000,5.130
1.2370,-0.8760,-3.0290,-4.5180,5.509
1.2450,-0.9200,-3.7080,-4.5020,5.905
1.2620,-1.0000,-4.5310,-4.5240,6.480
1.2640,-0.5440,-5.3170,-4.8970,7.249
1.2760,-0.3350,-6.1920,-5.4630,8.264
1.2890,-0.3000,-7.0450,-6.2360,9.413
1.2950,-1.1840,-7.4740,-6.9190,10.254
1.3060,-1.8020,-7.9090,-6.8910,10.644
1.3160,-1.2510,-8.6900,-5.6930,10.464
1.3260,0.2320,-9.2860,-3.8750,10.065
1.3360,1.6970,-9.7760,-1.8450,10.092
1.3450,3.3410,-9.2630,0.3620,9.854
1.3600,3.9860,-8.7190,2.3040,9.860
1.3650,4.1960,-8.7140,3.2850,10.214
1.3760,4.1040,-8.8440,3.2240,10.269
1.3890,3.6620,-8.9820,2.7170,10.073
1.3950,3.8430,-9.0810,2.4710,10.166
1.4050,4.0650,-9.3230,3.0510,10.618
1.4160,4.0010,-9.5480,4.3130,11.215
1.4260,5.4050,-11.0630,5.4540,13.467
1.4460,8.2080,-14.4230,5.0920,17.359
1.4470,3.5150,-12.8600,5.4250,14.393
1.4550,0.1950,-11.2640,7.0970,13.315
1.4650,-2.8870,-10.8490,10.1820,15.156
1.4770,-2.6240,-11.0970,13.3210,17.535
1.4850,-1.3880,-12.2420,15.5650,19.851
1.5030,-1.0170,-11.6980,17.0600,20.710
1.5090,-2.0870,-9.1350,17.1260,19.522
1.5160,-2.6960,-6.7890,15.9360,17.530
1.5320,-2.7860,-5.1620,14.2570,15.417
1.5350,-3.1000,-3.9610,12.6000,13.567
1.5520,-3.9320,-2.6670,11.1330,12.104
1.5790,-4.5780,-1.1290,9.7560,10.836
1.5800,-4.6960,0.4170,8.5970,9.805
1.5800,-4.1820,1.7100,7.5180,8.771
1.5890,-3.2280,2.6770,6.5370,7.767
1.5950,-2.3040,3.2430,5.6410,6.903
1.6050,-1.8210,3.3390,4.9290,6.226
1.6170,-2.3560,3.5000,4.2780,6.008
1.6260,-3.6480,4.3130,4.1750,7.024
1.6370,-5.5980,5.3500,4.3650,8.889
1.6460,-7.4020,6.5890,4.6900,10.964
1.6730,-8.6600,8.1500,5.3010,13.020
1.6730,-9.3380,9.6910,6.2300,14.830
1.6750,-9.7960,10.9730,7.3970,16.465
1.6860,-10.1450,11.7650,8.7640,17.837
1.6970,-10.7600,12.0860,10.3780,19.224
1.7050,-11.3840,11.7970,12.5810,20.665
1.7180,-11.5750,10.3570,14.7160,21.396
1.7310,-11.9830,7.9960,16.9460,22.242
1.7400,-12.8130,5.5900,19.4420,23.946
1.7490,-12.9580,3.4670,21.7180,25.526
1.7630,-11.6650,1.0880,23.5620,26.314
1.7830,-8.4690,-1.8720,24.9140,26.381
1.7840,-4.6390,-4.8950,25.9580,26.820
1.7850,-0.8530,-7.5180,26.4970,27.556
1.8000,2.3030,-10.4860,26.4320,28.529
1.8180,4.9410,-13.1250,26.0340,29.571
1.8910,6.7810,-15.2540,25.0230,30.080
1.8930,7.6910,-17.2200,23.2450,29.933
1.8950,7.9330,-19.0940,20.6430,29.217
1.8980,8.6860,-21.0800,17.7000,28.864
1.8990,10.0970,-22.7290,15.0390,29.064
1.9000,11.8440,-23.6990,12.2800,29.201
1.9010,13.5130,-23.7890,9.3680,28.918
1.9020,13.6310,-23.7370,6.4320,28.118
1.9030,12.0890,-23.6210,3.6570,26.786
1.9040,8.9550,-22.8760,1.2190,24.597
1.9160,4.9230,-21.5930,-1.1370,22.176
1.9240,0.9070,-20.5290,-3.0000,20.767
1.9350,-2.8250,-19.8540,-4.7410,20.607
1.9440,-4.4500,-19.6970,-4.7310,20.740
1.9560,-7.8450,-18.8430,-7.3440,21.692
1.9640,-10.0870,-18.8140,-7.8680,22.751
1.9750,-10.7110,-19.2710,-9.2390,23.905
1.9840,-10.5190,-19.8940,-9.6910,24.502
1.9950,-10.9360,-20.0270,-9.7190,24.802
2.0040,-11.9010,-19.9410,-9.3060,25.018
2.0150,-12.6350,-19.8490,-8.6900,25.083
2.0250,-14.1950,-19.4700,-7.8740,25.349
2.0350,-15.7200,-18.9770,-7.3450,25.714
2.0440,-15.9890,-18.6360,-7.0140,25.537
2.0540,-15.5060,-18.0760,-6.7530,24.754
2.0640,-13.9950,-17.0920,-6.6060,23.057
2.0750,-12.9800,-16.5830,-7.0730,22.215
2.0980,-10.5160,-15.7120,-7.6150,20.382
2.0990,-8.3030,-15.3960,-8.2420,19.337
2.1070,-5.2940,-14.8010,-9.1780,18.203
2.1160,-2.3710,-14.0230,-10.1760,17.488
2.1250,0.5000,-13.5500,-10.6360,17.233
2.1350,3.5950,-13.8630,-9.3760,17.118
2.1450,6.8800,-14.2810,-7.1390,17.385
2.1580,11.7380,-14.1750,-3.4950,18.733
2.1670,16.8280,-13.1410,1.0080,21.375
2.1760,20.9790,-11.1850,4.9120,24.277
2.1890,23.0490,-9.1730,7.4430,25.900
2.1960,22.8880,-7.7790,8.1220,25.502
2.2050,21.8000,-6.7770,7.5960,24.060
2.2200,20.5640,-5.3610,6.9580,22.361
2.2350,19.3110,-3.4530,6.9840,20.823
2.2370,18.1190,-1.1430,7.8860,19.794
2.2480,17.1850,0.8560,9.1460,19.486
2.2570,16.7390,2.3630,9.8280,19.554
2.2660,16.3000,3.4750,9.5010,19.184
2.2860,15.5260,4.3480,8.3020,18.135
2.2950,13.9140,5.2130,6.8500,16.361
2.2960,13.0220,9.6660,9.0190,18.557
2.3070,11.7470,9.6320,5.8690,16.285
2.3230,11.2130,8.4220,-0.4310,14.030
2.3340,8.9590,10.9410,-3.6110,14.595
2.3350,0.8110,2.2810,-4.1510,4.805
2.3450,-3.2930,2.9090,-5.0000,6.656
2.3560,-7.3340,5.6380,-4.0970,10.117
2.3650,-9.6670,6.7440,-2.6650,12.084
2.3770,-10.5830,6.6470,-1.7820,12.624
2.3850,-10.7620,6.4170,-1.5770,12.629
2.3950,-10.5950,6.6240,-1.6460,12.603
2.4040,-10.7410,7.0680,-1.3880,12.933
2.4140,-11.3190,7.6390,-0.5030,13.665
2.4250,-11.8860,8.1340,1.0450,14.441
2.4340,-12.0660,8.4740,2.8480,15.017
2.4450,-11.8190,8.5420,4.7330,15.332
2.4540,-11.4770,8.4680,6.6610,15.742
2.4640,-11.0660,8.1470,8.6980,16.263
2.4740,-9.8630,7.5730,11.0330,16.624
2.4850,-7.5510,7.0820,13.7550,17.215
2.4950,-4.2900,7.0320,17.0110,18.900
2.5050,-0.9840,6.4440,20.4870,21.499
2.5160,1.8190,5.0490,23.0960,23.711
2.5280,3.5830,3.2290,23.7780,24.262
2.5340,4.7820,1.6590,22.9440,23.496
2.5450,5.7380,0.5340,21.1420,21.913
2.5540,6.2330,-0.5030,18.3660,19.401
2.5650,6.0990,-1.5500,15.4640,16.695
2.5750,5.0880,-2.7580,12.7450,13.997
2.5850,3.3470,-4.4390,9.5580,11.057
2.5960,1.5450,-5.5470,6.7610,8.881
2.6040,0.4940,-5.3940,5.5940,7.787
2.6170,1.2610,-5.0930,4.4480,6.878
2.6250,3.2120,-6.2430,3.1420,7.692
2.6350,5.9530,-7.1070,1.0800,9.333
2.6450,7.0720,-7.8340,-0.5800,10.570
2.6560,7.3490,-8.1260,-1.8380,11.109
2.6660,6.7020,-8.4100,-2.6540,11.076
2.6760,5.2800,-9.0230,-3.2780,10.956
2.6850,3.1440,-9.7500,-3.4990,10.825
2.6950,0.7180,-10.4880,-3.5200,11.086
2.7050,-0.6170,-11.3670,-3.2760,11.846
2.7150,-2.5520,-11.8290,-3.6080,12.628
2.7260,-4.3460,-12.5400,-3.6400,13.762
2.7360,-6.6160,-12.9340,-3.9850,15.065
2.7460,-6.1660,-13.2680,-2.7240,14.882
2.7550,-4.7060,-13.9890,-1.5900,14.845
2.7660,-3.1840,-14.7260,-1.6270,15.154
2.7760,-2.1570,-15.0980,-2.6790,15.485
2.7850,-1.9160,-15.6940,-4.2300,16.367
2.7950,-3.1890,-16.8510,-6.1410,18.216
2.8050,-5.8240,-17.2260,-8.3800,20.022
2.8160,-7.3730,-16.5530,-11.1070,21.254
2.8250,-8.4710,-16.2270,-13.3080,22.631
2.8370,-8.8640,-15.7350,-15.2230,23.620
2.8450,-8.4220,-14.7400,-15.3530,22.889
2.8550,-6.4550,-13.5250,-13.0280,19.858
2.8650,-3.0850,-12.0330,-10.7220,16.409
2.8760,1.0060,-11.5350,-9.0090,14.671
2.8870,5.8300,-11.9170,-6.3110,14.691
2.8960,11.1420,-11.0130,-3.4220,16.036
2.9040,16.0970,-8.9470,-0.6220,18.427
2.9170,19.7140,-6.3800,2.0550,20.822
2.9270,22.9820,-4.1280,4.6670,23.812
2.9370,24.0400,-2.6930,5.2960,24.763
2.9480,24.5130,-1.4460,4.8520,25.030
2.9570,24.1420,0.3460,4.3310,24.530
2.9670,22.5350,3.0150,4.0390,23.092
2.9760,20.5630,5.2900,3.9470,21.596
2.9880,18.9260,6.4780,4.1040,20.421
2.9950,16.9690,7.3990,3.8830,18.915
3.0050,13.8410,7.7010,3.7880,16.286
3.0140,9.8930,7.5860,3.4110,12.925
3.0250,6.9640,7.6960,2.0990,10.589
3.0350,3.4790,7.7360,1.2290,8.571
3.0450,0.3350,7.5240,0.1700,7.533
3.0570,-1.9750,7.3250,-0.2510,7.591
3.0660,-4.2010,6.8310,0.1300,8.020
3.0750,-5.6240,6.6450,0.1710,8.707
3.0870,-6.9400,6.8600,0.2730,9.762
3.0950,-8.6390,6.9530,0.2970,11.093
3.1060,-9.4190,7.2220,0.5240,11.881
3.1150,-9.9090,7.8170,1.5140,12.712
3.1260,-10.2670,8.5830,2.6280,13.638
3.1350,-10.1300,9.5350,3.5230,14.351
3.1450,-9.6080,10.6110,4.1910,14.915
3.1560,-8.4700,11.6100,4.5310,15.069
3.1650,-7.3410,12.2240,5.2540,15.196
3.1750,-5.1430,11.9970,6.5110,14.587
3.1850,-3.7510,12.0430,7.6690,14.762
3.1960,-3.4840,11.5900,9.1590,15.177
3.2040,-2.2550,11.2140,11.3880,16.141
3.2150,0.3210,10.3730,14.4290,17.774
3.2260,2.8730,8.8580,17.2750,19.625
3.2350,4.9060,6.9030,19.3120,21.087
3.2450,6.5600,4.5240,20.2240,21.737
3.2560,7.2820,2.0240,20.0240,21.403
3.2640,7.5930,-0.2140,19.5330,20.958
3.2780,8.4660,-1.4040,19.0770,20.918
3.2860,9.6480,-2.0450,18.6290,21.079
3.2950,10.7070,-3.1330,17.7840,20.993
3.3080,10.0010,-5.6910,16.0120,19.718
3.3150,8.3240,-7.8700,13.2520,17.517
3.3260,6.7760,-8.3510,9.5900,14.409
3.3360,5.9610,-7.4010,6.4920,11.509
3.3450,6.9090,-6.6370,4.3570,10.525
3.3560,8.5970,-7.0730,3.0510,11.543
3.3650,8.8680,-7.9260,2.2770,12.110
3.3740,6.4140,-8.5010,1.8520,10.809
3.3880,2.6160,-8.7200,1.5670,9.238
3.3950,-1.0100,-9.1290,1.4270,9.295
3.4040,-3.6500,-9.8170,1.1180,10.533
3.4150,-5.1070,-10.7360,1.1930,11.948
3.4240,-5.5550,-11.5280,0.6560,12.813
3.4360,-6.0760,-12.3040,0.5080,13.732
3.4450,-6.1970,-13.4670,0.3280,14.828
3.4550,-5.8890,-14.4700,0.4800,15.630
3.4670,-5.7290,-14.7800,0.7640,15.870
3.4740,-5.6810,-14.8760,1.0000,15.955
3.4850,-6.0060,-15.2700,0.6050,16.420
3.4980,-6.3310,-15.8710,-0.3670,17.091
3.5080,-6.7660,-16.5240,-1.8080,17.947
3.5140,-7.5280,-16.8390,-3.4670,18.768
3.5280,-8.7840,-16.7360,-5.1620,19.593
3.5350,-10.1450,-16.0490,-6.7550,20.152
3.5480,-11.0790,-15.1020,-8.3800,20.519
3.5550,-11.4320,-13.9950,-9.5890,20.457
3.5670,-10.2720,-12.8560,-9.9700,19.240
3.5790,-7.5870,-12.0790,-10.0670,17.459
3.5870,-3.9040,-11.4770,-9.5300,15.420
3.5990,-0.4510,-11.0640,-8.4080,13.904
3.6070,2.2300,-10.9670,-6.9810,13.190
3.6150,3.8950,-11.4430,-5.6200,13.330
3.6280,5.5640,-12.7770,-3.9320,14.480
3.6360,7.7470,-13.5080,-1.6130,15.655
3.6440,10.7480,-11.8270,1.6900,16.070
3.6550,14.4970,-8.5770,4.9710,17.562
3.6640,18.2160,-5.7490,7.3170,20.455
3.6770,21.6250,-4.4840,8.3670,23.617
3.6860,23.8880,-4.3470,7.9570,25.551
3.6980,24.7030,-3.3140,6.9010,25.862
3.7070,23.9450,-1.5570,6.3690,24.826
3.7190,22.3250,0.5670,6.4790,23.253
3.7270,20.7010,2.4560,6.4940,21.834
3.7350,19.0790,4.0100,6.0950,20.426
3.7480,17.3940,5.1920,5.1650,18.873
3.7590,15.2230,5.9820,3.9820,16.834
3.7680,11.8710,6.1840,2.7240,13.660
3.7790,7.8080,6.0920,1.7160,10.051
3.7880,4.4120,6.3990,0.9920,7.836
3.7990,1.9590,6.5650,0.1930,6.854
3.8080,-0.0520,6.2670,-0.4900,6.286
3.8190,-1.3680,6.6140,-0.9810,6.825
3.8280,-2.2560,6.9290,-1.4270,7.425
3.8400,-5.2480,4.8060,-2.4530,7.527
3.8470,-8.4310,4.6580,-1.7140,9.783
3.8540,-10.2940,5.6470,-0.7280,11.764
3.8640,-11.0950,7.0140,0.1030,13.127
3.8750,-11.8580,8.1050,0.6890,14.380
3.8880,-12.0310,9.0400,1.1410,15.092
3.8950,-12.0170,10.1570,1.6160,15.817
3.9080,-11.3590,11.0720,2.5050,16.059
3.9190,-10.1280,11.4390,4.0850,15.815
3.9260,-8.8150,11.3180,6.4510,15.729
3.9380,-7.4250,10.9950,9.6400,16.400
3.9440,-5.5440,10.8660,13.4680,18.171
3.9560,-2.8870,11.2020,17.1260,20.667
3.9660,0.0740,11.3960,20.3390,23.314
3.9760,2.9410,10.5950,22.3350,24.895
3.9860,5.2810,8.9550,23.0020,25.242
3.9960,7.1800,7.3340,23.0350,25.218
4.0050,9.2290,5.7770,22.8940,25.351
4.0160,11.7150,4.4570,22.5170,25.771
4.0270,14.8180,3.4120,22.0040,26.747
4.0370,17.6950,2.1670,20.9420,27.502
4.0480,19.2350,0.3300,18.7130,26.838
4.0600,19.4220,-2.2760,15.1290,24.724
4.0640,18.6060,-4.7170,11.2490,22.248
4.0760,16.7690,-6.6710,8.3880,19.901
4.0860,15.4570,-8.1570,6.4090,18.615
4.0980,13.7710,-9.0790,4.9830,17.231
4.1070,12.8280,-9.4420,3.4580,16.299
4.1180,11.9930,-10.0810,1.5810,15.747
4.1270,9.7240,-11.3430,-0.5840,14.952
4.1350,5.7890,-12.4280,-2.2410,13.892
4.1480,1.1160,-12.8570,-2.5610,13.157
4.1580,-3.1150,-13.1330,-1.9160,13.633
4.1670,-4.7190,-13.6810,-0.3370,14.476
4.1760,-7.6310,-15.5700,0.5480,17.348
4.1880,-9.9330,-17.3460,-0.7190,20.002
4.1940,-10.5230,-18.7750,-0.7660,21.537
4.2040,-10.1920,-19.8310,-1.0260,22.320
4.2170,-10.6170,-20.3370,-2.5340,23.081
4.2230,-11.2730,-20.5490,-4.3520,23.839
4.2350,-11.4920,-20.5460,-5.7000,24.222
4.2450,-11.8470,-20.6270,-6.4430,24.644
4.2540,-12.0140,-20.4290,-6.6350,24.611
4.2640,-12.0980,-20.4030,-6.5310,24.603
4.2740,-12.1360,-20.0690,-6.6550,24.379
4.2860,-11.4470,-19.4630,-6.7170,23.558
4.2940,-9.6110,-18.5590,-6.7880,21.975
4.3040,-6.8130,-17.3510,-6.4560,19.727
4.3140,-3.0680,-16.2960,-5.6390,17.515
8.1940,0.7750,-15.0770,-4.5680,15.773
8.1970,4.6370,-14.0150,-3.6350,15.203
8.2010,8.3890,-13.1470,-2.6380,15.817
8.2030,12.0190,-12.2350,-1.8120,17.246
8.2040,15.3390,-11.0080,-1.5490,18.944
8.2050,0.5080,7.3680,-7.7900,10.735
8.2060,-3.1140,7.1830,-8.1470,11.299
8.2080,-5.1530,6.5300,-7.6900,11.328
8.2100,-5.8010,5.7830,-6.6940,10.578
8.2200,-5.9370,5.0870,-5.3160,9.454
8.2310,-5.9640,4.6580,-3.6800,8.415
8.2450,-6.3890,4.6230,-1.8800,8.107
8.2510,-7.6250,5.4800,-0.1570,9.391
8.2610,-7.8620,5.7840,2.2420,10.015
8.2710,-9.0570,6.7750,4.3640,12.123
8.2810,-10.4600,8.0740,6.3260,14.650
8.2910,-11.0690,9.5650,7.9410,16.645
8.3000,-11.1860,10.5240,9.2170,17.912
8.3110,-10.2730,11.2120,10.7260,18.609
8.3200,-8.3900,12.0170,12.2650,19.111
8.3300,-5.6920,12.8350,14.0850,19.888
8.3410,-2.5360,13.4240,16.3810,21.330
8.3510,1.0410,13.6140,18.5460,23.030
8.3620,5.5540,13.3330,19.9800,24.654
8.3700,10.0470,12.2950,20.1590,25.661
8.3800,13.4630,10.4610,18.8330,25.404
8.3900,14.8930,8.2720,16.5220,23.732
8.4000,14.8970,6.5160,14.7050,21.923
8.4120,14.4340,5.3710,13.9230,20.761
8.4220,14.4040,4.5050,13.6780,20.368
8.4300,15.3010,3.7190,13.2600,20.586
8.4420,16.3050,2.7840,12.3890,20.666
8.4520,16.8470,1.6220,11.6890,20.569
8.4600,16.1670,-0.3060,10.7970,19.443
8.4720,14.4110,-2.3060,9.4690,17.397
8.4820,12.5310,-3.3310,8.4630,15.484
8.4900,12.4500,-3.1620,7.6450,14.948
8.5010,13.6710,-3.4980,6.5500,15.557
8.5110,14.4690,-5.1830,5.1150,16.198
8.5210,13.4330,-7.7370,3.5400,15.901
8.5320,10.4640,-9.8600,2.2690,14.556
8.5420,6.1430,-11.1010,1.5910,12.787
8.5520,1.2100,-11.5540,1.5100,11.715
8.5610,-3.3420,-11.8440,1.6080,12.411
8.5730,-5.9670,-12.1310,2.0780,13.678
8.5820,-6.8560,-12.6280,2.9480,14.668
8.5930,-8.2120,-13.5870,2.9620,16.150
8.6020,-7.6220,-15.0160,3.0610,17.116
8.6140,-6.7430,-16.6790,3.0540,18.248
8.6220,-6.4660,-17.8720,2.9150,19.228
8.6330,-7.1480,-18.3170,2.7670,19.856
8.6420,-8.7300,-18.1430,2.5760,20.298
8.6510,-10.6500,-17.6480,2.0460,20.714
8.6610,-12.8130,-17.2560,0.9300,21.513
8.6700,-14.5180,-16.7080,-0.6120,22.143
8.6800,-15.5270,-16.1730,-2.0210,22.511
8.6900,-15.0570,-15.7690,-3.4910,22.081
8.6990,-13.0010,-15.5120,-4.2770,20.687
8.7090,-9.3730,-15.3310,-4.4500,18.512
8.7200,-4.3470,-14.8560,-4.0690,16.005
8.7330,1.5910,-14.0740,-2.7150,14.422
8.7410,6.9510,-13.0870,-0.4770,14.826
8.7510,11.6850,-12.2000,1.5700,16.966
8.7620,15.7900,-11.5690,2.7310,19.764
8.7720,17.9880,-10.8780,2.7890,21.206
8.7800,18.2450,-9.7180,1.5610,20.731
8.7920,17.6150,-6.8960,0.0630,18.917
8.8010,17.8850,-3.0080,-0.9340,18.160
8.8120,19.2840,-0.3750,-1.1080,19.319
8.8210,20.9290,-0.7920,-0.5430,20.951
8.8310,22.4780,-2.0340,-0.5900,22.578
8.8420,23.8710,-1.1820,-0.2510,23.902
8.8530,24.6700,0.9880,1.1580,24.717
8.8620,24.8990,2.6940,2.3990,25.159
8.8730,24.1490,3.5960,2.5030,24.543
8.8820,21.5220,3.9960,1.6760,21.954
8.8930,17.2240,4.2080,0.9280,17.755
8.9020,12.1750,4.2840,0.3690,12.912
8.9130,7.4650,4.3640,0.1640,8.649
8.9230,3.6210,4.3360,0.1030,5.650
8.9330,0.8300,4.0670,0.3470,4.165
8.9400,-1.0660,3.4480,0.7820,3.693
8.9530,-2.4100,2.6280,1.3850,3.825
8.9610,-3.4940,1.8640,2.1580,4.510
8.9740,-4.5190,1.4700,3.0810,5.663
8.9820,-5.8100,1.6240,4.1190,7.305
8.9930,-7.3460,2.3540,5.3400,9.382
9.0020,-8.8430,3.4690,6.5150,11.519
9.0130,-10.1980,4.7870,7.5670,13.571
9.0220,-10.8550,6.3680,8.5660,15.224
9.0330,-11.0720,8.2550,9.4670,16.744
9.0420,-11.0540,10.2070,10.1830,18.168
9.0520,-10.0300,11.5360,11.4030,19.071
9.0600,-7.8470,12.0610,13.2300,19.547
9.0730,-5.0190,12.3770,15.4000,20.385
9.0810,-1.9850,12.7240,17.8970,22.049
9.0920,1.0290,12.8980,20.1370,23.936
9.1020,4.9630,12.9110,21.1270,25.252
9.1120,10.1060,12.6760,20.8750,26.431
9.1220,14.7390,11.4430,19.6970,27.132
9.1310,16.8320,9.2120,18.2790,26.501
9.1420,16.3510,6.8210,16.8250,24.433
9.1520,14.9980,4.9140,15.8840,22.392
9.1650,14.6810,3.7660,15.2270,21.484
9.1710,15.7450,2.8410,13.8500,21.161
9.1810,17.7070,2.0680,12.0100,21.495
9.1910,18.4670,0.8090,10.1430,21.085
9.2000,17.4530,-1.3800,8.0920,19.287
9.2100,15.0290,-3.0350,5.8650,16.416
9.2220,12.5770,-3.0650,4.4200,13.679
9.2310,12.4430,-2.4750,4.0540,13.319
9.2410,14.0930,-3.3630,3.0460,14.805
9.2520,15.6810,-5.3220,1.8890,16.667
9.2600,15.4550,-7.3270,1.2430,17.149
9.2700,12.3340,-9.3700,0.8690,15.514
9.2800,6.6190,-10.7820,0.9220,12.685
9.2900,0.8320,-11.1640,1.6430,11.315
9.3000,-2.4760,-11.7460,2.8830,12.345
9.3110,-3.5950,-12.9640,3.0700,13.799
9.3200,-9.2630,-13.7850,5.1780,17.397
9.3300,-10.5160,-15.2540,4.6550,19.103
9.3410,-10.0510,-16.2280,5.3350,19.820
9.3520,-8.4970,-17.2360,5.2760,19.928
9.3600,-7.4950,-18.2230,5.1110,20.356
9.3700,-7.4460,-18.8950,4.2390,20.747
9.3820,-8.3140,-19.2060,2.7410,21.107
9.3910,-10.1620,-19.0940,0.7380,21.642
9.4010,-11.9700,-18.7010,-1.4370,22.250
9.4100,-13.2380,-18.2730,-3.5120,22.836
9.4200,-13.7800,-17.7150,-5.3440,23.071
9.4300,-13.8050,-16.8980,-6.6040,22.798
9.4400,-12.2990,-16.1920,-6.8990,21.472
9.4500,-8.9050,-15.7130,-6.5530,19.213
9.4600,-4.5690,-15.3960,-5.6410,17.022
9.4700,0.2760,-14.8600,-4.2180,15.450
9.4790,5.5100,-14.3950,-2.3710,15.595
9.4890,9.1690,-14.0710,-0.6190,16.806
9.4990,11.0050,-13.6880,1.0750,17.596
9.5090,12.5730,-12.7250,2.9190,18.125
9.5200,15.8060,-10.2770,4.7870,19.452
9.5320,20.8990,-6.1180,6.0490,22.601
9.5410,25.6890,-2.6160,6.5910,26.650
9.5510,28.9750,-1.4390,5.6700,29.560
9.5610,30.0590,-1.8850,4.0840,30.394
9.5730,28.7490,-0.9970,2.8510,28.907
9.5820,25.8710,1.3130,2.3360,26.009
9.5890,22.9130,3.5680,3.1190,23.398
9.5990,20.6400,4.9460,3.6410,21.534
9.6090,18.7750,5.7690,3.3250,19.921
9.6210,16.5640,6.2210,2.4570,17.863
9.6330,13.5980,6.5030,1.3560,15.134
9.6400,10.1230,6.9780,0.4690,12.304
9.6500,6.4710,7.5170,0.0600,9.919
9.6590,3.4110,7.7060,0.4090,8.437
9.6690,1.3050,7.3370,1.3050,7.566
9.6800,-0.1450,6.6050,2.2990,6.995
9.6920,-1.3960,5.8920,3.2130,6.855
9.7010,-2.8120,5.6230,4.0550,7.481
9.7110,-4.4940,5.9700,4.8690,8.919
9.7210,-6.2800,6.5580,5.6260,10.682
9.7310,-8.0990,7.0800,6.0460,12.340
9.7410,-9.8660,7.7240,6.3970,14.068
9.7510,-11.1870,8.6160,6.7590,15.655
9.7610,-12.1360,9.3220,7.0000,16.828
9.7710,-12.2090,9.5760,7.2300,17.118
9.7820,-11.6100,9.4740,7.2710,16.656
9.7910,-10.7700,9.1000,7.5180,15.979
9.8000,-10.1560,8.8810,8.2640,15.821
9.8110,-9.6040,9.1660,9.4620,16.303
9.8220,-7.8980,9.7650,11.0610,16.736
9.8290,-4.5200,10.1140,12.9620,17.051
9.8390,0.8400,10.0040,15.0500,18.091
9.8510,7.1720,9.5480,16.9260,20.715
9.8600,12.6170,8.4190,18.1570,23.659
9.8700,16.7960,6.8220,18.3830,25.818
9.8870,18.6830,5.2730,17.3840,26.059
9.8890,18.9020,4.1360,15.8440,25.008
9.9000,20.6550,3.7670,13.8770,25.167
9.9100,21.6610,2.7330,11.7910,24.813
9.9200,21.4520,-4.5610,2.8220,22.112
9.9320,16.7800,1.2790,1.6140,16.906
9.9420,14.5950,2.3200,7.5630,16.601
9.9490,13.0990,-1.3130,7.8520,15.328
9.9600,11.9170,-2.2390,4.6860,12.999
9.9690,13.6750,-1.9400,3.2120,14.180
9.9790,13.8190,-4.1260,1.7500,14.528
9.9920,11.6750,-6.9120,-0.0850,13.568
9.9990,7.5270,-9.1270,-1.0410,11.876
10.0090,2.1020,-10.7270,-1.0160,10.978
10.0190,-2.8870,-11.7470,-0.2460,12.099
10.0290,-6.8720,-12.3850,1.0780,14.205
10.0410,-10.4110,-13.2010,3.2460,17.123
10.0510,-12.0200,-13.9680,4.6130,18.996
10.0610,-11.3650,-15.0910,4.2560,19.365
10.0710,-9.6780,-16.3190,4.6850,19.543
10.0810,-7.7830,-17.7630,4.5220,19.914
10.0920,-6.4520,-19.0280,4.4650,20.582
10.1010,-6.1470,-19.7420,4.3120,21.122
10.1090,-6.6510,-19.7070,3.6830,21.123
10.1210,-7.7460,-19.3030,2.4960,20.948
10.1300,-8.7560,-18.9090,0.8880,20.857
10.1410,-9.6370,-18.5840,-0.8500,20.951
10.1510,-10.1020,-18.1930,-1.9510,20.901
10.1610,-10.1530,-17.5160,-4.4320,20.725
10.1690,-9.2290,-16.6000,-5.7680,19.850
10.1810,-7.2080,-15.5480,-6.5700,18.354
10.1930,-3.9140,-14.5720,-6.6950,16.507
10.2010,-0.1890,-13.8820,-5.7220,15.016
10.2090,3.4750,-13.2610,-3.9300,14.261
10.2190,6.8490,-12.8440,-2.0710,14.703
10.2290,10.0230,-12.4980,-0.1480,16.021
10.2450,13.4730,-11.6200,1.8430,17.887
10.2500,18.3560,-9.2010,3.2110,20.782
10.2590,24.5360,-5.0090,3.7030,25.314
10.2720,30.3950,-1.2240,3.3500,30.604
10.2790,34.3020,0.4300,2.1220,34.370
10.2920,34.2030,0.2480,1.6370,34.243
10.3000,32.7660,1.1430,0.4340,32.789
10.3120,31.4050,4.2780,1.9750,31.757
10.3210,29.3620,6.2160,3.3390,30.198
10.3320,27.4260,6.8700,3.7470,28.521
10.3410,23.9460,7.1380,3.3040,25.205
10.3500,19.1190,7.0040,2.3110,20.492
10.3590,13.6200,6.4630,1.6420,15.165
10.3690,8.4420,5.8970,1.1300,10.359
10.3800,3.9570,5.3790,0.8510,6.732
10.3910,0.3050,4.8260,0.7270,4.890
10.4010,-2.5530,4.0840,0.7390,4.873
10.4110,-4.9700,3.1240,0.7110,5.913
10.4210,-6.8470,1.9980,0.4810,7.149
10.4310,-8.1300,0.9310,0.3330,8.190
10.4410,-8.9670,0.1140,0.3910,8.976
10.4520,-9.8890,-0.2840,0.8420,9.929
10.4590,-11.1310,-0.0800,1.4780,11.229
10.5030,-12.1810,0.6610,2.6060,12.474
10.5050,-12.9890,1.6840,4.1310,13.734
10.5060,-14.0820,3.3990,5.5620,15.517
10.5080,-14.7410,5.1730,6.2620,16.831
10.5090,-15.0480,7.2800,7.1700,18.189
10.5190,-14.2680,8.7450,8.3700,18.711
10.5290,-12.2300,9.2970,10.2970,18.494
10.5390,-9.5770,9.5010,12.8190,18.610
10.5490,-6.3560,9.6860,15.9870,19.743
10.5590,-3.2640,9.5450,19.2620,21.744
10.5720,-0.2180,9.1640,21.8850,23.727
10.5780,3.4110,8.5740,23.3260,25.085
10.5890,7.6080,7.7490,23.5780,25.959
10.5990,11.1530,6.9700,23.0680,26.554
10.6100,13.4580,6.6010,22.8780,27.351
10.6200,15.2840,6.7970,22.8410,28.311
10.6290,17.4470,6.8250,21.7530,28.708
10.6390,20.2660,6.3110,19.4640,28.799
10.6490,21.9690,5.0900,16.1920,27.762
10.6590,22.4160,2.9270,12.4640,25.815
10.6690,21.3630,0.3150,9.1500,23.242
10.6790,20.4620,-0.9980,6.7770,21.578
10.6890,20.1510,-1.3720,5.1620,20.847
10.6990,20.1470,-1.6200,3.2730,20.475
10.7090,19.8320,-2.8020,1.1570,20.062
10.7190,18.6850,-4.9030,-0.6380,19.328
10.7290,16.1480,-7.1800,-1.4360,17.731
10.7380,12.2050,-8.7940,-0.9900,15.076
10.7490,7.6920,-9.6220,0.3540,12.324
10.7610,3.5910,-10.3030,1.8890,11.073
10.7710,0.0130,-11.4710,3.0920,11.880
10.7810,-1.9920,-12.9200,3.9320,13.651
10.7880,-2.9270,-14.6080,4.3810,15.529
10.7980,-3.2830,-16.3600,4.7020,17.336
10.8090,-3.7510,-17.8800,4.6480,18.851
10.8200,-4.5110,-19.0250,4.1370,19.985
10.8290,-5.5020,-20.0810,3.2270,21.070
10.8410,-6.6620,-21.0050,1.9410,22.121
10.8520,-7.9250,-21.5190,0.5320,22.938
10.8590,-9.4140,-21.6880,-1.0470,23.666
10.8710,-10.5010,-21.3180,-2.9160,23.942
10.8810,-11.2850,-20.6960,-4.6960,24.036
10.8890,-12.0510,-19.6710,-6.1630,23.878
11.6980,-12.4170,-18.4080,-7.1350,23.323
11.7080,-11.5680,-17.3360,-7.3750,22.108
11.7090,-8.9150,-16.6000,-7.0900,20.132
11.7100,-5.4110,-16.2490,-6.4450,18.299
11.7110,-1.8120,-15.7550,-4.8690,16.589
11.7120,10.5360,-16.9220,2.6400,20.108
11.7130,13.3270,-16.4840,5.3970,21.874
11.7140,15.4360,-15.0860,8.2030,23.090
11.7170,19.1830,-11.0970,10.8510,24.675
11.7280,25.5800,-6.2100,12.0180,28.937
11.7370,32.9830,-3.3580,11.1040,34.964
11.7480,37.9530,-3.6520,8.4610,39.056
11.7580,39.7440,-2.5700,5.4210,40.194
11.7680,37.5430,0.6740,4.7710,37.851
11.7770,34.8850,3.6400,3.2290,35.223
11.7880,31.1630,5.2310,3.2070,31.761
11.7980,26.9890,5.2230,1.9500,27.559
11.8080,23.1310,5.8030,1.3530,23.886
11.8200,17.3920,5.6980,0.8010,18.319
11.8290,11.7790,5.6730,0.3560,13.079
11.8400,6.7760,5.7180,0.1470,8.867
11.8500,2.3420,5.5210,-0.4260,6.012
11.8600,-1.0800,5.2700,-0.8220,5.442
11.8680,-3.3990,4.7900,-1.2330,6.001
11.8790,-4.7520,4.0940,-1.6180,6.478
11.8900,-5.8580,3.7790,-1.9840,7.248
11.8980,-5.6170,2.6320,-1.7480,6.445
11.9080,-6.0950,2.0770,-0.9630,6.511
11.9180,-7.3360,2.5560,-0.0740,7.769
11.9280,-8.6440,3.5730,0.8960,9.396
11.9380,-10.0870,4.7840,1.7630,11.302
11.9490,-11.5970,6.9130,2.3490,13.704
11.9640,-13.4210,10.1000,2.7090,17.014
11.9680,-14.5080,13.2870,3.4250,19.969
11.9780,-13.6860,15.2220,4.8270,21.031
11.9880,-10.8690,15.8050,7.1000,20.453
11.9980,-6.8340,16.0390,10.5050,20.355
12.0100,-2.4110,15.6860,14.6490,21.598
12.0180,2.3170,14.7020,19.2270,24.314
12.0280,6.7350,13.2690,23.0320,27.421
12.0380,10.5920,11.3740,24.8430,29.304
12.0480,13.5940,8.9510,24.5250,29.435
12.0580,15.5190,6.4660,22.8360,28.357
12.0700,15.8150,4.3360,21.0160,26.657
12.0780,15.5570,3.0240,20.5070,25.917
12.0870,15.2820,2.1650,20.4860,25.650
12.0970,16.2350,1.6260,20.2540,26.009
12.1100,18.5500,1.0620,19.7830,27.140
12.1200,20.0790,-1.1260,18.7430,27.491
12.1300,20.9950,-4.4420,16.5380,27.093
12.1390,21.0950,-6.4490,13.3150,25.766
12.1500,21.9600,-6.6460,9.2120,24.724
12.1600,23.3200,-7.1490,5.0060,24.900
12.1700,23.4440,-8.6530,1.6470,25.044
12.1790,20.6450,-10.3660,-0.3140,23.103
12.1900,15.2700,-11.3870,-0.8160,19.066
12.1980,8.9280,-11.7160,-0.1330,14.731
12.2090,2.9790,-12.2460,0.9090,12.636
12.2190,-1.7430,-12.9320,1.9470,13.193
12.2300,-4.5850,-13.6460,3.0690,14.719
12.2400,-5.6250,-14.3150,4.1110,15.920
12.2490,-6.0150,-15.0700,4.3820,16.807
12.2600,-5.0900,-16.4540,5.0420,17.946
12.2700,-4.5200,-17.7860,5.1890,19.071
12.2800,-5.4540,-18.9690,4.8740,20.330
12.2900,-6.9140,-19.7860,3.9410,21.327
12.3000,-8.6430,-20.3400,2.5410,22.246
12.3080,-9.8960,-20.5650,0.7240,22.834
12.3180,-10.5120,-20.5490,-1.3000,23.118
12.3280,-10.8710,-20.5010,-3.0100,23.399
12.3380,-10.9690,-19.8520,-4.4670,23.117
12.3480,-10.9530,-18.8980,-5.5390,22.534
12.3600,-10.3910,-17.8990,-6.0290,21.557
12.3690,-9.0550,-16.9980,-5.7630,20.103
12.3780,-6.7700,-16.4380,-4.8590,18.430
12.3890,-3.7230,-16.0030,-3.5480,16.809
12.3990,-0.7820,-15.4530,-1.9320,15.593
12.4090,1.9810,-14.2610,0.1230,14.398
12.4180,6.0940,-12.6310,1.6180,14.117
12.4270,11.7600,-10.8550,2.7340,16.236
12.4390,18.3900,-8.6270,3.9920,20.702
12.4500,26.0790,-5.2580,4.8640,27.045
12.4590,32.1650,-1.2950,4.7580,32.541
12.4700,34.2330,0.8580,3.5140,34.424
12.4800,33.1520,1.1700,2.0640,33.237
12.4900,31.0160,2.0490,1.7330,31.132
12.4980,29.2990,3.9410,1.7380,29.614
12.5090,26.9200,5.6420,3.2240,27.693
12.5200,23.5910,5.8530,3.5850,24.569
12.5300,19.7750,6.2170,3.5720,21.035
12.5400,15.3840,6.6930,3.3310,17.104
12.5470,11.1250,6.7880,2.4840,13.267
12.5580,7.2940,6.4610,1.6310,9.880
12.5700,4.0050,5.8610,1.1790,7.196
12.5790,1.6780,5.2780,1.0440,5.636
12.5900,-0.0920,4.7330,1.5000,4.966
12.5990,-1.9280,3.8880,1.5620,4.612
12.6070,-3.3040,2.8140,1.1040,4.478
12.6200,-4.7720,1.7780,0.5920,5.127
12.6290,-6.3910,1.5660,0.4140,6.593
12.6460,-7.9680,2.6770,0.2170,8.408
12.6480,-9.2490,4.1570,-0.3270,10.146
12.6580,-10.4230,6.1290,-0.6950,12.111
12.6680,-10.8640,8.4040,-0.8060,13.759
12.6790,-10.8310,9.8000,-0.2040,14.608
12.6890,-10.0780,10.0990,1.2420,14.321
12.6970,-8.4890,9.9400,3.4620,13.522
12.7070,-6.7530,10.1160,6.0440,13.582
12.7170,-4.9720,10.1410,8.6630,14.234
12.7270,-3.2480,9.5160,11.3820,15.187
12.7390,-1.7570,8.1020,13.8380,16.131
12.7470,-0.1850,6.8500,16.0880,17.487
12.7570,1.5610,5.9370,18.7640,19.743
12.7670,3.9520,5.1380,21.5810,22.533
12.7770,7.4350,4.8610,23.9160,25.512
12.7900,11.0480,4.2160,25.0440,27.695
12.7980,13.7860,2.8970,24.3450,28.127
12.8100,15.4640,1.7190,22.4350,27.302
12.8170,17.4590,1.3100,19.9220,26.522
12.8470,19.8830,1.1950,17.0850,26.242
12.8490,20.5770,0.4350,14.7310,25.310
12.8510,20.3540,-1.1020,11.3480,23.330
12.8570,18.6120,-2.9680,7.8330,20.410
12.8670,17.8200,-2.7150,5.2930,18.787
12.8770,18.8290,-1.7900,3.5260,19.240
12.8870,20.2190,-2.5950,1.9650,20.479
12.8970,19.7150,-4.7630,0.6080,20.291
12.9080,16.6910,-7.0360,0.0270,18.113
12.9170,11.0120,-8.7430,0.6540,14.076
12.9270,4.2890,-10.0660,1.6530,11.066
12.9400,-1.7500,-11.3190,3.4520,11.962
12.9470,-5.6610,-12.4240,5.0650,14.562
12.9580,-8.8720,-13.8860,6.0880,17.567
12.9680,-11.0520,-14.5970,6.4230,19.403
12.9770,-10.7620,-15.4630,7.1180,20.139
12.9880,-9.3280,-16.6990,7.5020,20.546
13.0000,-7.4930,-18.2820,7.2260,21.038
13.0090,-6.4590,-19.8390,6.4620,21.842
13.0200,-5.6810,-20.4940,5.1240,21.875
13.0280,-5.3710,-20.7730,3.1420,21.685
13.0400,-5.6740,-20.7370,0.5370,21.506
13.0490,-6.5430,-20.7470,-2.0560,21.851
13.0570,-7.5350,-20.0040,-4.8880,21.928
13.0670,-8.8100,-18.8660,-7.2590,22.051
13.0790,-9.9940,-17.4210,-9.1650,22.076
13.0900,-10.1300,-15.8960,-10.6480,21.649
13.0980,-9.0100,-14.7160,-11.2410,20.594
13.1070,-6.7240,-13.7910,-10.6600,18.683
13.1170,-3.4280,-13.2670,-9.1620,16.484
13.1270,0.4650,-13.1810,-7.2660,15.058
13.1380,4.0450,-13.5840,-4.8470,14.979
13.1470,6.8490,-14.0670,-1.7380,15.742
13.1570,8.8870,-14.2980,1.8890,16.940
13.1660,12.0580,-13.3380,6.3060,19.054
13.1780,17.4640,-10.4520,10.6430,22.968
13.1900,23.2190,-6.3850,14.0740,27.892
13.1980,27.2490,-2.6830,15.8250,31.625
13.2070,30.3690,-0.8700,15.2010,33.972
13.2180,32.9990,-0.1480,13.2980,35.578
13.2290,34.1650,1.5260,11.3030,36.019
13.2370,32.1460,3.4730,9.3240,33.651
13.2480,29.3420,5.3820,6.9290,30.626
13.2570,25.5140,6.3180,4.5270,26.672
19.7030,21.6120,6.6110,2.2030,22.708
19.7060,17.7760,6.5720,0.2210,18.953
19.7080,13.5190,5.9170,-1.1270,14.800
19.7090,9.4300,5.1980,-2.1020,10.971
19.7090,5.8080,4.9110,-2.5340,8.017
19.7100,-9.5440,-18.0800,1.6900,20.514
19.7120,-9.3980,-17.5810,-0.4770,19.941
19.7220,-8.8180,-16.9910,-2.3420,19.286
19.7320,-7.5080,-16.2430,-3.6570,18.264
19.7420,-4.7160,-15.4040,-3.5870,16.504
19.7520,-0.9270,-14.7400,-2.9670,15.064
19.7620,2.7970,-14.1770,-2.2420,14.623
19.7710,5.7400,-13.5350,-0.4240,14.708
19.7810,8.4750,-13.4030,1.9000,15.971
19.7910,10.8250,-13.5170,4.4520,17.880
19.8010,14.9230,-12.2610,7.1030,20.579
19.8120,21.8500,-9.1360,8.1120,25.034
19.8210,29.4730,-5.0180,6.9560,30.696
19.8320,35.8650,-2.3920,5.4300,36.353
19.8410,40.5090,-1.7890,4.0560,40.751
19.8510,42.1190,-1.2670,2.4580,42.210
19.8610,40.9450,0.8080,1.6640,40.987
19.8730,36.9580,3.1060,1.7720,37.131
19.8830,32.5430,5.0530,2.0420,32.996
19.8920,27.4860,5.8600,1.8940,28.167
19.9030,22.8370,6.5610,1.5730,23.813
19.9130,18.0720,6.8710,0.9870,19.359
19.9230,13.7230,6.5660,-0.1180,15.213
19.9320,9.6180,6.0940,-0.8010,11.414
19.9420,6.1420,5.7660,-1.3570,8.533
19.9520,3.0990,5.1300,-1.8370,6.269
19.9620,0.6630,4.4130,-1.8680,4.838
19.9710,-1.1710,3.2040,-1.6190,3.776
19.9810,-2.5350,1.8370,-1.3040,3.391
19.9910,-3.5170,1.0760,-0.5470,3.718
20.0010,-4.2280,0.1320,0.3880,4.248
20.0110,-4.7260,-0.3610,2.0140,5.150
20.0220,-5.3370,-0.4420,3.4920,6.393
20.0320,-6.0120,0.0200,4.8780,7.742
20.0420,-6.7730,1.1480,6.5880,9.518
20.0520,-7.7570,2.8830,8.4740,11.844
20.0620,-8.2990,4.6950,10.6570,14.300
20.0720,-7.8750,5.9520,12.8880,16.234
20.0820,-6.9950,6.2310,14.7730,17.493
20.0920,-5.8560,6.1260,16.4940,18.544
20.1010,-5.1480,5.8770,17.7990,19.438
20.1120,-4.6380,5.3490,18.9670,20.245
20.1220,-3.8720,5.0180,20.4220,21.383
20.1320,-1.5030,5.4620,22.7970,23.490
20.1420,3.2130,5.9630,24.8800,25.786
20.1520,9.5140,5.5840,26.0180,28.260
20.1620,15.8340,4.5260,25.8020,30.610
20.1720,20.7810,3.1910,24.9120,32.598
20.1820,23.7940,2.0010,23.2020,33.294
20.1920,25.3960,1.2430,21.0410,33.003
20.2080,26.8660,1.0760,18.3380,32.546
20.2140,27.8320,0.9290,14.4770,31.386
20.2230,26.3940,-1.0150,10.1230,28.287
20.2330,24.2020,-3.2880,6.1170,25.179
20.2430,22.6410,-3.7200,2.1480,23.045
20.2520,23.2050,-1.7040,-1.1610,23.296
20.2620,24.4660,-1.0950,-3.5700,24.749
20.2740,24.9570,-3.5540,-5.1820,25.736
20.2830,22.7260,-6.7180,-4.9840,24.217
20.2940,18.4410,-9.6230,-3.1750,21.042
20.3030,12.5330,-11.2810,0.2860,16.865
20.3130,6.0470,-12.5940,3.9140,14.508
20.3210,2.1340,-13.4720,7.0010,15.332
20.3310,-2.7840,-15.2460,9.0160,17.930
20.3410,-6.3580,-15.9040,11.1150,20.418
20.3530,-5.7400,-16.4390,12.9140,21.679
20.3640,-4.9130,-17.4370,14.4610,23.180
20.3730,-4.7280,-18.4490,14.5330,23.957
20.3830,-5.0190,-19.5150,13.7100,24.372
20.3930,-4.8670,-20.5160,12.1940,24.357
20.4030,-5.1420,-21.2810,10.0570,24.093
20.4130,-6.3260,-21.3070,7.4990,23.457
20.4230,-7.8630,-20.5610,5.0810,22.592
20.4330,-8.7750,-19.6290,2.8280,21.686
20.4420,-9.2880,-18.2500,0.7810,20.492
20.4530,-9.4070,-16.6300,-0.4420,19.111
20.4630,-8.7760,-14.9860,-1.5430,17.435
20.4720,-6.5050,-13.7110,-2.7090,15.416
20.4830,-2.9160,-12.7630,-3.5280,13.559
20.4940,1.3680,-11.8210,-3.7130,12.466
20.5020,5.7480,-10.9970,-3.4310,12.874
20.5120,9.3310,-10.3280,-2.7040,14.179
20.5210,11.9950,-10.1420,-0.9080,15.734
20.5330,14.8700,-10.1480,1.8970,18.102
20.5430,18.8740,-9.6290,4.8800,21.743
20.5520,23.5800,-7.9450,6.7890,25.792
20.5620,27.0320,-4.9920,6.9560,28.356
20.5720,28.7880,-2.3540,6.3590,29.576
20.5840,29.9290,-1.9200,4.6590,30.350
20.5920,32.3570,-2.2070,1.2710,32.457
20.6010,34.7480,-1.4000,-0.9260,34.789
20.6110,35.8140,0.0320,-1.7010,35.854
20.6210,35.3340,1.3920,-1.4300,35.390
20.6320,31.9850,2.1780,-0.6810,32.066
20.6420,26.4520,2.8140,0.2730,26.603
20.6530,20.4450,3.0860,1.4700,20.729
20.6620,14.9910,3.2010,2.6700,15.560
20.6720,10.2750,3.2720,3.6440,11.382
20.6810,6.2240,3.1810,3.9380,8.023
20.6920,2.8670,2.9540,3.5810,5.456
20.7010,0.0990,2.5580,3.0590,3.989
20.7140,-2.0630,1.8150,2.4330,3.670
20.7240,-3.6730,0.8140,1.7950,4.168
20.7330,-5.1000,-0.0640,1.1190,5.222
20.7420,-6.4710,-0.3370,1.0230,6.560
20.7540,-7.3550,-0.0920,2.0270,7.630
20.7680,-7.6840,0.0840,3.6880,8.524
20.7710,-7.7660,0.0810,5.5880,9.568
20.7810,-8.2510,0.2530,7.1140,10.897
20.7910,-9.3920,1.1110,8.5060,12.720
20.8010,-10.8480,2.3700,9.4620,14.589
20.8130,-11.7120,3.9270,10.2740,16.067
20.8230,-11.2450,5.5110,11.2620,16.842
20.8310,-9.0380,6.3980,12.3480,16.586
20.8410,-5.5860,6.5470,13.9260,16.371
20.8510,-1.0510,6.4770,16.7050,17.948
20.8630,3.1660,6.4850,19.9040,21.172
20.8740,6.3110,6.6700,22.8920,24.665
20.8810,9.5790,6.3680,24.6520,27.203
20.8910,13.3310,5.5920,24.5150,28.460
20.9010,16.9740,4.9120,23.9570,29.769
20.9130,20.5230,4.4890,24.3310,32.146
20.9250,24.5170,3.8130,24.7540,35.048
20.9320,28.9740,2.3440,24.1740,37.807
21.0250,32.7940,0.1320,22.0040,39.492
21.0300,32.1730,-3.4550,14.3330,35.390
21.0320,29.7010,-6.4410,-0.5890,30.397
21.0350,27.9340,-7.2010,9.8110,30.470
21.0370,23.2450,-7.1200,10.8080,26.605
21.0380,20.9400,-4.9890,12.3840,24.834
21.0390,24.7150,-7.7880,1.0740,25.935
21.0420,23.5970,-11.0660,-1.8050,26.125
21.0440,18.6840,-11.4290,-2.4840,22.043
21.0450,11.1280,-10.9700,-2.1630,15.775
21.0510,3.9080,-11.0150,-0.0700,11.688
21.0610,-0.7540,-11.6130,2.8560,11.983
21.0710,-4.5100,-12.6260,4.6100,14.178
21.0810,-9.3810,-14.5560,5.8740,18.286
21.0910,-9.0650,-16.1040,8.1760,20.208
21.1060,-8.1260,-17.5410,10.0000,21.765
21.1110,-7.5990,-18.7680,10.8880,22.990
21.1210,-7.8820,-20.0690,11.1990,24.296
21.1310,-8.8130,-20.7350,10.6610,24.925
21.1400,-9.5780,-20.8180,9.3250,24.740
21.1530,-10.3260,-20.9450,7.5210,24.533
21.1620,-12.0020,-20.8950,5.2050,24.652
21.1730,-12.7010,-20.5000,2.8440,24.283
21.1830,-11.9710,-19.9940,0.3250,23.306
21.1930,-10.4910,-19.4110,-1.7510,22.134
21.2010,-7.0910,-18.4350,-3.3250,20.030
21.2130,-2.4010,-17.3950,-3.9440,17.997
21.2210,2.6230,-16.2790,-3.6190,16.881
21.2330,7.2520,-15.4130,-2.0040,17.151
21.2410,11.0160,-14.9000,-0.8180,18.548
21.2510,12.5150,-15.0490,2.0790,19.683
21.2610,13.2550,-14.7110,5.3790,20.519
21.2720,15.8400,-12.8660,8.6360,22.159
21.2820,21.3470,-9.4600,9.9610,25.385
21.2930,27.9790,-5.5710,8.9030,29.885
21.3030,33.8880,-2.4000,7.0550,34.698
21.3150,37.3750,-1.4810,4.7720,37.708
21.3230,37.8620,-1.5190,2.7020,37.989
21.3330,36.2340,-1.0300,1.7870,36.293
21.3420,33.0310,0.8250,1.8150,33.091
21.3530,30.0100,2.8160,2.6660,30.260
21.3630,27.2420,4.1670,3.6500,27.800
21.3730,24.2280,4.6560,3.9960,24.993
21.3830,21.3140,4.5870,3.4550,22.074
21.3930,17.5390,4.1650,3.1800,18.305
21.4010,13.7500,3.7740,2.6360,14.500
21.4130,10.0240,3.4980,2.2340,10.849
21.4230,6.4580,3.3150,1.7510,7.467
21.4330,3.4920,3.0840,1.4160,4.869
21.4430,1.1990,2.5340,1.0730,3.002
21.4540,-0.2890,1.6520,0.6740,1.807
21.4620,-1.4910,0.6040,0.5080,1.687
21.4730,-2.6700,-0.2880,0.6190,2.756
21.4870,-4.0010,-0.8090,1.0390,4.212
21.4910,-5.4620,-0.8110,1.9280,5.849
21.5010,-6.9420,-0.5360,3.2420,7.680
21.5110,-8.0890,0.0880,4.7520,9.382
21.5210,-8.9790,1.0510,6.2530,10.992
21.5310,-9.7780,2.4990,7.7400,12.719
21.5430,-10.1120,4.2160,9.1270,14.259
21.5540,-9.4150,5.4530,10.3400,15.010
21.5620,-7.4130,6.0820,11.7790,15.188
21.5730,-4.6010,6.4770,13.2650,15.462
21.5820,-1.7220,6.5580,15.1290,16.579
21.5930,0.4780,6.1420,17.6370,18.682
21.6000,3.1980,5.9450,20.2140,21.311
21.6100,7.1720,5.7830,22.0360,23.884
21.6200,12.6690,5.4170,22.4970,26.381
21.6340,18.1620,4.4490,21.7940,28.716
21.6500,22.2290,2.8950,20.8040,30.583
21.6510,24.6420,1.5650,19.8100,31.656
21.6620,26.0200,0.6360,18.3180,31.828
21.6710,26.6140,-0.2290,16.0000,31.054
21.6820,25.7970,-1.6940,13.2020,29.028
21.6930,23.4550,-3.9510,10.5500,26.020
21.7020,20.0630,-6.4420,8.6750,22.788
21.7120,16.5720,-7.0880,7.4950,19.520
21.7220,15.2470,-6.2490,5.1880,17.275
21.7330,16.4250,-5.6750,1.9460,17.486
21.7420,17.8810,-6.1530,-0.7210,18.924
21.7520,17.3140,-7.0820,-1.9790,18.811
21.7610,14.2310,-7.7550,-1.1860,16.250
21.7700,10.0170,-8.2530,0.4750,12.988
21.7800,5.7670,-9.2020,2.3830,11.118
21.7930,3.3530,-10.6260,4.3220,11.951
21.8020,0.8220,-11.9600,6.8610,13.813
21.8120,-3.5680,-13.2890,7.0910,15.479
21.8220,-5.7990,-14.4790,8.0970,17.574
21.8330,-5.0610,-15.1110,9.5200,18.563
21.8420,-4.3290,-16.4380,10.0470,19.746
21.8520,-3.9760,-17.7430,10.0070,20.755
21.8620,-3.9250,-18.6560,9.5140,21.307
21.8700,-4.9460,-19.1340,8.5270,21.524
21.8820,-6.2680,-19.0630,7.0920,21.283
21.8920,-7.4590,-19.0060,5.7850,21.221
21.9020,-7.6420,-18.9560,4.2080,20.867
21.9120,-7.7150,-19.0030,2.7010,20.686
21.9220,-7.2690,-18.6640,1.0850,20.059
21.9320,-6.0800,-18.1470,-0.2890,19.141
21.9400,-3.7740,-17.2240,-1.4990,17.696
21.9510,-0.7820,-16.1200,-2.2420,16.294
21.9620,2.8130,-14.7890,-2.3750,15.240
21.9720,6.5950,-13.3860,-1.3690,14.985
21.9820,9.3990,-12.5960,-0.3570,15.720
21.9910,11.6490,-12.8710,0.7690,17.377
22.0020,15.0410,-12.7610,2.1790,19.845
22.0110,19.3920,-11.0220,3.6220,22.598
22.0220,23.9640,-7.8890,3.9110,25.530
22.0320,28.8770,-4.7680,3.4610,29.472
22.0420,33.1790,-3.6050,2.5160,33.469
22.0530,36.1360,-4.1700,1.5330,36.408
22.0620,36.7620,-4.5150,1.2950,37.061
22.0710,35.5460,-2.9740,2.3750,35.749
22.0810,33.6640,-0.8000,4.4290,33.964
22.0920,31.1470,1.0100,6.2570,31.785
22.1020,28.2310,2.2320,6.8800,29.143
22.1120,24.6310,2.7780,6.4720,25.618
22.1220,19.9190,2.8680,5.5400,20.873
22.1420,14.6450,2.7800,4.5310,15.580
22.1440,9.2700,2.7830,3.4310,10.269
22.1500,4.4410,2.9030,2.2280,5.754
22.1660,1.1490,3.8940,1.3890,4.291
22.1710,-1.0510,4.4850,-0.9300,4.699
22.1810,-2.6310,3.8780,-4.0560,6.198
22.1900,-5.2270,2.2730,-5.6210,8.005
22.2080,-5.8760,2.0680,-5.4020,8.245
22.2100,-7.4090,0.5150,-3.8000,8.343
22.2200,-6.8370,-0.4400,-1.1930,6.954
22.2310,-5.8360,-0.9770,1.5830,6.125
22.2410,-5.2920,-1.3370,4.4180,7.022
22.2500,-5.1730,-1.0690,7.5170,9.187
22.2600,-5.4670,-0.2190,10.8980,12.194
22.2730,-5.3400,1.0130,14.6370,15.614
22.2820,-4.9100,2.2930,18.7130,19.482
22.2920,-4.3260,3.2100,22.3840,23.023
22.3010,-3.0910,3.7070,25.1410,25.600
22.3110,-0.4400,3.6590,26.2280,26.486
22.3200,3.6620,2.9900,25.4760,25.911
22.3300,8.4550,2.0130,23.0460,24.630
22.3400,12.9430,0.7450,19.9890,23.825
22.3510,15.8860,-0.9750,16.9490,23.250
22.3600,16.5890,-2.4270,14.6280,22.250
22.3730,16.8090,-2.7250,13.5270,21.747
22.3820,18.4750,-2.3870,12.9900,22.710
22.3920,21.1050,-2.3360,11.8430,24.313
22.4050,23.4000,-2.8300,10.0320,25.617
22.4100,24.0430,-3.8340,8.2890,25.719
22.4200,22.8700,-5.5610,7.8280,24.804
22.4320,20.5890,-6.8630,8.4710,23.297
22.4420,19.1690,-6.6270,8.6190,22.038
22.4500,19.9250,-6.3280,7.2100,22.114
22.4620,21.2910,-6.9180,3.9980,22.741
22.4710,21.4770,-7.3920,1.3700,22.755
22.4820,19.1820,-7.6900,-0.3200,20.669
22.4920,15.1450,-7.6420,-1.0520,16.996
22.5010,10.7850,-7.5210,-0.4850,13.157
22.5100,6.8210,-7.7720,0.7190,10.366
22.5200,6.1920,-8.5180,2.8620,10.913
22.5290,1.7080,-10.0620,3.1400,10.678
22.5400,-2.1100,-10.5500,5.8700,12.256
22.5500,-3.3610,-12.1040,7.1320,14.445
22.5600,-4.0150,-13.6230,8.2560,16.428
22.5720,-3.8210,-14.6790,9.4330,17.862
22.5800,-3.6060,-15.6050,10.2020,18.989
22.5920,-3.7940,-16.5970,10.6270,20.070
22.6000,-4.4170,-17.4650,10.6780,20.942
22.6100,-5.6130,-17.8790,10.2240,21.347
22.6210,-7.2500,-17.9250,9.1940,21.410
22.6300,-8.6060,-17.8490,7.5910,21.220
22.6390,-9.1250,-17.6350,5.5140,20.607
22.6490,-9.4160,-17.6020,3.2250,20.221
22.6600,-9.2100,-17.3440,1.1690,19.672
22.6700,-7.5950,-16.7570,-0.4880,18.404
22.6800,-5.0020,-16.3380,-1.8460,17.186
44.2680,-1.1370,-16.0440,-2.3140,16.250
44.4750,0.1630,1.0880,6.0290,6.129
44.4840,-0.1290,1.0780,7.1440,7.226
44.4970,-0.2520,0.6500,7.4090,7.442
44.5140,-1.4570,-1.7850,3.5090,4.198
44.5170,-3.7170,-1.3670,3.8630,5.532
44.5270,-3.8030,-1.8900,4.6120,6.269
44.5380,-3.3510,-2.5230,4.4420,6.110
44.5450,-2.9010,-2.1320,4.3240,5.627
44.5870,-1.6120,-1.2590,4.4740,4.919
44.5880,-1.2670,-1.0980,2.8050,3.268
44.5880,-0.9840,-0.8870,2.0230,2.418
44.5890,-0.5910,-0.6480,0.8050,1.190
44.5930,-0.2740,-0.4340,-1.0270,1.148
44.6080,-0.0480,0.1920,-1.3380,1.353
44.6140,0.1350,0.9570,-0.5440,1.109
44.6250,0.0580,1.4950,0.4050,1.550
44.6350,-0.1500,1.4780,0.9100,1.742
44.6410,-0.7210,0.8950,0.1840,1.164
44.6510,-1.3180,0.6390,-0.3790,1.513
44.6610,-1.6820,0.9170,-0.0550,1.917
44.6720,-1.8460,1.0220,0.4460,2.157
44.6820,-1.9230,0.2580,0.0340,1.941
44.6920,-1.5650,-0.2530,-0.0730,1.587
44.7010,-1.7670,-0.6180,-0.0340,1.872
44.7110,-2.0880,-0.8510,-0.0640,2.256
44.7210,-2.0570,-0.7640,0.3000,2.215
44.7330,-1.5480,-0.3930,1.0370,1.904
44.7410,-0.9570,-0.0650,1.3020,1.617
44.7510,-0.4840,0.0270,0.8830,1.007
44.7610,-0.0360,0.1510,0.5660,0.587
44.7720,1.0540,2.3950,0.0080,2.617
44.7810,0.0330,1.5430,0.0020,1.543
44.7910,-0.9260,0.0930,-0.0350,0.931
44.8010,-1.2710,-0.6540,0.1750,1.440
44.8110,-1.2900,-0.5710,-0.1570,1.419
44.8210,-1.3960,-0.6490,-0.7300,1.704
44.8310,-1.4600,-1.0820,-1.6810,2.475
44.8410,-1.3380,-1.2680,-2.4230,3.045
44.8530,-0.9080,-1.0580,-2.6900,3.030
44.8610,-0.3500,-0.7270,-2.5690,2.693
44.8710,-0.0030,-0.6210,-2.1210,2.210
44.8820,-0.0090,-0.7210,-2.0210,2.146
44.8950,0.0010,-0.6000,-2.3160,2.392
44.9010,0.0130,-0.4560,-2.6450,2.684
44.9110,0.0410,-0.2420,-2.4250,2.437
44.9210,-0.1390,-0.2420,-2.2430,2.260
44.9320,-0.2280,-0.1310,-1.8340,1.853
44.9410,-0.2450,0.0320,-1.5690,1.588
44.9530,-0.0540,0.1320,-1.6760,1.682
44.9610,0.2680,0.1980,-1.9960,2.024
44.9730,0.4280,0.1790,-2.1410,2.191
44.9820,0.6500,-0.0210,-2.1520,2.248
44.9910,0.8860,-0.2560,-2.2250,2.409
45.0010,1.1600,-0.3680,-2.0630,2.395
45.0100,1.3510,-0.3570,-1.6850,2.189
45.0210,1.3560,-0.4260,-1.1330,1.818
45.0320,1.0970,-0.5510,-0.4810,1.318
45.0400,0.7880,-0.6990,-0.0970,1.058
45.0510,0.3890,-0.8620,-0.1110,0.952
45.0600,0.2390,-0.8380,-0.5340,1.022
45.0720,0.3180,-0.6300,-0.8700,1.120
45.0810,0.3890,-0.4930,-1.1340,1.296
45.0910,0.2810,-0.5700,-0.9020,1.103
45.1010,0.0280,-0.3890,0.0460,0.393
45.1130,-0.2730,-0.1020,1.0680,1.107
45.1220,-0.7750,0.1570,1.6330,1.814
45.1320,-1.0520,0.4000,0.7250,1.339
45.1420,-0.9070,1.1990,-0.6990,1.658
45.1510,-0.6960,1.4390,-1.6560,2.302
45.1620,-0.4280,1.7080,-2.7060,3.228
45.1710,0.1240,1.5500,-3.1730,3.534
45.1820,0.6310,0.8600,-2.5870,2.798
45.1910,0.3920,0.2430,-1.3690,1.445
45.2010,-0.2840,0.5830,-1.0340,1.221
45.2130,-0.3920,0.8450,-1.2770,1.581
45.2210,-0.0360,0.1250,-0.5300,0.546
45.2310,0.4120,-0.9290,1.2650,1.623
45.2480,0.8770,-1.5720,3.2730,3.735
45.2570,1.5730,-1.8090,4.1270,4.773
45.3140,2.8390,-0.7490,1.4910,3.293
45.3150,2.5350,-0.5690,0.2470,2.610
45.3150,1.7670,-0.3990,-0.7710,1.969
45.3160,0.5570,-0.3980,-1.3410,1.506
45.3210,-0.4340,-0.7830,-1.7000,1.921
45.3320,-1.1390,-1.4510,-2.1690,2.847
45.3410,-2.0980,-2.4610,-2.8780,4.329
45.3500,-2.2490,-2.3460,-3.9520,5.117
45.3610,-0.8250,-2.2240,-3.9870,4.639
45.3750,0.9090,-1.2270,-2.4560,2.892
45.3800,0.5840,0.3770,-0.8630,1.108
45.3990,-2.0900,1.3460,-1.0030,2.681
45.4130,-1.6000,0.0380,-1.9480,2.521
45.4150,1.0300,-1.7250,-2.6490,3.325
45.4210,2.0760,-1.6950,-2.6100,3.741
45.4560,1.7310,-0.7620,-2.4380,3.086
45.4570,1.0730,0.1770,-2.5690,2.790
45.4570,0.7620,0.5680,-2.5870,2.756
45.4600,0.7280,0.8420,-2.9320,3.136
45.4710,0.6460,0.7260,-3.2720,3.413
45.4810,0.2550,0.2660,-3.3880,3.408
45.4900,0.0290,-0.1430,-3.1860,3.189
45.5050,-0.1940,-0.2350,-2.2390,2.260
45.5250,-0.8930,-0.3260,-1.0330,1.404
45.5260,-1.4960,-0.3030,0.1120,1.530
45.5330,-1.8150,0.0630,1.0700,2.108
45.5440,-2.2050,0.4630,2.0560,3.050
45.5500,-2.6610,0.8510,2.9850,4.088
45.5610,-2.9270,1.1740,3.5240,4.729
45.5700,-2.8010,1.3990,3.4840,4.684
45.5800,-2.3620,1.6330,3.0850,4.215
45.5910,-1.8030,1.8120,2.7170,3.730
45.6010,-1.1800,1.6670,2.4550,3.193
45.6120,-0.5080,1.4890,2.2980,2.785
45.6200,-0.2670,1.5870,2.2390,2.757
45.6310,-0.2980,1.7110,1.8200,2.516
45.6400,-0.3120,1.4920,1.0380,1.844
45.6510,-0.2610,1.0930,0.1490,1.134
45.6600,-0.3900,0.8300,-0.6440,1.121
45.6700,-0.8410,1.0700,-1.3200,1.896
45.6800,-0.8870,1.5290,-1.8630,2.568
45.6900,-0.5320,1.9320,-2.2780,3.034
45.7010,-0.5400,1.9530,-2.5540,3.260
45.7100,-0.9020,1.6770,-2.1740,2.890
45.7200,-1.1400,1.2690,-1.3830,2.196
45.7300,-1.2200,0.6540,-0.3190,1.421
45.7430,-1.3430,-0.1410,0.6030,1.479
45.7500,-1.3840,-0.7490,1.1080,1.925
45.7620,-1.1770,-1.1230,1.0600,1.942
45.7700,-0.9790,-1.3170,0.8050,1.828
45.7820,-0.7540,-1.3230,0.5350,1.614
45.7900,-0.3210,-1.2710,0.1870,1.324
45.8010,0.0610,-1.2360,-0.3250,1.279
45.8100,0.0680,-1.1410,-1.0230,1.534
45.8200,-0.2650,-0.9180,-1.0570,1.425
45.8310,-0.6360,-0.7000,-0.1590,0.959
45.8430,-0.9810,-0.6630,1.2250,1.704
45.8510,-0.7740,-0.9160,2.0530,2.378
45.8610,-0.0100,-1.1820,2.4590,2.728
45.8700,0.7140,-1.2190,2.5840,2.945
45.8810,1.3920,-0.9180,2.9010,3.346
45.8910,1.7450,-0.7020,3.0940,3.621
45.9010,1.7110,-0.7760,2.8410,3.406
45.9170,1.4170,-0.9880,2.2290,2.820
45.9210,0.8160,-1.0570,1.3190,1.877
45.9320,-0.0260,-0.9160,0.2560,0.951
45.9420,-0.7890,-0.8200,-0.6940,1.333
45.9500,-1.1780,-0.7810,-1.4550,2.028
45.9610,-1.2010,-0.5640,-1.8250,2.256
45.9760,-0.8540,-0.1580,-2.0060,2.186
45.9850,-0.2490,0.3300,-1.8890,1.934
45.9900,0.2900,0.6030,-1.3820,1.535
46.0010,0.8940,0.7060,-1.0000,1.516
46.0150,1.4670,0.7260,-0.6630,1.766
46.0220,1.8610,0.7270,-0.2510,2.014
46.0320,2.0170,0.7100,0.1530,2.144
46.0410,1.6760,0.5790,0.3760,1.813
46.0510,0.9960,0.1260,0.8190,1.296
46.0620,-0.0140,0.0520,0.9600,0.962
46.0700,-0.4870,0.2210,0.0760,0.540
46.0800,-0.5160,0.4930,-0.8680,1.124
46.0910,0.0190,0.8180,-1.4910,1.701
46.1010,0.8040,0.8280,-2.0030,2.312
46.1300,1.2110,0.7310,-2.0030,2.452
46.1320,1.0500,0.7500,-1.4400,1.934
46.1330,0.6410,0.7070,-1.2300,1.557
46.1460,0.1030,0.6380,-1.5180,1.650
