time,ax,ay,az,aT
0.0160,0.7800,0.0830,-0.4880,0.924
0.0180,0.5040,-0.0830,-0.6310,0.812
0.0240,0.0680,-0.1240,-0.8200,0.832
0.0350,-0.3720,0.0460,-0.9370,1.009
0.0530,-0.6480,0.2990,-0.8230,1.089
0.0540,-0.6950,0.4840,-0.6380,1.060
0.0640,-0.6230,0.4180,-0.5370,0.923
0.0740,-0.5640,0.2660,-0.5290,0.818
0.0850,-0.6120,0.2970,-0.3600,0.770
0.0940,-0.6800,0.4230,-0.0640,0.803
0.1040,-0.8200,0.5440,0.1010,0.989
0.1140,-0.9100,0.5390,0.1660,1.071
0.1240,-0.9040,0.5230,0.3230,1.093
0.1340,-0.8800,0.6240,0.4690,1.176
0.1440,-0.8750,0.7470,0.5060,1.257
0.1540,-0.7510,0.6900,0.4380,1.110
0.1670,-0.4840,0.3920,0.2630,0.676
0.1750,-0.1900,0.0750,-0.0700,0.216
0.1840,0.0780,-0.1900,-0.6060,0.640
0.1940,0.2810,-0.3930,-1.1720,1.268
0.2040,0.4030,-0.6080,-1.9530,2.085
0.2140,0.5170,-0.7940,-2.8880,3.039
0.2260,0.6810,-0.6550,-3.0810,3.223
0.2340,1.0180,-0.5320,-2.8050,3.031
0.2440,1.5810,-0.6130,-2.7360,3.219
0.2540,2.1140,-0.9240,-2.5470,3.437
0.2660,2.4830,-1.3690,-2.2830,3.640
0.2740,2.6360,-1.7390,-2.1130,3.800
0.2840,2.5360,-2.0020,-2.1440,3.878
0.3010,2.3510,-2.2620,-2.2540,3.965
0.3050,2.1830,-2.5640,-2.1750,4.009
0.3140,1.9610,-2.6150,-1.7420,3.704
0.3280,1.7340,-2.4100,-1.2750,3.231
0.3340,1.4940,-2.1710,-1.2460,2.915
0.3440,1.2150,-2.1860,-1.6290,2.985
0.3550,0.7810,-2.4680,-2.3690,3.509
0.3710,0.4950,-2.6800,-3.2030,4.206
0.3740,0.5530,-2.4910,-4.0040,4.748
0.3850,0.6870,-2.2710,-4.5650,5.145
0.3940,0.7280,-2.2720,-4.7970,5.358
0.4060,0.6880,-2.4580,-4.7350,5.379
0.4140,0.5470,-2.8020,-4.3970,5.243
0.4260,0.4700,-3.1920,-3.4430,4.718
0.4340,0.0150,-3.0890,-2.1260,3.750
0.4460,0.3300,-3.1740,-1.3710,3.473
0.4550,1.0360,-3.4110,-0.9750,3.696
0.4640,1.2950,-3.1730,-0.8090,3.521
0.4920,1.7050,-2.6870,-0.2190,3.190
0.4920,1.6830,-2.1490,0.6350,2.802
0.4950,1.6290,-1.9790,0.1090,2.566
0.5070,1.2360,-1.6150,-0.5780,2.114
0.5210,0.5090,-1.5590,-1.1350,1.994
0.5250,-0.4650,-1.5680,-1.4740,2.202
0.5420,-1.0890,-1.3980,-1.3230,2.211
0.5490,-1.2360,-1.1830,-0.3450,1.745
0.5560,-1.0010,-1.0560,1.0040,1.768
0.5720,-0.7380,-0.9200,2.0710,2.383
0.5750,-0.6830,-0.7930,2.8310,3.018
0.6050,-0.6810,-0.6390,3.8060,3.919
0.6050,-0.5230,-0.4780,4.4910,4.547
0.6070,-0.4130,-0.2800,4.6010,4.628
0.6150,-0.4500,0.1250,4.4020,4.427
0.6250,-0.7320,0.6940,4.2080,4.327
0.6350,-0.7780,0.4950,4.7630,4.851
0.6500,-1.1010,0.4940,2.9690,3.205
0.6550,-2.4070,1.9100,1.1810,3.292
0.6660,-3.8810,2.5360,-0.2650,4.644
0.6910,-5.3210,2.4900,-0.8670,5.938
0.6930,-6.4240,2.2890,0.2580,6.825
0.6950,-7.0600,2.7520,1.8840,7.808
0.7060,-6.8770,3.7420,3.2340,8.471
0.7160,-6.1320,5.3500,4.3750,9.239
0.7410,-4.7800,5.4600,5.9710,9.397
0.7420,-3.3060,4.3940,6.9490,8.861
0.7450,-2.9710,4.2620,7.6040,9.209
0.7580,-4.0160,3.9920,9.0050,10.637
0.7650,-5.5680,3.9390,10.9110,12.867
0.7840,-6.0120,4.5230,12.2790,14.401
0.7840,-4.7840,4.6520,13.5400,15.095
0.7950,-4.1200,4.0620,14.9910,16.069
0.8050,-5.3070,3.2720,15.9540,17.129
0.8220,-6.8980,1.9380,15.3680,16.956
0.8280,-7.3790,0.8390,13.3760,15.299
0.8360,-6.8020,0.6120,10.3530,12.403
0.8460,-5.6070,1.0100,7.2090,9.188
0.8550,-4.5470,1.3920,5.2460,7.080
0.8640,-3.9480,0.9510,4.3290,5.936
0.8870,-3.5070,0.3170,3.6650,5.082
0.8880,-3.3180,-0.4150,3.3690,4.747
0.8960,-3.2130,-1.1410,3.4770,4.870
0.9040,-2.1150,-1.9220,3.6740,4.655
0.9160,-0.9520,-1.9910,3.5930,4.217
0.9250,-0.1630,-1.6020,2.3490,2.848
0.9360,-0.0620,-1.3480,1.1340,1.763
0.9440,-0.0510,-1.7620,0.4390,1.817
0.9550,0.7900,-2.1150,0.4150,2.296
0.9660,1.9270,-2.4850,0.0520,3.145
0.9810,2.6470,-2.8960,-0.5310,3.959
0.9840,3.1050,-3.3730,-1.4680,4.814
0.9960,2.8010,-3.8510,-2.7460,5.497
1.0060,1.9960,-4.5670,-3.4820,6.080
1.0150,1.5410,-5.4980,-3.7780,6.847
1.0270,1.2130,-6.2740,-3.2110,7.152
1.0360,1.7260,-6.4110,-3.0450,7.304
1.0450,1.8450,-6.3970,-3.1470,7.364
1.0550,1.5410,-6.4630,-3.8310,7.670
1.0670,1.0780,-6.6220,-4.4120,8.030
1.0900,1.0770,-6.9010,-4.3180,8.212
1.0910,1.3310,-7.2580,-3.9750,8.382
1.0950,1.7350,-8.2560,-4.7210,9.667
1.1060,2.3020,-8.0510,-5.2080,9.861
1.1150,2.4160,-8.3960,-5.7200,10.443
1.1260,2.8600,-9.2250,-6.0400,11.391
1.1350,3.4360,-9.8260,-5.8170,11.925
1.1440,3.0940,-9.8750,-5.2080,11.585
1.1570,1.9110,-9.2850,-4.9320,10.686
1.1640,1.5200,-8.3900,-4.7580,9.764
1.1890,3.2610,-8.1400,-5.0300,10.109
1.1890,5.2220,-8.8390,-4.6350,11.264
1.1950,4.5370,-9.4520,-2.2810,10.730
1.2060,3.1870,-9.3830,-0.2460,9.913
1.2150,3.4910,-9.2410,0.6990,9.903
1.2260,4.6750,-9.7580,0.7350,10.845
1.2350,5.7000,-10.4000,0.4120,11.867
1.2450,5.6950,-10.4750,0.6050,11.938
1.2540,4.8650,-10.5510,1.5410,11.720
1.2660,5.3380,-12.3080,1.8050,13.537
1.2740,4.1710,-13.9690,1.8400,14.694
1.2850,2.8610,-12.5790,4.6210,13.703
1.2950,3.2600,-10.3630,8.2590,13.647
1.3070,4.1490,-8.8730,13.0640,16.328
1.3140,4.7740,-7.0790,18.1210,20.032
1.3250,4.1670,-5.9090,22.6590,23.785
1.3360,3.9380,-5.7540,25.6220,26.554
1.3450,4.1970,-4.8110,26.3250,27.088
1.3550,4.5180,-2.2510,24.7620,25.271
1.3640,4.9010,0.5100,20.9740,21.545
1.3870,3.8760,2.5900,16.5170,17.162
1.3880,0.9470,3.9020,12.8030,13.418
1.4020,-2.4970,4.2570,9.5220,10.725
1.4050,-5.4400,3.7250,6.5350,9.283
1.4350,-7.1890,3.0870,4.0740,8.821
1.4430,-7.9300,2.6690,2.3320,8.686
1.4430,-7.9180,2.3840,1.0080,8.330
1.4450,-6.9060,2.2540,0.5130,7.283
1.4870,-5.9170,2.0920,1.0410,6.362
1.4880,-5.3960,1.9530,2.0800,6.104
1.4890,-4.7840,2.2840,3.1530,6.168
1.4900,-4.1960,3.2810,4.0750,6.706
1.5000,-3.9170,4.7110,4.6310,7.680
1.5050,-3.7610,6.4630,5.0800,9.040
1.5160,-4.3850,8.3200,5.7220,11.009
1.5290,-4.5660,9.8170,6.6520,12.707
1.5350,-4.3930,11.1430,7.4240,14.092
1.5450,-4.9500,11.9190,9.1340,15.811
1.5560,-6.3440,12.2050,9.4960,16.715
1.5660,-8.6430,13.7330,10.3140,19.227
1.5750,-13.6080,20.2550,13.6590,27.964
1.5860,-13.8080,21.3410,12.7910,28.455
1.5960,-8.8580,19.3980,13.0300,24.991
1.6040,-6.4470,16.5790,14.6780,23.062
1.6150,-3.7140,13.4530,16.5110,21.619
1.6260,-2.4140,9.6140,20.3330,22.621
1.6340,-2.0480,6.3030,24.1560,25.049
1.6450,-1.1760,4.3060,26.7240,27.094
1.6550,1.8070,2.7550,28.4350,28.625
1.6650,6.2580,1.3410,28.6590,29.365
1.6740,10.0210,-0.2570,28.3030,30.026
1.6850,11.8060,-1.7170,27.0330,29.548
1.6950,11.6640,-3.2150,24.4860,27.312
1.7060,9.8030,-5.6440,20.4580,23.377
1.7150,6.9450,-7.4060,16.0090,18.957
1.7550,4.4690,-8.3300,12.5800,15.736
1.7580,3.8990,-9.9360,10.5210,14.987
1.7590,5.7290,-11.9310,9.5320,16.310
1.7590,8.5570,-13.8530,8.5880,18.409
1.7750,10.4420,-15.3660,6.6740,19.741
1.7770,10.1270,-15.7680,3.8460,19.131
1.7890,7.5810,-15.7450,-0.0850,17.475
1.7960,3.2310,-15.6810,-3.9870,16.499
1.8040,-0.5050,-16.1410,-7.2110,17.686
1.8180,-4.9840,-16.4120,-7.8750,18.874
1.8260,-9.6340,-15.5090,-6.6770,19.440
1.8360,-11.5880,-15.5380,-5.1750,20.062
1.8500,-10.2700,-17.6780,-3.9430,20.821
1.8670,-7.9610,-19.4660,-2.9630,21.239
1.8740,-6.9480,-19.8860,-2.3040,21.190
1.8760,-7.4230,-19.8630,-2.3380,21.333
1.8870,-9.1010,-19.9270,-2.9820,22.109
1.8960,-11.1120,-20.0690,-3.9050,23.270
1.9090,-12.0750,-19.4650,-4.5900,23.362
1.9140,-12.9100,-19.0590,-4.9830,23.553
1.9260,-13.1840,-19.0240,-5.2830,23.741
1.9900,-12.1950,-18.9200,-5.1010,23.080
1.9960,-10.2890,-18.6670,-4.7290,21.833
1.9990,-7.8030,-18.5050,-4.4810,20.577
2.0000,-4.9610,-18.3370,-4.4400,19.508
2.0070,-2.1700,-18.3450,-4.5650,19.029
2.0090,0.0010,-17.8850,-4.3110,18.397
2.0100,2.4520,-16.9020,-3.3550,17.405
2.0110,5.9120,-16.2120,-1.9290,17.364
2.0150,9.2370,-16.1170,0.3700,18.580
2.0270,11.7670,-16.1630,2.6020,20.161
2.0360,14.6940,-14.9250,5.1150,21.560
2.0460,19.3410,-11.3460,7.5990,23.676
2.0550,24.8940,-7.7990,8.6900,27.496
2.0650,30.6230,-6.6610,8.0730,32.362
2.0740,34.9090,-5.8060,6.7840,36.033
2.0840,35.6300,-3.2400,5.8610,36.254
2.0940,34.2320,0.1140,5.8520,34.729
2.1040,31.6540,2.5200,7.0690,32.531
2.1140,27.8090,3.9370,8.1070,29.233
2.1240,23.4250,5.2140,8.6210,25.500
2.1350,18.6830,6.1720,8.6030,21.475
2.1500,14.1590,6.7830,8.3210,17.769
2.1530,9.9180,7.0590,7.7480,14.430
2.1640,6.4410,7.3730,7.0850,12.085
2.1750,3.0600,6.7250,5.9570,9.491
2.1850,-0.1150,6.1550,5.1420,8.021
2.1940,-2.8910,5.7950,4.2400,7.741
2.2040,-5.3090,5.6040,3.2010,8.357
2.2140,-7.2340,5.2950,2.1340,9.215
2.2250,-8.8300,5.0010,1.2390,10.223
2.2340,-10.5390,5.2440,0.7470,11.795
2.2440,-12.2240,6.1450,0.7260,13.701
2.2560,-13.8480,7.1520,1.0470,15.621
2.2630,-15.4470,8.1380,1.4390,17.519
2.2750,-17.0980,9.5210,1.6700,19.641
2.2830,-18.7450,11.2590,1.4650,21.915
2.2950,-19.5730,13.1590,0.8110,23.599
2.3040,-18.3140,14.8970,0.1100,23.608
2.3140,-14.3510,15.6410,-0.4470,21.232
2.3240,-9.3950,14.8600,-0.5300,17.589
2.3350,-5.5290,13.2120,0.0110,14.322
2.3430,-3.3610,11.7490,1.7380,12.343
2.3540,-3.0020,11.2750,7.6640,13.960
2.3640,-2.9630,10.9550,13.3760,17.542
2.3730,-0.6830,9.8800,19.1300,21.542
2.3840,5.3630,8.7180,24.6270,26.669
2.3930,12.8690,7.7340,29.6740,33.256
2.4030,19.5160,6.3910,33.8240,39.570
2.4140,24.4950,3.9010,35.0600,42.947
2.4230,26.1440,0.6010,32.4160,41.649
2.4340,23.6940,-3.2610,27.2040,36.223
2.4440,20.0420,-7.4660,20.6360,29.720
2.4550,15.3270,-10.9770,14.8970,24.028
2.4640,11.0710,-11.4960,10.5820,19.150
2.4750,9.6680,-11.2040,6.7310,16.257
2.4830,10.5580,-11.6710,2.8010,15.985
2.4940,10.1390,-12.3370,-0.4600,15.975
2.5040,7.1060,-12.7280,-1.3870,14.643
2.5150,2.1720,-12.4400,-0.3540,12.633
2.5260,-1.1900,-12.7760,-0.0030,12.831
2.5360,-7.3680,-13.8850,0.8010,15.739
2.5460,-9.1950,-15.1070,1.0890,17.719
2.5560,-9.3480,-16.0770,1.1970,18.636
2.5670,-8.4250,-17.1710,1.0690,19.156
2.5750,-6.4910,-18.2590,0.7220,19.392
2.5860,-5.6520,-19.5840,0.0040,20.383
2.5960,-5.9360,-20.8760,-0.8830,21.721
2.6050,-6.7480,-21.6600,-1.7970,22.758
2.6130,-7.6860,-22.0820,-2.8000,23.548
2.6250,-9.0340,-22.5610,-3.6420,24.574
2.6330,-10.6890,-22.7400,-4.4560,25.519
2.6430,-12.1710,-22.3630,-5.3040,26.007
2.6550,-13.2430,-21.7500,-6.1840,26.205
2.6640,-13.7430,-21.0410,-7.2450,26.155
2.6760,-13.2930,-20.6140,-8.4080,25.929
2.6850,-10.7190,-20.1150,-9.6720,24.760
2.6950,-6.2730,-19.4340,-10.5320,22.977
2.7070,-1.9140,-18.8870,-10.9760,21.928
2.7160,3.2930,-17.7460,-9.4870,20.390
2.7250,9.2060,-16.2480,-6.4730,19.765
2.7350,15.2070,-14.6350,-3.0620,21.326
2.7460,19.6250,-13.4440,-0.0500,23.788
2.7550,21.3850,-12.0130,2.0090,24.610
2.7640,21.6130,-9.1130,2.4280,23.581
2.7730,22.6130,-5.0360,2.5900,23.311
2.7830,25.4500,-2.5150,3.1970,25.773
2.7940,28.2550,-2.2440,4.0280,28.629
2.8050,29.0530,-1.9900,5.4500,29.627
2.8140,28.7810,0.7360,7.5880,29.774
2.8260,27.1840,4.1710,9.6330,29.140
2.8360,25.1430,5.9730,10.1970,27.782
2.8460,23.1210,6.8370,8.9380,25.714
2.8560,19.7200,7.5140,6.9400,22.215
2.8650,15.1430,7.7660,4.8850,17.705
2.8730,10.5120,7.5620,3.2150,13.342
2.8850,6.4400,7.2580,1.9580,9.899
2.8930,3.0210,6.8300,1.1510,7.556
2.9060,0.4000,6.1270,0.6310,6.172
2.9150,-1.7900,5.3030,0.4630,5.616
2.9230,-4.0550,4.5290,0.4690,6.097
2.9360,-6.1840,4.0640,0.4680,7.415
2.9440,-8.3340,3.8780,0.5430,9.208
2.9550,-10.4230,3.9650,0.6240,11.169
2.9640,-12.1150,4.2810,0.7860,12.873
2.9740,-13.5550,4.8910,0.9870,14.444
2.9840,-14.9150,5.9280,1.1570,16.092
2.9940,-16.3960,7.5610,1.1720,18.093
3.0040,-17.8570,9.5910,1.0230,20.295
3.0140,-18.4210,11.5200,1.0040,21.750
3.0230,-16.9830,13.0450,1.2400,21.451
3.0340,-12.8310,13.9440,2.3760,19.098
3.0460,-7.0110,14.1750,5.3780,16.704
3.0530,-1.2020,14.4430,9.8750,17.537
3.0630,2.8980,14.4750,14.5350,20.717
3.0740,5.0500,13.0820,18.0230,22.836
3.0830,7.7070,10.3050,19.8850,23.686
3.0950,9.3880,6.7460,20.3230,23.381
3.1030,9.6940,3.3990,20.8350,23.230
3.1150,8.9310,1.0970,21.3950,23.210
3.1230,7.3890,0.3020,21.4060,22.647
3.1340,6.7840,0.1190,20.8450,21.921
3.1440,8.7530,-1.0940,19.5810,21.476
3.1540,10.5520,-2.1010,18.0810,21.040
3.1640,11.6260,-2.7320,16.9830,20.762
3.1750,10.9870,-6.2720,15.4520,19.970
3.1830,9.1460,-8.6010,12.5420,17.746
3.1930,8.0780,-9.4350,10.0170,15.957
3.2040,10.0430,-10.4860,8.3870,16.768
3.2150,11.8990,-11.9380,6.6350,18.114
3.2260,11.7560,-12.8990,4.7560,18.089
3.2350,9.2740,-13.9800,2.7120,16.994
3.2440,5.4210,-14.6460,0.4600,15.624
3.2560,1.5270,-15.1900,-1.1840,15.312
3.2650,-2.4490,-16.4360,-1.6900,16.703
3.2760,-5.5830,-17.7920,-2.6110,18.829
3.2840,-7.8110,-18.7910,-2.8350,20.546
3.2940,-7.7900,-19.7060,-2.3990,21.325
3.3040,-8.0500,-20.1820,-1.2320,21.763
3.3140,-8.7980,-20.1700,-0.4340,22.010
3.3250,-10.3900,-20.3040,-0.2860,22.810
3.3340,-11.9010,-20.3780,-0.5800,23.606
3.3440,-12.7050,-20.4630,-1.4840,24.132
3.3540,-13.0770,-20.2950,-2.5420,24.277
3.3640,-12.8610,-20.0080,-3.9950,24.118
3.3730,-11.9360,-19.5570,-5.8420,23.645
3.3860,-10.0350,-19.0320,-7.7410,22.866
3.3950,-7.6200,-18.4440,-9.3200,22.025
3.4040,-5.1980,-17.6300,-9.8920,20.873
3.4140,-2.7010,-16.8010,-9.3760,19.429
3.4250,0.5230,-15.5310,-7.5170,17.262
3.4350,5.4030,-14.0410,-7.0490,16.614
3.4460,6.4040,-14.9220,-5.4250,17.120
3.4540,7.6830,-15.1510,-3.5390,17.352
3.4660,8.1320,-15.2960,-0.5170,17.331
3.4750,9.9060,-15.7050,3.2340,18.848
3.4840,14.5350,-14.2460,6.3170,21.310
3.4960,19.9290,-10.3430,7.9140,23.807
3.5020,24.9450,-6.2940,8.7610,27.178
3.5160,28.9000,-4.2880,9.3280,30.669
3.5260,31.2210,-4.3350,8.5290,32.654
3.5360,30.9080,-3.8140,7.5750,32.050
3.5460,26.7240,-1.7520,7.6280,27.847
3.5560,22.5930,0.1420,8.9240,24.292
3.5650,19.7620,1.2640,10.6910,22.504
3.5780,17.1920,2.8070,11.3670,20.800
3.5840,14.5930,4.1660,11.3030,18.923
3.5940,11.7630,5.2850,10.7730,16.803
3.6030,8.5380,6.0380,9.8780,14.385
3.6140,5.5550,6.5380,8.7000,12.219
3.6260,3.5540,7.4840,7.3030,11.044
3.6340,4.3920,10.3070,4.6180,12.118
3.6440,1.8800,8.1400,2.6280,8.758
3.6550,-5.5210,4.8740,0.9770,7.429
3.6640,-8.7440,6.8490,0.8410,11.139
3.6740,-10.6480,7.2990,0.3060,12.913
3.6850,-12.2250,7.3840,-0.3340,14.286
3.6950,-13.4530,8.0360,-0.6070,15.682
3.7040,-14.7130,8.6910,-0.5800,17.098
3.7160,-15.5670,9.3560,-0.2760,18.164
3.7220,-16.1220,9.8820,0.1700,18.910
3.7330,-15.9320,10.1000,0.7790,18.880
3.7430,-14.9550,9.4850,2.5840,17.897
3.7540,-13.6620,8.4290,5.6570,17.021
3.7630,-12.5760,7.5310,9.4310,17.430
3.7750,-11.3340,7.1010,13.0300,18.673
3.7830,-9.4950,7.0910,16.1220,20.009
3.7940,-5.9480,7.0900,18.9330,21.074
3.8020,-0.3930,7.1800,21.9300,23.079
3.8160,5.5070,7.0670,24.2700,25.871
3.8220,12.2900,5.9870,25.7080,29.117
3.8330,18.7300,4.3650,25.9100,32.268
3.8430,23.1240,2.7490,24.4590,33.772
3.8530,25.8030,0.7530,21.2830,33.456
3.8640,26.3980,-1.7470,17.4610,31.698
3.8740,24.6440,-3.4510,14.0750,28.589
3.8820,20.2730,-5.9080,11.4120,24.003
3.8960,15.4770,-9.0200,8.8010,19.959
3.9100,10.8110,-10.2840,6.3530,16.217
3.9120,9.0980,-9.6990,3.8480,13.844
3.9230,11.0720,-9.4180,1.3880,14.602
3.9330,12.2960,-9.8210,-1.0400,15.771
3.9430,9.5720,-10.4680,-2.7820,14.455
3.9540,4.5770,-11.2120,-3.6430,12.646
3.9640,-0.8060,-12.2060,-3.9640,12.859
3.9750,-4.8840,-13.2890,-2.9470,14.462
3.9850,-8.1310,-14.6620,-1.2500,16.812
3.9940,-13.6340,-15.8030,-0.9970,20.895
4.0050,-14.0430,-17.6860,0.1850,22.584
4.0140,-13.5400,-19.2720,2.1570,23.652
4.0230,-12.5120,-20.5880,3.4360,24.336
4.0330,-12.3210,-21.6980,4.7030,25.392
4.0420,-12.5870,-22.5000,5.1680,26.294
4.0520,-12.4060,-23.4500,5.1090,27.017
4.0650,-12.0620,-24.0930,4.5970,27.333
4.0740,-12.0830,-24.5590,3.6690,27.615
4.0840,-12.2800,-24.7030,2.0290,27.661
4.0950,-12.8690,-24.2160,0.1940,27.424
4.1040,-13.1240,-23.6460,-1.3360,27.077
4.1130,-12.4960,-23.0040,-2.6370,26.311
4.1230,-10.5300,-21.9140,-3.8940,24.623
4.1350,-7.0280,-20.6730,-5.1760,22.440
4.1420,-2.2140,-18.8440,-6.3860,20.019
4.1540,3.1490,-16.6970,-7.2620,18.478
4.1640,7.2680,-14.6690,-7.4270,17.977
4.1730,9.3350,-13.7950,-6.6500,17.935
4.1840,11.0850,-14.1280,-5.2190,18.701
4.1940,14.4810,-14.6680,-3.6680,20.936
4.2020,19.5390,-13.9750,-2.4810,24.150
4.2140,25.7470,-10.6650,-1.6960,27.920
4.2240,31.8130,-6.5360,-1.4390,32.509
4.2320,37.0280,-5.6660,-1.0220,37.473
4.2430,40.2750,-6.5560,-1.0030,40.817
4.2550,38.3760,-6.3130,-0.3940,38.894
4.2630,33.1620,-3.4290,0.8930,33.351
4.2740,27.5970,-1.2680,3.0420,27.793
4.2840,23.8010,0.0620,4.6520,24.251
4.2950,19.2450,1.5750,5.0640,19.962
4.3040,14.9980,3.1120,4.9090,16.085
4.3140,10.8290,3.9370,4.5610,12.392
4.3240,7.2040,4.2480,3.8100,9.190
4.3330,4.2610,4.5740,2.5510,6.752
4.3460,1.6490,4.9120,1.0360,5.284
4.3540,0.4920,5.8690,-0.2940,5.897
4.3640,-0.3380,5.6890,-2.1930,6.106
4.3760,-2.4080,4.2190,-3.5470,6.015
4.3850,-5.4480,3.1890,-3.9310,7.437
4.3920,-7.3740,3.3050,-3.6070,8.849
4.4020,-9.0700,3.6580,-2.9740,10.222
4.4160,-10.6220,4.2050,-2.5610,11.708
4.4240,-11.8320,5.0190,-1.9600,13.001
4.4320,-12.9250,6.0880,-1.1670,14.335
4.4410,-14.1200,7.4340,-0.4100,15.963
4.4520,-15.1460,9.0780,0.3000,17.661
4.4620,-15.1990,10.6000,1.4380,18.586
4.4720,-14.3180,11.5760,3.5120,18.744
4.4830,-13.1610,11.7500,6.8610,18.930
4.4930,-11.9100,11.3890,11.2190,19.935
4.5040,-10.2940,10.7240,15.8560,21.734
4.5150,-8.0290,9.8360,20.0470,23.730
4.5240,-4.3180,8.7730,23.2080,25.184
4.5320,0.6030,7.3490,25.1680,26.226
4.5420,5.5130,5.6300,25.9850,27.153
4.5550,9.1540,4.1430,26.4290,28.275
4.5640,10.9230,3.0920,26.8140,29.118
4.5750,12.2080,2.0000,25.7810,28.595
4.5820,14.6290,0.1500,23.1150,27.356
4.5930,16.7060,-1.6560,19.8770,26.018
4.6020,17.0900,-3.3500,17.0810,24.394
4.6130,15.6490,-6.5450,14.8370,22.536
4.6220,12.2720,-9.1900,12.5290,19.800
4.6330,9.7120,-9.5060,9.6440,16.664
4.6440,11.2190,-9.9700,6.6550,16.418
4.6550,13.9130,-10.5960,3.8700,17.912
4.6650,13.7270,-10.8430,1.7390,17.579
4.6760,10.0220,-11.1370,0.8280,15.005
4.6840,5.0800,-11.3860,0.4560,12.476
4.6960,0.4960,-12.1050,0.7980,12.141
4.7050,-3.0990,-13.1220,1.0180,13.521
4.7160,-5.9080,-14.1270,1.1800,15.358
4.7250,-8.0500,-15.0440,1.2400,17.107
4.7360,-7.8490,-16.3720,1.3490,18.206
4.7450,-7.1740,-17.8440,0.6490,19.243
4.7520,-5.8990,-18.7680,0.2330,19.675
4.7630,-4.9090,-19.5640,0.2340,20.172
4.7760,-5.5930,-20.3370,-0.3090,21.094
4.7840,-7.1510,-20.8090,-1.5200,22.056
4.7950,-8.7900,-20.8330,-3.6770,22.908
4.8050,-11.1010,-20.9980,-5.0490,24.283
4.8120,-12.3970,-20.4480,-6.1070,24.680
4.8260,-12.0550,-19.7070,-7.6760,24.344
4.8340,-11.1610,-18.7630,-9.2350,23.705
4.8440,-9.8200,-17.7850,-10.6540,22.940
4.8520,-7.6250,-16.8850,-11.6690,21.895
4.8660,-3.9590,-16.1720,-11.3990,20.178
4.8730,0.7410,-15.0810,-9.9490,18.082
4.8830,5.8240,-13.8890,-7.9280,17.020
4.8930,10.6310,-12.9210,-5.3230,17.559
4.9040,14.4650,-12.1890,-2.6130,19.095
4.9150,17.1850,-11.5270,-0.8050,20.709
4.9240,18.3660,-10.1380,-0.2940,20.980
4.9350,20.2970,-7.0480,-0.0540,21.486
4.9450,23.5810,-3.4480,0.4760,23.837
4.9550,26.7090,-2.2500,1.4370,26.842
4.9630,27.8570,-3.0120,3.3260,28.216
4.9720,26.9140,-2.5660,5.8110,27.653
4.9840,24.7150,-0.6320,8.4970,26.142
4.9950,21.9340,1.2710,10.2360,24.238
5.0030,20.3650,2.5840,10.4670,23.043
5.0130,17.9010,3.5380,9.3790,20.517
5.0230,14.2640,4.0720,7.3750,16.566
5.0330,10.1490,4.2460,4.9210,12.052
5.0440,6.2800,4.2600,2.6520,8.039
5.0530,3.0710,4.0360,1.0990,5.189
5.0650,0.4770,3.5920,0.2530,3.632
5.0730,-1.7620,3.0340,-0.0740,3.509
5.0840,-3.9130,2.4270,-0.0690,4.605
5.0950,-6.0020,1.9650,0.1680,6.318
5.1020,-7.9930,1.5690,0.4790,8.160
5.1150,-9.3500,1.5440,0.7850,9.509
5.1220,-10.7700,1.9270,1.1340,11.000
5.1340,-12.4540,2.6270,1.5180,12.818
5.1470,-13.7850,3.6690,2.1690,14.429
5.1520,-14.7560,5.1800,2.9120,15.908
5.1640,-15.0950,6.6160,3.5220,16.853
5.1730,-15.0330,8.3210,3.8270,17.603
5.1830,-14.2430,9.8050,4.4710,17.860
5.1930,-12.6390,11.0620,5.9740,17.827
5.2020,-10.6770,11.6650,8.0230,17.732
5.2140,-8.3620,11.6800,10.7590,17.947
5.2220,-5.8570,11.4230,13.8360,18.874
5.2320,-3.3390,11.5070,16.6270,20.494
5.2420,-0.2530,11.3090,18.3640,21.568
5.2540,4.3180,10.6220,19.4030,22.538
5.2610,9.3560,9.0920,20.2010,24.047
5.2730,13.0110,7.7100,21.1660,26.014
5.2810,14.7610,6.7000,21.7950,27.162
5.2930,16.6900,5.5790,21.6490,27.899
5.3020,19.7600,4.0370,19.7660,28.239
5.3150,21.7360,2.4630,16.9610,27.680
5.3240,21.1140,1.1230,14.8080,25.814
5.3350,17.7000,-1.3630,12.9890,21.997
5.3420,13.1160,-4.5620,11.0820,17.767
5.3550,9.0330,-5.8710,9.6420,14.458
5.3620,9.9130,-6.1760,9.5660,15.097
5.3750,14.2050,-8.0600,9.0800,18.687
5.3850,15.0240,-9.5800,7.4360,19.308
5.3940,10.6280,-9.8890,3.9770,15.052
5.4030,5.6490,-10.9820,0.9720,12.388
5.4150,1.2250,-11.9650,-0.5750,12.041
5.4260,-3.1320,-12.5520,-0.9570,12.972
5.4350,-6.3380,-13.3810,-0.8180,14.829
5.4440,-7.3630,-14.2150,-0.3930,16.014
5.4530,-7.5740,-14.6700,1.3940,16.569
5.4650,-8.6600,-15.9110,0.9980,18.143
5.4740,-8.2230,-17.5850,0.6410,19.423
5.4830,-7.0860,-17.8530,0.5250,19.215
5.4950,-6.3570,-18.7720,0.5760,19.828
5.5030,-5.4510,-19.6330,0.1540,20.376
5.5130,-5.6080,-20.0020,-0.5860,20.782
5.5230,-6.6270,-19.9980,-1.1070,21.097
5.5330,-7.7130,-19.8050,-2.2950,21.377
5.5440,-8.9160,-19.6940,-3.5670,21.911
5.5550,-9.8400,-19.5150,-4.4780,22.309
5.5630,-9.7150,-19.4440,-5.6270,22.452
5.5750,-8.1080,-19.3250,-7.0520,22.112
5.5820,-5.2250,-19.2140,-9.0340,21.865
5.5930,-1.9640,-18.8970,-10.4470,21.682
5.6020,1.3450,-18.3180,-10.7170,21.265
5.6170,4.1310,-17.4680,-9.8430,20.471
5.6230,5.4390,-17.0110,-7.6520,19.430
5.6350,6.1490,-17.1320,-4.2890,18.701
5.6430,6.8450,-16.9440,0.5110,18.282
5.6540,8.2950,-15.0540,6.0760,18.230
5.6630,12.3700,-11.0780,10.5540,19.676
5.6730,18.6320,-6.1510,13.0990,23.592
5.6820,24.7820,-2.7790,14.1580,28.676
5.6910,30.4770,-2.1060,13.8430,33.540
5.7030,33.4540,-1.0640,12.9400,35.885
5.7140,31.4780,1.2560,12.5220,33.900
5.7250,26.3120,3.3270,12.7530,29.428
5.7350,21.3290,4.2490,11.8650,24.774
5.7430,17.6030,4.9400,9.9620,20.821
5.7540,14.7240,5.2680,8.1900,17.653
5.7640,11.8120,5.4470,6.1470,14.387
5.7740,8.5390,5.3570,4.2550,10.942
5.7840,5.2240,4.8660,2.6380,7.611
5.7940,2.3980,4.0040,1.6740,4.958
5.8030,0.0930,3.0940,1.2400,3.335
5.8140,-1.9210,2.3300,0.9460,3.164
5.8250,-3.6980,1.5870,0.5570,4.063
5.8310,-5.6520,1.2380,0.4330,5.802
5.8430,-7.3380,1.0250,0.1710,7.411
5.8510,-8.4230,0.9220,-0.2450,8.477
5.8690,-8.7840,0.6680,-0.6620,8.834
5.8710,-10.0100,1.0290,-0.7560,10.091
5.8810,-11.8230,2.2990,-0.4070,12.051
5.8960,-13.2920,3.9020,-0.2650,13.855
5.9010,-14.3340,5.3000,0.2030,15.284
5.9150,-15.0510,6.3290,0.8790,16.351
5.9210,-14.9280,7.1080,2.0910,16.666
5.9330,-13.8250,8.0100,4.2260,16.527
5.9680,-12.3840,8.8120,6.9000,16.692
5.9700,-10.3890,9.1420,10.0290,17.091
5.9720,-8.0090,9.3330,13.5810,18.322
5.9750,-5.2810,8.8480,17.8060,20.573
5.9820,-2.3620,7.5370,22.0630,23.434
5.9930,0.4610,5.6590,24.9440,25.582
6.0000,2.5660,3.6210,24.7780,25.172
6.0120,2.1880,2.1470,21.6560,21.872
6.0210,0.7090,2.1410,18.1880,18.327
6.0310,1.5750,1.9240,16.8890,17.071
6.0410,5.1300,1.4630,18.0880,18.858
6.0540,9.5390,0.7950,20.5020,22.626
6.0610,12.6260,-1.0530,21.3260,24.806
6.0720,13.1660,-4.3540,19.4800,23.912
6.0820,11.8710,-6.7890,16.4190,21.368
6.0920,12.1150,-8.1610,13.2450,19.718
6.1010,14.2850,-9.3000,9.4740,19.501
6.1150,15.1550,-10.3370,5.9730,19.293
6.1240,13.9000,-10.6580,2.6160,17.710
6.1330,11.0160,-10.8060,-0.0910,15.431
6.1430,6.7770,-11.1770,-1.9070,13.209
6.1530,2.8370,-11.6440,-2.6060,12.265
6.1630,-0.5090,-12.1890,-1.9470,12.354
6.1730,-2.8660,-12.9400,-1.0870,13.298
6.1840,-3.7390,-13.4200,-0.3500,13.936
6.1940,-3.2960,-14.1100,1.6630,14.585
6.2040,-6.6950,-15.4910,-0.3300,16.879
6.2110,-6.3030,-16.0430,-1.3120,17.287
6.2210,-6.2780,-16.2860,-0.6960,17.468
6.2330,-6.2770,-16.7220,-0.2840,17.864
6.2420,-6.8010,-17.0730,-0.0380,18.378
6.2530,-8.1150,-17.5220,-0.3120,19.312
6.2610,-9.7860,-17.7440,-0.9650,20.287
6.2700,-11.0080,-17.6860,-1.9930,20.927
6.2820,-11.9770,-17.4820,-3.3450,21.454
6.2900,-12.2730,-17.1370,-4.9680,21.656
6.3040,-11.6770,-16.7270,-6.8520,21.520
6.3130,-9.7830,-16.2090,-8.5280,20.765
6.3220,-7.2060,-15.5400,-8.9900,19.345
6.3340,-3.8490,-14.8170,-8.8310,17.673
6.3410,0.2620,-14.0510,-7.6100,15.982
6.3510,4.3040,-13.0120,-6.2570,15.066
6.3620,7.5450,-12.3640,-4.2080,15.083
6.3700,10.4330,-12.1960,-1.6170,16.131
16.0960,13.2750,-11.4520,0.9860,17.560
16.1020,14.9360,-10.6420,2.3110,18.485
16.1040,14.8520,-8.3780,2.4590,17.228
16.1060,15.2650,-4.6670,2.8650,16.218
16.1110,18.0470,-3.1530,4.2940,18.817
16.1130,30.7010,-1.3540,3.5390,30.934
16.1150,29.3170,-0.3640,5.2490,29.785
16.1170,25.7250,0.9870,5.9570,26.424
16.1180,21.8210,1.7930,5.9340,22.684
16.1190,17.1780,2.3190,5.5510,18.201
16.1210,14.0130,2.9110,5.0780,15.186
16.1230,10.2840,2.8720,4.4020,11.549
16.1240,6.9130,3.0470,3.4290,8.296
16.1250,3.9090,3.1990,2.1550,5.492
16.1260,1.3280,3.1430,1.0920,3.583
16.1270,-1.0240,3.2550,0.0880,3.413
16.1280,-2.6540,3.8300,-0.6100,4.699
16.1300,-2.3750,4.7870,-1.7210,5.614
16.1300,-5.7870,2.0280,-2.8550,6.764
16.1330,-8.7500,0.9230,-2.3210,9.100
16.1520,-10.6170,2.7810,-1.6680,11.101
16.1540,-13.0110,4.2240,-1.1530,13.728
16.1650,-14.9510,5.6530,-1.1020,16.022
16.1730,-15.8830,6.9160,-1.1300,17.360
16.1910,-15.7520,7.9100,-1.0130,17.656
16.1950,-14.9650,8.2930,-0.0860,17.109
16.2030,-13.2590,8.5410,2.1420,15.917
16.2130,-11.3470,8.6220,5.4550,15.259
16.2230,-9.1530,8.3520,9.7860,15.789
16.2330,-6.6910,7.7800,14.8130,18.020
16.2440,-4.2620,7.2420,19.9240,21.624
16.2600,-1.5040,6.6540,24.4160,25.351
16.2750,3.4960,6.1080,27.8350,28.711
16.2760,9.6700,4.6230,29.6780,31.554
16.2830,14.2390,2.2120,29.5670,32.891
16.2930,16.8390,-0.4700,27.7040,32.424
16.3030,18.1600,-2.6090,25.0490,31.049
16.3140,19.7350,-3.7530,22.1250,29.884
16.3250,21.1490,-4.3690,18.0200,28.126
16.3340,22.1760,-5.6760,13.7060,26.680
16.3430,21.9670,-7.9140,10.4960,25.600
16.3550,21.5700,-7.9200,8.0120,24.335
16.3630,22.9410,-6.6070,4.7770,24.347
17.3330,25.9020,-7.2730,0.1630,26.904
17.3370,27.6570,-8.9710,-4.3190,29.395
17.3420,25.7690,-10.6560,-7.0230,28.756
17.3460,20.5330,-11.8860,-7.6300,24.922
17.3480,13.7260,-12.5530,-6.8200,19.811
17.3510,6.7830,-13.1980,-5.3370,15.770
17.3540,-11.5250,-21.2250,-9.8940,26.100
17.3560,-8.3800,-21.0260,-9.1890,24.429
17.3580,-4.3410,-20.9190,-8.2570,22.905
17.3590,-0.1200,-21.0000,-7.0530,22.153
17.3610,3.4750,-20.8750,-5.8040,21.944
17.3620,6.1420,-20.2360,-4.1130,21.544
17.3640,8.4360,-19.3340,-1.9090,21.181
17.3720,11.3910,-18.5730,0.5490,21.795
17.3840,16.6510,-17.1280,2.8920,24.062
17.3920,24.1230,-13.6190,4.1780,28.015
17.4040,31.5340,-9.0800,3.4570,32.997
17.4140,36.5750,-6.3080,1.6700,37.153
45.8930,38.7120,-6.2130,0.3090,39.209
46.1040,-0.0170,-0.0050,-0.0870,0.089
46.1140,0.0190,0.0150,0.7750,0.775
46.1240,-0.3750,0.0030,2.3600,2.390
46.1340,-1.5850,0.1230,4.1700,4.463
46.1410,0.3050,0.8510,5.0590,5.139
46.1510,1.0540,0.4160,7.1080,7.198
46.1640,1.1380,-0.3770,9.7070,9.781
46.1960,-0.1630,-0.4410,11.2650,11.275
46.1980,-2.5490,0.1400,11.3740,11.657
46.2030,-4.4570,0.7230,10.6290,11.548
46.2060,-5.0320,0.9240,9.5260,10.813
46.2510,-4.4190,0.5700,8.7480,9.817
46.2540,-1.4280,-1.3760,11.1560,11.331
46.2550,0.6840,-2.7470,15.5540,15.810
46.2560,1.6540,-3.0370,18.3910,18.713
46.2570,2.4340,-3.0670,15.6960,16.177
46.2700,0.3320,-2.1000,9.4590,9.695
46.2710,2.1000,-3.0740,11.0530,11.663
46.2810,4.3790,-3.3220,11.4150,12.669
46.2920,6.0500,-2.7720,11.1150,12.955
46.3330,6.5690,-1.7770,11.2510,13.149
46.3350,6.7230,-1.5500,9.5020,11.743
46.3360,6.9680,-1.5200,7.6630,10.468
46.3370,5.9810,-0.7220,5.5540,8.194
46.3400,5.3850,-0.1430,2.0860,5.777
46.3500,5.2950,-0.8180,0.1590,5.360
46.3590,5.9100,-1.3180,-0.5860,6.083
46.3700,7.1390,-2.1320,-0.9530,7.511
46.3800,8.1760,-3.0040,-1.0850,8.778
46.3890,8.6720,-3.3450,-0.8420,9.333
46.3990,8.7410,-3.2820,-0.4510,9.348
46.4090,8.5050,-3.2500,0.0370,9.105
46.4210,7.9180,-3.0130,0.4850,8.486
46.4290,6.9640,-2.4930,1.2270,7.498
46.4430,6.0030,-2.1470,1.9550,6.668
46.4500,5.7240,-2.0850,2.4880,6.580
46.4600,5.8950,-2.2600,2.9020,6.948
46.4700,6.4130,-2.3480,2.9260,7.430
46.4800,7.0440,-2.3620,2.9230,7.984
46.4890,7.6560,-2.4650,3.0170,8.590
46.5000,8.1930,-2.6210,3.1290,9.153
46.5100,8.4390,-2.7810,3.1280,9.420
46.5220,9.8870,-1.0670,2.2340,10.192
46.5300,10.3300,-1.8200,2.3660,10.753
46.5470,9.8030,-2.0040,2.6960,10.363
46.5500,8.7410,-2.1660,3.6380,9.712
46.5600,7.8550,-2.3270,3.9240,9.084
46.5690,7.5590,-2.4310,3.4800,8.669
46.5800,7.6830,-2.3800,3.0920,8.617
46.5900,7.7410,-2.2180,2.6970,8.492
46.5990,7.6600,-1.8270,2.4340,8.242
46.6100,7.2220,-1.4140,2.2500,7.695
46.6200,6.6700,-1.2710,2.3650,7.190
46.6370,6.7130,-1.2040,2.7920,7.369
46.6470,7.2510,-1.2310,3.6320,8.203
46.6560,7.8130,-1.6760,3.7030,8.807
46.6670,7.9710,-1.9240,3.4840,8.909
46.6700,7.6520,-1.8210,3.2450,8.509
46.6830,7.2580,-1.2690,2.9940,7.953
46.6910,6.5790,-0.6430,3.0150,7.265
46.7070,5.7550,-0.4930,2.2620,6.203
46.7090,5.1530,-0.8000,1.0470,5.319
46.7190,4.9950,-0.7390,-0.4560,5.070
46.7310,5.1470,-0.1070,-1.1510,5.275
46.7390,5.3290,0.7570,-1.1780,5.510
46.7490,5.3210,1.0540,-0.5600,5.453
46.7590,4.9230,-0.0090,1.1390,5.053
46.7700,4.6340,-1.2560,3.1940,5.767
46.7800,4.3870,-1.3730,4.2780,6.280
46.7890,4.3760,-0.8810,4.1900,6.122
46.8010,4.9760,-0.6440,3.8470,6.323
46.8100,5.9060,-0.6250,4.3690,7.373
46.8200,6.7820,-0.8290,5.2890,8.640
46.8320,7.6980,-0.9440,6.1510,9.899
46.9230,8.7400,-0.4790,4.2450,9.728
46.9230,6.9160,-0.2560,1.4590,7.073
46.9240,5.4590,0.0190,0.8470,5.524
46.9250,4.9870,-0.1010,0.4990,5.013
46.9250,5.1280,-0.6110,0.0000,5.164
46.9260,5.5080,-0.7600,-0.5820,5.591
46.9350,5.8190,-0.9480,-1.3170,6.041
46.9410,6.0720,-0.9270,-1.8720,6.421
46.9530,6.4500,-0.6810,-2.2010,6.849
46.9590,6.9050,-0.5830,-2.2850,7.297
46.9710,7.3270,-0.7090,-1.7880,7.575
47.0010,7.6450,-0.7890,-0.7740,7.724
47.0030,7.8000,-0.4070,0.4380,7.823
47.0040,7.9690,0.1040,1.3780,8.088
47.0390,8.1490,0.4900,1.9470,8.393
47.0390,8.1600,0.6820,1.7860,8.381
47.0400,7.7280,0.6290,1.0440,7.824
47.0400,7.1500,0.4270,0.5570,7.184
47.0590,6.5870,0.4810,0.5980,6.632
47.0590,6.2180,0.7890,1.1110,6.366
47.0760,6.2240,1.2560,1.7480,6.586
47.0870,6.4260,1.5980,2.2810,7.004
47.0900,6.5640,1.6940,2.5500,7.243
47.1020,6.7070,1.5770,2.3140,7.268
47.1090,6.4330,1.9370,2.6040,7.205
47.1190,5.9720,2.7800,3.3780,7.403
47.1290,5.6470,2.1470,3.0180,6.753
47.1390,5.4430,1.2370,2.5330,6.130
47.1490,4.9490,0.7010,2.7180,5.690
47.1590,3.8950,0.9760,2.9110,4.960
47.1690,3.2620,1.3550,3.3360,4.859
47.1800,3.2810,1.4640,3.7700,5.208
47.1890,3.6170,1.5100,4.0550,5.640
47.1990,4.0240,1.5090,4.2760,6.062
47.2090,4.3630,1.5140,4.6110,6.526
47.2190,4.6010,1.5720,4.8110,6.840
47.2290,4.6270,1.4910,4.7070,6.767
47.2390,4.2660,1.5590,4.9740,6.736
47.2490,3.7380,1.3490,5.4170,6.718
47.2600,3.4100,0.7590,5.6830,6.671
47.2690,3.3310,0.2560,5.6520,6.566
47.2820,3.2830,0.1590,5.4900,6.399
47.2890,3.3250,0.3460,5.1850,6.169
47.2990,3.7330,0.0760,5.3210,6.500
47.3090,5.0480,-0.5500,5.8060,7.713
47.3200,6.5430,-1.0980,5.9570,8.916
47.3330,6.7730,-1.3090,5.9850,9.133
47.3390,6.4000,-1.2030,5.7360,8.678
47.3490,6.0620,-1.0150,4.8240,7.813
47.3590,5.6630,-0.8710,3.4830,6.705
47.3690,5.3070,-0.5510,2.2950,5.808
47.3800,5.0390,-0.1250,1.3700,5.223
47.3890,4.8550,0.1600,0.7680,4.918
47.4000,4.8430,0.3220,0.3170,4.864
47.4090,5.1470,0.3310,0.0310,5.158
47.4200,5.7290,0.4710,-0.3260,5.758
47.4310,6.4040,0.6400,-0.6960,6.473
47.4390,6.9550,0.4890,-0.6160,6.999
47.4490,7.1710,0.1320,0.0810,7.173
47.4600,7.1090,-0.1460,0.8940,7.166
47.4690,6.7170,-0.2710,1.5530,6.900
47.4800,6.0560,-0.2290,2.0940,6.412
47.4890,5.3380,-0.0350,2.4080,5.856
47.5000,4.8020,0.1450,2.6020,5.464
47.5090,4.5110,0.2470,2.6930,5.260
47.5190,4.2960,0.2230,2.5630,5.007
47.5310,4.3240,0.1690,2.3790,4.938
47.5390,4.4240,0.2200,2.4560,5.065
47.5500,4.6240,0.3330,2.3470,5.196
47.5590,4.8860,0.2610,2.2240,5.375
47.5690,5.1370,0.0780,2.0660,5.537
47.5830,5.0880,-0.0480,2.3050,5.586
47.5890,4.6390,0.2940,2.1010,5.101
47.6030,4.3040,0.4800,1.7900,4.686
47.6090,4.4710,0.3920,1.5140,4.737
47.6220,4.9120,0.2390,1.4370,5.123
47.6290,5.4250,0.0430,1.2960,5.578
47.6400,5.7820,0.0870,0.9860,5.866
